exp,subj,age,gender,block,awareness_type,session,trial,set,pattern,quadrant,RT,num_additional_Rs,dist_to_T,camera_distance_from_target,angle_error_degrees,fc_response
3,1,25,F,1,1,1,1,2,3,3,9999,0,-1,-1,-1,-1
3,1,25,F,1,1,1,2,5,2,2,2154,0,0.2443779,6.498569,2.059091,-1
3,1,25,F,1,1,1,3,5,3,3,3643,0,0.53312059999999994,6.580341,4.504022,-1
3,1,25,F,1,1,1,4,1,4,4,3521,0,0.1836215,6.585173,1.530207,-1
3,1,25,F,1,1,1,5,2,1,1,5976,2,0.7093625,12.6114,3.210833,-1
3,1,25,F,1,1,1,6,2,2,2,1976,0,0.1389266,12.51323,0.6227542,-1
3,1,25,F,1,1,1,7,5,4,4,2398,0,0.460515,6.586216,3.761923,-1
3,1,25,F,1,1,1,8,1,1,1,1543,0,0.2899411,6.51471,2.431399,-1
3,1,25,F,1,1,1,9,1,3,3,4121,0,0.3460475,6.570887,2.921747,-1
3,1,25,F,1,1,1,10,5,1,1,1455,0,0.0454634,6.51079,0.3851218,-1
3,1,25,F,1,1,1,11,6,2,2,3166,0,0.3432467,12.542,1.53289,-1
3,1,25,F,1,1,1,12,6,4,4,3776,0,0.5975152,12.61694,2.668878,-1
3,1,25,F,1,1,1,13,6,3,3,3443,0,0.6312761,12.49775,2.86908,-1
3,1,25,F,1,1,1,14,2,4,4,4132,1,0.6325609,12.60152,2.810976,-1
3,1,25,F,1,1,1,15,6,1,1,3543,0,0.1763105,12.6045,0.7903101,-1
3,1,25,F,1,1,1,16,1,2,2,1521,0,0.4857135,6.492522,4.104605,-1
3,1,25,F,2,1,1,1,5,5,1,1765,0,9.200524e-8,6.470419,0,-1
3,1,25,F,2,1,1,2,1,6,2,2076,0,0.3683901,6.487016,3.11439,-1
3,1,25,F,2,1,1,3,1,8,4,1955,0,0.3709977,6.579032,3.039635,-1
3,1,25,F,2,1,1,4,1,7,3,3065,0,0.2024812,6.563884,1.682955,-1
3,1,25,F,2,1,1,5,5,6,2,1865,0,0.2505421,6.494412,2.114148,-1
3,1,25,F,2,1,1,6,2,7,3,9999,0,-1,-1,-1,-1
3,1,25,F,2,1,1,7,2,6,2,1543,0,1.915069e-7,12.508,0,-1
3,1,25,F,2,1,1,8,2,5,1,3432,0,0.8864914,12.60501,4.016394,-1
3,1,25,F,2,1,1,9,5,7,3,3620,0,0.2926338,6.580343,2.448566,-1
3,1,25,F,2,1,1,10,6,5,1,3254,0,0.4026369,12.61101,1.814883,-1
3,1,25,F,2,1,1,11,2,8,4,4276,0,0.7421119,12.59832,3.328138,-1
3,1,25,F,2,1,1,12,6,7,3,4832,0,0.1025284,12.48382,0.4614008,-1
3,1,25,F,2,1,1,13,5,8,4,3487,0,0.3844438,6.604998,3.191691,-1
3,1,25,F,2,1,1,14,1,5,1,1599,0,0.07373477,6.494599,0.6240098,-1
3,1,25,F,2,1,1,15,6,8,4,4487,1,0.60939430000000006,12.62047,2.708122,-1
3,1,25,F,2,1,1,16,6,6,2,2109,0,0.1079748,12.49531,0.4849715,-1
3,1,25,F,3,1,1,1,1,11,3,3465,0,0.04753801,6.556269,0.3976209,-1
3,1,25,F,3,1,1,2,5,9,1,1654,0,0.04044195,6.486483,0.3426407,-1
3,1,25,F,3,1,1,3,6,11,3,4554,0,0.3992422,12.52048,1.807319,-1
3,1,25,F,3,1,1,4,1,12,4,4887,1,0.3414836,6.568509,2.818695,-1
3,1,25,F,3,1,1,5,2,10,2,1654,0,0.2646036,12.48921,1.197956,-1
3,1,25,F,3,1,1,6,6,9,1,5509,0,0.3073315,12.58875,1.38211,-1
3,1,25,F,3,1,1,7,2,11,3,9999,0,-1,-1,-1,-1
3,1,25,F,3,1,1,8,1,10,2,1554,0,1.021417e-7,6.477807,0,-1
3,1,25,F,3,1,1,9,5,11,3,4410,0,5.728214e-8,6.550285,0,-1
3,1,25,F,3,1,1,10,6,12,4,3277,0,0.1172095,12.60947,0.5222706,-1
3,1,25,F,3,1,1,11,1,9,1,1454,0,9.795247e-8,6.486249,0.01978234,-1
3,1,25,F,3,1,1,12,2,12,4,3865,1,0.5175877,12.58285,2.323216,-1
3,1,25,F,3,1,1,13,6,10,2,1954,0,2.930522e-7,12.49409,0.01978234,-1
3,1,25,F,3,1,1,14,2,9,1,9931,0,0.5934153,12.57375,2.678177,-1
3,1,25,F,3,1,1,15,5,10,2,1654,0,0.1096552,6.472382,0.9240804,-1
3,1,25,F,3,1,1,16,5,12,4,3032,0,0.3550426,6.564839,2.932247,-1
3,1,25,F,4,1,1,1,6,13,1,4265,0,0.2073733,12.58986,0.9285166,-1
3,1,25,F,4,1,1,2,5,14,2,2187,0,0.02405121,6.475189,0.2027088,-1
3,1,25,F,4,1,1,3,6,16,4,4076,0,1.013078,12.58589,4.534405,-1
3,1,25,F,4,1,1,4,6,15,3,2399,0,0.797803,12.53856,3.625634,-1
3,1,25,F,4,1,1,5,6,14,2,2087,1,0.5109856,12.4833,2.295587,-1
3,1,25,F,4,1,1,6,5,15,3,4043,0,0.5260081,6.540803,4.392934,-1
3,1,25,F,4,1,1,7,2,13,1,2210,0,0.311411,12.57265,1.402629,-1
3,1,25,F,4,1,1,8,5,16,4,3943,1,0.1468135,6.603526,1.213537,-1
3,1,25,F,4,1,1,9,1,14,2,1432,0,0.193738,6.453318,1.633147,-1
3,1,25,F,4,1,1,10,5,13,1,2032,0,1.089223e-7,6.461088,0,-1
3,1,25,F,4,1,1,11,2,16,4,4132,0,0.3389057,12.58085,1.508439,-1
3,1,25,F,4,1,1,12,2,15,3,9999,0,-1,-1,-1,-1
3,1,25,F,4,1,1,13,1,13,1,3488,1,0.4224135,6.44718,3.585067,-1
3,1,25,F,4,1,1,14,2,14,2,1188,0,0.6399727,12.46617,2.895229,-1
3,1,25,F,4,1,1,15,1,16,4,2043,0,1.41382e-7,6.573995,0,-1
3,1,25,F,4,1,1,16,1,15,3,3576,0,7.990566e-8,6.531406,0,-1
3,1,25,F,5,1,1,1,5,20,4,1833,0,0.2720334,6.562884,2.246986,-1
3,1,25,F,5,1,1,2,1,17,1,1265,0,0.1288221,6.48676,1.091995,-1
3,1,25,F,5,1,1,3,6,19,3,2221,0,0.08898175,12.54161,0.4005627,-1
3,1,25,F,5,1,1,4,5,17,1,1254,0,1.160232e-7,6.467297,0,-1
3,1,25,F,5,1,1,5,2,18,2,1232,0,0.9272586,12.47973,4.149637,-1
3,1,25,F,5,1,1,6,6,20,4,2287,0,0.7329957,12.61664,3.280978,-1
3,1,25,F,5,1,1,7,2,17,1,3376,0,0.6199204,12.5798,2.805609,-1
3,1,25,F,5,1,1,8,6,18,2,1265,0,0.8048735,12.4546,3.586213,-1
3,1,25,F,5,1,1,9,1,19,3,2987,0,0.03335197,6.549087,0.2783625,-1
3,1,25,F,5,1,1,10,6,17,1,2043,0,0.2732137,12.52635,1.230034,-1
3,1,25,F,5,1,1,11,5,19,3,3221,0,0.5289111,6.59198,4.454302,-1
3,1,25,F,5,1,1,12,2,20,4,4776,0,0.7717865,12.5993,3.46074,-1
3,1,25,F,5,1,1,13,1,18,2,1565,0,0.157483,6.461302,1.331339,-1
3,1,25,F,5,1,1,14,1,20,4,3454,0,0.3526348,6.567227,2.91168,-1
3,1,25,F,5,1,1,15,5,18,2,1632,0,0.09960679,6.475592,0.848345,-1
3,1,25,F,5,1,1,16,2,19,3,9999,0,-1,-1,-1,-1
3,1,25,F,6,1,1,1,5,21,1,2654,0,7.403821e-8,6.455177,0,-1
3,1,25,F,6,1,1,2,5,23,3,2965,0,0.2404918,6.546275,2.001739,-1
3,1,25,F,6,1,1,3,5,24,4,2054,0,6.429326e-8,6.593885,0,-1
3,1,25,F,6,1,1,4,1,23,3,8498,0,0.2788064,6.555346,2.322289,-1
3,1,25,F,6,1,1,5,1,21,1,1188,0,0.06138194,6.470316,0.5215207,-1
3,1,25,F,6,1,1,6,2,22,2,1632,0,0.1026218,12.47273,0.4609765,-1
3,1,25,F,6,1,1,7,2,23,3,9999,0,-1,-1,-1,-1
3,1,25,F,6,1,1,8,5,22,2,3032,0,0.2066658,6.472654,1.745179,-1
3,1,25,F,6,1,1,9,6,21,1,2665,0,0.9927841,12.58952,4.444088,-1
3,1,25,F,6,1,1,10,1,24,4,1632,0,0.2487438,6.582416,2.091625,-1
3,1,25,F,6,1,1,11,1,22,2,2421,0,0.3128744,6.466087,2.649002,-1
3,1,25,F,6,1,1,12,6,24,4,3576,0,0.1170863,12.59027,0.5233933,-1
3,1,25,F,6,1,1,13,6,22,2,1232,0,2.407486e-7,12.49674,0,-1
3,1,25,F,6,1,1,14,2,24,4,2776,0,0.5542605,12.59134,2.486167,-1
3,1,25,F,6,1,1,15,6,23,3,1799,0,3.494333e-8,12.45832,0,-1
3,1,25,F,6,1,1,16,2,21,1,3621,0,0.9427617,12.57508,4.281988,-1
3,1,25,F,7,1,1,1,6,27,3,2854,0,0.3804805,12.46544,1.723401,-1
3,1,25,F,7,1,1,2,6,28,4,2754,0,0.3943624,12.60165,1.750666,-1
3,1,25,F,7,1,1,3,2,25,1,4554,1,0.7142662,12.56468,3.237368,-1
3,1,25,F,7,1,1,4,1,28,4,4676,1,0.2165588,6.568207,1.785202,-1
3,1,25,F,7,1,1,5,5,27,3,5120,0,0.2223045,6.546651,1.883775,-1
3,1,25,F,7,1,1,6,6,26,2,6898,0,0.6364852,12.47041,2.847989,-1
3,1,25,F,7,1,1,7,6,25,1,1610,0,0.3329336,12.57817,1.488326,-1
3,1,25,F,7,1,1,8,5,28,4,3398,0,0.4738991,6.586594,3.925955,-1
3,1,25,F,7,1,1,9,1,25,1,1621,0,0.1506158,6.465519,1.275335,-1
3,1,25,F,7,1,1,10,2,27,3,9999,0,-1,-1,-1,-1
3,1,25,F,7,1,1,11,1,26,2,1310,0,0.187876,6.464184,1.588562,-1
3,1,25,F,7,1,1,12,1,27,3,3199,0,0.2635701,6.542114,2.236509,-1
3,1,25,F,7,1,1,13,2,26,2,1832,0,0.5977945,12.46058,2.688025,-1
3,1,25,F,7,1,1,14,5,25,1,1943,0,0.2154544,6.435656,1.819084,-1
3,1,25,F,7,1,1,15,5,26,2,2732,1,0.08520111,6.447468,0.7179157,-1
3,1,25,F,7,1,1,16,2,28,4,4676,0,0.541845,12.59025,2.430675,-1
3,1,25,F,8,1,1,1,2,31,3,9999,0,-1,-1,-1,-1
3,1,25,F,8,1,1,2,5,30,2,1243,0,0.2248236,6.445547,1.905981,-1
3,1,25,F,8,1,1,3,1,32,4,3676,0,0.4863666,6.563695,3.993608,-1
3,1,25,F,8,1,1,4,1,31,3,2476,0,0.2358148,6.541398,1.964434,-1
3,1,25,F,8,1,1,5,1,29,1,1177,0,0.0466062,6.456475,0.3966355,-1
3,1,25,F,8,1,1,6,6,31,3,3310,0,0.7196127,12.45176,3.282768,-1
3,1,25,F,8,1,1,7,5,32,4,5109,1,0.320768,6.582864,2.634554,-1
3,1,25,F,8,1,1,8,2,29,1,2732,0,0.07734852,12.56705,0.3471792,-1
3,1,25,F,8,1,1,9,5,31,3,3199,0,0.070948,6.548358,0.5924829,-1
3,1,25,F,8,1,1,10,1,30,2,3265,1,0.07866845,6.443168,0.6691033,-1
3,1,25,F,8,1,1,11,2,32,4,4654,0,0.9500376,12.58169,4.260897,-1
3,1,25,F,8,1,1,12,5,29,1,3743,0,0.07850683,6.456858,0.6667597,-1
3,1,25,F,8,1,1,13,6,30,2,1565,0,1.870335e-7,12.44223,0,-1
3,1,25,F,8,1,1,14,6,29,1,2298,0,0.1656439,12.58308,0.7420408,-1
3,1,25,F,8,1,1,15,2,30,2,1010,0,1.57834e-7,12.47275,0,-1
3,1,25,F,8,1,1,16,6,32,4,2743,0,0.72148350000000006,12.58871,3.238033,-1
3,1,25,F,9,1,1,1,1,34,2,1721,0,0.2592857,6.447493,2.204336,-1
3,1,25,F,9,1,1,2,2,33,1,2209,0,0.4763432,12.57387,2.135242,-1
3,1,25,F,9,1,1,3,2,35,3,9999,0,-1,-1,-1,-1
3,1,25,F,9,1,1,4,2,34,2,1354,0,0.08641329,12.46513,0.3896677,-1
3,1,25,F,9,1,1,5,1,36,4,3076,0,0.2981701,6.561476,2.453277,-1
3,1,25,F,9,1,1,6,5,34,2,5565,0,0.3784619,6.450989,3.189544,-1
3,1,25,F,9,1,1,7,1,33,1,1276,0,0.3526074,6.478406,2.979336,-1
3,1,25,F,9,1,1,8,2,36,4,2132,0,0.6160756,12.57911,2.741883,-1
3,1,25,F,9,1,1,9,6,35,3,7531,1,0.5369415,12.46507,2.446887,-1
3,1,25,F,9,1,1,10,5,33,1,2010,0,3.550614e-8,6.433785,0,-1
3,1,25,F,9,1,1,11,1,35,3,3732,1,0.2605224,6.531939,2.213993,-1
3,1,25,F,9,1,1,12,6,34,2,2721,0,0.2835382,12.46876,1.275796,-1
3,1,25,F,9,1,1,13,6,33,1,4454,0,0.7732387,12.59567,3.496816,-1
3,1,25,F,9,1,1,14,5,36,4,3465,0,0.09364355,6.558175,0.7763211,-1
3,1,25,F,9,1,1,15,5,35,3,3243,0,0.3157354,6.529622,2.646488,-1
3,1,25,F,9,1,1,16,6,36,4,4998,1,0.1941422,12.58305,0.8702065,-1
3,1,25,F,10,1,1,1,1,37,1,1076,0,0.4545754,6.463735,3.847714,-1
3,1,25,F,10,1,1,2,2,40,4,2799,0,0.5034263,12.57103,2.236684,-1
3,1,25,F,10,1,1,3,6,37,1,1954,0,0.2175014,12.59774,0.972772,-1
3,1,25,F,10,1,1,4,6,38,2,921,0,0.2357384,12.47443,1.060356,-1
3,1,25,F,10,1,1,5,5,40,4,3209,0,0.2693167,6.570579,2.219379,-1
3,1,25,F,10,1,1,6,1,39,3,2709,0,4.065014e-8,6.529628,0,-1
3,1,25,F,10,1,1,7,2,38,2,1388,0,0.138464,12.4588,0.6246366,-1
3,1,25,F,10,1,1,8,1,40,4,1310,0,0.1584903,6.564283,1.308956,-1
3,1,25,F,10,1,1,9,5,37,1,2121,0,3.401302e-8,6.431615,0,-1
3,1,25,F,10,1,1,10,6,39,3,2965,0,0.07366382,12.44443,0.3322025,-1
3,1,25,F,10,1,1,11,6,40,4,2010,0,0.2797358,12.56798,1.260364,-1
3,1,25,F,10,1,1,12,2,39,3,9999,0,-1,-1,-1,-1
3,1,25,F,10,1,1,13,5,38,2,1833,1,0.05366152,6.473464,0.454995,-1
3,1,25,F,10,1,1,14,5,39,3,2254,0,0.4180585,6.534739,3.525312,-1
3,1,25,F,10,1,1,15,2,37,1,4321,0,0.9786647,12.56856,4.447745,-1
3,1,25,F,10,1,1,16,1,38,2,2832,0,7.35447e-8,6.443227,0.01978234,-1
3,1,25,F,11,1,1,1,6,44,4,2365,0,0.7527139,12.58859,3.351469,-1
3,1,25,F,11,1,1,2,3,43,3,2621,0,0.03669862,6.541572,0.3090104,-1
3,1,25,F,11,1,1,3,3,44,4,3387,0,0.3704956,6.562542,3.041888,-1
3,1,25,F,11,1,1,4,5,43,3,2788,0,0.147629,6.52024,1.253358,-1
3,1,25,F,11,1,1,5,4,41,1,2510,0,0.2076843,12.56531,0.9341894,-1
3,1,25,F,11,1,1,6,6,43,3,2643,0,1.198336e-7,12.49591,0,-1
3,1,25,F,11,1,1,7,4,42,2,1854,0,0.1993759,12.4592,0.8972207,-1
3,1,25,F,11,1,1,8,4,44,4,2465,0,0.3072929,12.57772,1.364297,-1
3,1,25,F,11,1,1,9,5,42,2,1865,0,0.3438787,6.466722,2.933849,-1
3,1,25,F,11,1,1,10,5,44,4,2987,0,0.01682622,6.561679,0.1398823,-1
3,1,25,F,11,1,1,11,6,41,1,4232,0,0.4067383,12.56323,1.838453,-1
3,1,25,F,11,1,1,12,6,42,2,1310,0,0.4102775,12.49194,1.856883,-1
3,1,25,F,11,1,1,13,5,41,1,1465,0,0.04632007,6.457188,0.3946573,-1
3,1,25,F,11,1,1,14,4,43,3,9999,0,-1,-1,-1,-1
3,1,25,F,11,1,1,15,3,42,2,1587,0,0.4996068,6.448975,4.217376,-1
3,1,25,F,11,1,1,16,3,41,1,2243,0,0.271901,6.444041,2.320097,-1
3,1,25,F,12,1,1,1,4,46,2,1488,0,0.2698564,12.46378,1.2091750000000001,-1
3,1,25,F,12,1,1,2,6,48,4,3365,0,0.8501253,12.60034,3.785945,-1
3,1,25,F,12,1,1,3,5,47,3,1676,0,0.04798196,6.5331,0.4020255,-1
3,1,25,F,12,1,1,4,5,45,1,1299,0,0.2123721,6.442429,1.793842,-1
3,1,25,F,12,1,1,5,6,47,3,2609,0,0.5007292,12.49152,2.254291,-1
3,1,25,F,12,1,1,6,3,45,1,1488,0,8.886289e-8,6.458066,0,-1
3,1,25,F,12,1,1,7,4,48,4,3665,0,0.1719043,12.58549,0.7654059,-1
3,1,25,F,12,1,1,8,6,45,1,2965,0,0.5523564,12.56388,2.478835,-1
3,1,25,F,12,1,1,9,5,46,2,3309,0,0.1785724,6.444322,1.50818,-1
3,1,25,F,12,1,1,10,3,47,3,2732,0,0.1148366,6.531618,0.9657058,-1
3,1,25,F,12,1,1,11,4,45,1,2065,0,0.8493901,12.56083,3.820749,-1
3,1,25,F,12,1,1,12,3,48,4,1654,0,0.2993432,6.565866,2.465533,-1
3,1,25,F,12,1,1,13,3,46,2,1799,0,0.2336997,6.437921,1.979717,-1
3,1,25,F,12,1,1,14,4,47,3,9999,0,-1,-1,-1,-1
3,1,25,F,12,1,1,15,6,46,2,2943,1,0.7519661,12.45171,3.399667,-1
3,1,25,F,12,1,1,16,5,48,4,3332,0,0.2788344,6.603454,2.31046,-1
3,1,25,F,13,1,1,1,3,49,1,1421,0,0.15966640000000001,6.464023,1.357971,-1
3,1,25,F,13,1,1,2,3,50,2,4932,1,0.01752311,6.508793,0.1480375,-1
3,1,25,F,13,1,1,3,6,52,4,2443,0,0.6080087,12.58031,2.730508,-1
3,1,25,F,13,1,1,4,3,51,3,2799,0,6.480904e-8,6.543346,0,-1
3,1,25,F,13,1,1,5,3,52,4,3165,0,0.3158408,6.566452,2.595481,-1
3,1,25,F,13,1,1,6,4,49,1,2387,0,0.4029831,12.55592,1.820804,-1
3,1,25,F,13,1,1,7,4,50,2,3798,0,0.1099612,12.46952,0.4941643,-1
3,1,25,F,13,1,1,8,5,49,1,3465,0,1.480592e-7,6.425518,0,-1
3,1,25,F,13,1,1,9,4,51,3,9999,0,-1,-1,-1,-1
3,1,25,F,13,1,1,10,4,52,4,2754,0,0.9101056,12.58559,4.052266,-1
3,1,25,F,13,1,1,11,6,49,1,2221,0,0.2149529,12.56535,0.9618481,-1
3,1,25,F,13,1,1,12,6,51,3,2154,0,0.7502461,12.51884,3.401279,-1
3,1,25,F,13,1,1,13,6,50,2,1932,0,0.6278125,12.48442,2.823414,-1
3,1,25,F,13,1,1,14,5,52,4,5010,0,0.2629234,6.577854,2.191335,-1
3,1,25,F,13,1,1,15,5,50,2,4176,0,0.3058144,6.426267,2.574126,-1
3,1,25,F,13,1,1,16,5,51,3,3609,0,0.1290832,6.533652,1.087505,-1
3,1,25,F,14,1,1,1,6,53,1,1665,0,0.2251263,12.51028,1.012398,-1
3,1,25,F,14,1,1,2,4,54,2,3854,0,0.3090602,12.45935,1.391001,-1
3,1,25,F,14,1,1,3,4,56,4,2787,0,0.5011411,12.58961,2.247857,-1
3,1,25,F,14,1,1,4,4,53,1,1799,0,0.05742916,12.55269,0.2571706,-1
3,1,25,F,14,1,1,5,6,55,3,1709,0,0.1822266,12.45062,0.8192443,-1
3,1,25,F,14,1,1,6,3,54,2,2032,0,0.314097,6.43316,2.669685,-1
3,1,25,F,14,1,1,7,3,53,1,2666,1,0.3850988,6.430614,3.364936,-1
3,1,25,F,14,1,1,8,3,55,3,2521,0,1.455128e-8,6.54039,0,-1
3,1,25,F,14,1,1,9,6,56,4,2987,0,0.2863296,12.61493,1.274875,-1
3,1,25,F,14,1,1,10,5,55,3,2521,0,0.09052015,6.522991,0.7564052,-1
3,1,25,F,14,1,1,11,5,53,1,1276,0,9.088848e-8,6.425715,0,-1
3,1,25,F,14,1,1,12,4,55,3,9999,0,-1,-1,-1,-1
3,1,25,F,14,1,1,13,6,54,2,1976,0,0.2003121,12.48946,0.9054703,-1
3,1,25,F,14,1,1,14,3,56,4,2566,0,0.4282768,6.569467,3.511344,-1
3,1,25,F,14,1,1,15,5,54,2,2243,0,0.49814,6.454738,4.242886,-1
3,1,25,F,14,1,1,16,5,56,4,9476,0,0.2755921,6.585361,2.323469,-1
3,1,25,F,15,1,1,1,4,59,3,9999,0,-1,-1,-1,-1
3,1,25,F,15,1,1,2,4,58,2,1565,0,0.6188461,12.51214,2.772129,-1
3,1,25,F,15,1,1,3,3,60,4,1987,0,8.12464e-8,6.570809,0,-1
3,1,25,F,15,1,1,4,6,59,3,9999,0,-1,-1,-1,-1
3,1,25,F,15,1,1,5,6,58,2,3043,1,0.8176391,12.38139,3.695281,-1
3,1,25,F,15,1,1,6,5,60,4,2343,0,0.227881,6.554869,1.928844,-1
3,1,25,F,15,1,1,7,5,57,1,1688,0,0.02238392,6.470653,0.1887116,-1
3,1,25,F,15,1,1,8,5,59,3,1776,0,0.2351772,6.549931,1.966027,-1
3,1,25,F,15,1,1,9,6,57,1,5098,0,0.641136,12.52986,2.895161,-1
3,1,25,F,15,1,1,10,3,59,3,2876,0,7.344208e-8,6.53789,0,-1
3,1,25,F,15,1,1,11,3,57,1,1187,0,0.04918908,6.462461,0.4196478,-1
3,1,25,F,15,1,1,12,4,60,4,2377,1,0.815105,12.57821,3.623312,-1
3,1,25,F,15,1,1,13,3,58,2,3476,0,0.1914859,6.45512,1.625942,-1
3,1,25,F,15,1,1,14,4,57,1,4765,0,0.3142132,12.58032,1.406948,-1
3,1,25,F,15,1,1,15,6,60,4,2387,0,0.5752779,12.58449,2.581947,-1
3,1,25,F,15,1,1,16,5,58,2,1465,0,0.3787099,6.456109,3.216377,-1
3,1,25,F,16,1,1,1,5,64,4,1888,0,0.5191727,6.59492,4.293225,-1
3,1,25,F,16,1,1,2,4,62,2,1743,0,0.4482613,12.47501,2.004669,-1
3,1,25,F,16,1,1,3,6,63,3,1421,0,0.9535529,12.50005,4.328888,-1
3,1,25,F,16,1,1,4,5,62,2,1476,0,0.1962655,6.461421,1.652801,-1
3,1,25,F,16,1,1,5,4,61,1,1832,0,0.5262794,12.57267,2.381048,-1
3,1,25,F,16,1,1,6,6,64,4,4521,0,0.8166586,12.59369,3.664312,-1
3,1,25,F,16,1,1,7,3,61,1,2098,0,0.2569713,6.45428,2.212401,-1
3,1,25,F,16,1,1,8,4,63,3,9999,0,-1,-1,-1,-1
3,1,25,F,16,1,1,9,5,61,1,1165,0,0.07690857,6.459834,0.6578966,-1
3,1,25,F,16,1,1,10,3,63,3,2187,0,5.92292e-8,6.541909,0,-1
3,1,25,F,16,1,1,11,3,62,2,5598,1,0.157679,6.473323,1.335302,-1
3,1,25,F,16,1,1,12,3,64,4,3810,0,0.3893892,6.569845,3.192059,-1
3,1,25,F,16,1,1,13,5,63,3,3665,0,4.273491e-8,6.562206,0,-1
3,1,25,F,16,1,1,14,6,61,1,4921,0,0.8903383,12.58469,4.038761,-1
3,1,25,F,16,1,1,15,6,62,2,5176,0,0.4687966,12.47548,2.105614,-1
3,1,25,F,16,1,1,16,4,64,4,3676,0,0.4730562,12.59772,2.097325,-1
3,1,25,F,17,1,1,1,5,67,3,2154,0,0.507917,6.613785,4.236789,-1
3,1,25,F,17,1,1,2,5,66,2,2010,0,0.3314627,6.50109,2.765766,-1
3,1,25,F,17,1,1,3,4,67,3,9999,0,-1,-1,-1,-1
3,1,25,F,17,1,1,4,5,65,1,1588,0,1.086091e-7,6.501678,0,-1
3,1,25,F,17,1,1,5,6,66,2,932,0,0.1971156,12.49711,0.8827091,-1
3,1,25,F,17,1,1,6,4,68,4,2254,1,0.7485087,12.62985,3.31942,-1
3,1,25,F,17,1,1,7,6,65,1,3899,2,0.2404032,12.62471,1.072284,-1
3,1,25,F,17,1,1,8,3,68,4,2177,0,0.1439732,6.594919,1.185642,-1
3,1,25,F,17,1,1,9,3,65,1,1210,0,0.2103391,6.500759,1.768682,-1
3,1,25,F,17,1,1,10,5,68,4,5521,0,0.4635892,6.649353,3.781754,-1
3,1,25,F,17,1,1,11,4,66,2,1366,0,3.224042e-7,12.49798,0,-1
3,1,25,F,17,1,1,12,6,68,4,2743,0,0.4603649,12.64345,2.042294,-1
3,1,25,F,17,1,1,13,3,67,3,2587,0,0.01132758,6.582495,0.09487279,-1
3,1,25,F,17,1,1,14,4,65,1,1565,0,1.392098e-7,12.61823,0,-1
3,1,25,F,17,1,1,15,3,66,2,3065,0,0.1391339,6.488558,1.175198,-1
3,1,25,F,17,1,1,16,6,67,3,3721,0,0.6415641,12.53611,2.903736,-1
3,1,25,F,18,1,1,1,3,69,1,1787,0,0.1175232,6.499239,0.993669,-1
3,1,25,F,18,1,1,2,3,70,2,5576,1,0.06834743,6.489129,0.5747126,-1
3,1,25,F,18,1,1,3,3,72,4,2898,0,0.5042766,6.56969,4.163724,-1
3,1,25,F,18,1,1,4,3,71,3,3543,0,1.991163e-7,6.55054,0,-1
3,1,25,F,18,1,1,5,5,70,2,1599,0,0.3636313,6.485713,3.072433,-1
3,1,25,F,18,1,1,6,6,69,1,2132,0,0.1226817,12.59782,0.5496522,-1
3,1,25,F,18,1,1,7,5,72,4,3010,1,0.3013326,6.578113,2.474567,-1
3,1,25,F,18,1,1,8,4,71,3,9999,1,-1,-1,-1,-1
3,1,25,F,18,1,1,9,4,69,1,5143,0,0.5159316,12.58407,2.331542,-1
3,1,25,F,18,1,1,10,4,72,4,3798,0,0.5678567,12.59891,2.523054,-1
3,1,25,F,18,1,1,11,6,71,3,1999,0,1.417852e-7,12.52695,0,-1
3,1,25,F,18,1,1,12,6,70,2,1799,0,0.9967204,12.5028,4.468746,-1
3,1,25,F,18,1,1,13,6,72,4,3743,0,0.5919036,12.59653,2.648263,-1
3,1,25,F,18,1,1,14,5,71,3,5320,0,0.1742024,6.549348,1.449964,-1
3,1,25,F,18,1,1,15,5,69,1,3299,0,0.01858877,6.425947,0.1570175,-1
3,1,25,F,18,1,1,16,4,70,2,2276,0,0.2552513,12.47291,1.147054,-1
3,1,25,F,1,1,1,1,10,2,2,19153,0,-1,-1,-1,1
3,1,25,F,1,1,1,2,9,4,4,5054,0,-1,-1,-1,1
3,1,25,F,1,1,1,3,7,1,1,1587,0,-1,-1,-1,1
3,1,25,F,1,1,1,4,8,4,4,4676,0,-1,-1,-1,0
3,1,25,F,1,1,1,5,8,1,1,2732,0,-1,-1,-1,0
3,1,25,F,1,1,1,6,10,3,3,7520,0,-1,-1,-1,0
3,1,25,F,1,1,1,7,10,4,4,3376,0,-1,-1,-1,1
3,1,25,F,1,1,1,8,8,2,2,3199,0,-1,-1,-1,1
3,1,25,F,1,1,1,9,8,3,3,6209,0,-1,-1,-1,0
3,1,25,F,1,1,1,10,9,2,2,3443,0,-1,-1,-1,0
3,1,25,F,1,1,1,11,7,4,4,3598,0,-1,-1,-1,1
3,1,25,F,1,1,1,12,7,2,2,3543,0,-1,-1,-1,0
3,1,25,F,1,1,1,13,9,3,3,3032,0,-1,-1,-1,0
3,1,25,F,1,1,1,14,9,1,1,4843,0,-1,-1,-1,1
3,1,25,F,1,1,1,15,7,3,3,4098,0,-1,-1,-1,0
3,1,25,F,1,1,1,16,10,1,1,7265,0,-1,-1,-1,1
3,1,25,F,2,1,1,1,9,2,2,3365,0,-1,-1,-1,0
3,1,25,F,2,1,1,2,8,1,1,7242,0,-1,-1,-1,0
3,1,25,F,2,1,1,3,10,3,3,4920,0,-1,-1,-1,1
3,1,25,F,2,1,1,4,10,2,2,3443,0,-1,-1,-1,1
3,1,25,F,2,1,1,5,8,4,4,3987,0,-1,-1,-1,1
3,1,25,F,2,1,1,6,9,3,3,2032,0,-1,-1,-1,1
3,1,25,F,2,1,1,7,9,1,1,2732,0,-1,-1,-1,1
3,1,25,F,2,1,1,8,7,2,2,4387,0,-1,-1,-1,0
3,1,25,F,2,1,1,9,7,4,4,1754,0,-1,-1,-1,0
3,1,25,F,2,1,1,10,8,3,3,1043,0,-1,-1,-1,0
3,1,25,F,2,1,1,11,7,1,1,2443,0,-1,-1,-1,1
3,1,25,F,2,1,1,12,9,4,4,7120,0,-1,-1,-1,1
3,1,25,F,2,1,1,13,8,2,2,6231,0,-1,-1,-1,0
3,1,25,F,2,1,1,14,7,3,3,5454,0,-1,-1,-1,1
3,1,25,F,2,1,1,15,10,1,1,2010,0,-1,-1,-1,0
3,1,25,F,2,1,1,16,10,4,4,1154,0,-1,-1,-1,0
3,10,21,F,1,1,1,1,6,3,3,9999,3,-1,-1,-1,-1
3,10,21,F,1,1,1,2,5,1,1,3009,1,1.39904e-7,6.366198,0,-1
3,10,21,F,1,1,1,3,1,3,3,3087,0,0.2675571,6.411869,2.315452,-1
3,10,21,F,1,1,1,4,2,4,4,2865,1,0.3735967,12.44881,1.67888,-1
3,10,21,F,1,1,1,5,5,2,2,1854,1,0.4128132,6.429848,3.458759,-1
3,10,21,F,1,1,1,6,6,4,4,3510,1,0.4670832,12.45421,2.087692,-1
3,10,21,F,1,1,1,7,2,3,3,3221,0,0.2434092,12.38267,1.103049,-1
3,10,21,F,1,1,1,8,6,1,1,1566,0,0.4749309,12.4292,2.162475,-1
3,10,21,F,1,1,1,9,1,4,4,3054,1,0.5468222,6.428672,4.575173,-1
3,10,21,F,1,1,1,10,2,2,2,5754,0,0.9453602,12.35455,4.275764,-1
3,10,21,F,1,1,1,11,1,1,1,1666,0,1.730299e-7,6.349481,0,-1
3,10,21,F,1,1,1,12,1,2,2,1799,1,0.3451469,6.422065,2.939715,-1
3,10,21,F,1,1,1,13,5,3,3,2487,0,0.3400387,6.415445,2.891034,-1
3,10,21,F,1,1,1,14,5,4,4,2798,1,0.3103427,6.423036,2.611345,-1
3,10,21,F,1,1,1,15,6,2,2,1543,0,0.8081982,12.34998,3.682754,-1
3,10,21,F,1,1,1,16,2,1,1,2155,2,0.8689295,12.42104,3.978575,-1
3,10,21,F,2,1,1,1,5,6,2,2632,0,0.3600353,6.415903,3.047675,-1
3,10,21,F,2,1,1,2,1,8,4,7309,6,1.727699e-7,6.439005,0,-1
3,10,21,F,2,1,1,3,5,5,1,2165,0,0.1019467,6.34606,0.8782644,-1
3,10,21,F,2,1,1,4,6,6,2,1810,1,1.005199,12.34512,4.534362,-1
3,10,21,F,2,1,1,5,1,7,3,1354,0,0.385314,6.406831,3.25209,-1
3,10,21,F,2,1,1,6,1,6,2,4887,3,0.1790689,6.424217,1.548766,-1
3,10,21,F,2,1,1,7,6,7,3,3732,1,0.8470209,12.35957,3.874442,-1
3,10,21,F,2,1,1,8,1,5,1,3976,0,0.4263452,6.357753,3.639487,-1
3,10,21,F,2,1,1,9,6,8,4,4098,3,0.8669789,12.45628,3.860467,-1
3,10,21,F,2,1,1,10,2,7,3,3554,0,0.5902281,12.38426,2.649445,-1
3,10,21,F,2,1,1,11,6,5,1,3220,1,0.4015034,12.4158,1.825313,-1
3,10,21,F,2,1,1,12,2,8,4,2632,1,0.3574693,12.44463,1.591761,-1
3,10,21,F,2,1,1,13,2,5,1,1621,0,0.2984262,12.42805,1.351326,-1
3,10,21,F,2,1,1,14,5,8,4,2587,1,0.1295785,6.444411,1.094858,-1
3,10,21,F,2,1,1,15,2,6,2,1443,0,0.5874,12.37436,2.690791,-1
3,10,21,F,2,1,1,16,5,7,3,2799,0,0.1757862,6.413992,1.481737,-1
3,10,21,F,3,1,1,1,2,12,4,1788,0,0.7838818,12.44468,3.487565,-1
3,10,21,F,3,1,1,2,2,10,2,1199,0,0.7611523,12.35831,3.46515,-1
3,10,21,F,3,1,1,3,6,12,4,5876,2,0.4281467,12.45972,1.911005,-1
3,10,21,F,3,1,1,4,5,10,2,2676,0,1.884643e-7,6.423219,0,-1
3,10,21,F,3,1,1,5,1,9,1,3398,1,0.1460033,6.34601,1.245527,-1
3,10,21,F,3,1,1,6,5,11,3,4065,0,0.2151378,6.413096,1.817254,-1
3,10,21,F,3,1,1,7,2,9,1,1521,0,0.4466999,12.43029,2.032881,-1
3,10,21,F,3,1,1,8,1,11,3,1510,0,0.4025118,6.410127,3.41627,-1
3,10,21,F,3,1,1,9,6,9,1,3510,0,0.114715,12.42846,0.518133,-1
3,10,21,F,3,1,1,10,5,12,4,2899,1,0.3090082,6.438923,2.649002,-1
3,10,21,F,3,1,1,11,1,10,2,2455,0,0.3250836,6.411807,2.744452,-1
3,10,21,F,3,1,1,12,6,11,3,4021,2,7.606974e-8,12.3764,0,-1
3,10,21,F,3,1,1,13,5,9,1,1632,0,0.3209761,6.350919,2.764775,-1
3,10,21,F,3,1,1,14,2,11,3,3410,0,0.8073328,12.38656,3.634912,-1
3,10,21,F,3,1,1,15,6,10,2,2743,0,0.4333969,12.34289,1.985541,-1
3,10,21,F,3,1,1,16,1,12,4,1688,0,0.2448968,6.433211,2.053761,-1
3,10,21,F,4,1,1,1,2,15,3,4221,1,0.4942809,12.38454,2.221318,-1
3,10,21,F,4,1,1,2,6,14,2,1721,0,0.8781354,12.34983,4.051879,-1
3,10,21,F,4,1,1,3,6,16,4,4332,2,0.9314689,12.44287,4.154778,-1
3,10,21,F,4,1,1,4,1,15,3,2254,1,0.1476624,6.404486,1.26872,-1
3,10,21,F,4,1,1,5,1,16,4,2444,0,0.2152691,6.439609,1.804827,-1
3,10,21,F,4,1,1,6,6,13,1,1832,0,0.413301,12.43077,1.866135,-1
3,10,21,F,4,1,1,7,5,14,2,2254,1,0.3162227,6.437237,2.72182,-1
3,10,21,F,4,1,1,8,2,13,1,3165,0,0.8833721,12.43354,4.041765,-1
3,10,21,F,4,1,1,9,1,14,2,3710,0,0.128196,6.42602,1.08354,-1
3,10,21,F,4,1,1,10,5,15,3,4543,2,0.2539999,6.398617,2.20176,-1
3,10,21,F,4,1,1,11,5,16,4,2676,0,0.02403674,6.455237,0.2027088,-1
3,10,21,F,4,1,1,12,1,13,1,4154,0,0.1454526,6.348688,1.246783,-1
3,10,21,F,4,1,1,13,2,14,2,2721,2,0.9199007,12.35664,4.183246,-1
3,10,21,F,4,1,1,14,5,13,1,3732,0,7.159495e-8,6.346996,0,-1
3,10,21,F,4,1,1,15,2,16,4,1732,0,0.3687644,12.44275,1.641752,-1
3,10,21,F,4,1,1,16,6,15,3,3098,2,1.053784,12.35093,4.82978,-1
3,10,21,F,5,1,1,1,5,17,1,3010,1,0.1292521,6.348537,1.108358,-1
3,10,21,F,5,1,1,2,5,18,2,1543,0,0.2028601,6.417332,1.707544,-1
3,10,21,F,5,1,1,3,1,19,3,1643,0,0.2567253,6.409606,2.167808,-1
3,10,21,F,5,1,1,4,6,20,4,2043,1,0.16857,12.45055,0.7538139,-1
3,10,21,F,5,1,1,5,6,18,2,1298,0,0.6553926,12.35041,2.997416,-1
3,10,21,F,5,1,1,6,5,20,4,3199,0,0.3941995,6.435939,3.322839,-1
3,10,21,F,5,1,1,7,1,17,1,3588,1,0.005258983,6.3365,0.04845664,-1
3,10,21,F,5,1,1,8,2,20,4,1632,0,0.809536,12.44669,3.602229,-1
3,10,21,F,5,1,1,9,6,19,3,2599,1,0.4363141,12.36246,1.977937,-1
3,10,21,F,5,1,1,10,6,17,1,2632,0,0.5257916,12.45242,2.369264,-1
3,10,21,F,5,1,1,11,2,19,3,1321,0,0.1605531,12.37889,0.7241574,-1
3,10,21,F,5,1,1,12,2,18,2,1599,0,0.590531,12.36123,2.676422,-1
3,10,21,F,5,1,1,13,5,19,3,2776,0,0.07232462,6.414538,0.6129363,-1
3,10,21,F,5,1,1,14,2,17,1,1476,0,0.5369676,12.43079,2.430111,-1
3,10,21,F,5,1,1,15,1,18,2,2987,1,0.0447185,6.424809,0.3810355,-1
3,10,21,F,5,1,1,16,1,20,4,2899,0,0.1058738,6.451425,0.9063343,-1
3,10,21,F,6,1,1,1,1,21,1,3388,0,0.2349182,6.345603,1.998412,-1
3,10,21,F,6,1,1,2,6,23,3,2232,0,0.2842983,12.37962,1.290437,-1
3,10,21,F,6,1,1,3,5,22,2,1766,0,0.2323596,6.424102,1.947725,-1
3,10,21,F,6,1,1,4,2,24,4,1488,0,1.999792e-7,12.44201,0,-1
3,10,21,F,6,1,1,5,1,22,2,1488,0,0.3578652,6.421093,3.025821,-1
3,10,21,F,6,1,1,6,5,23,3,1687,0,0.5365314,6.421859,4.509715,-1
3,10,21,F,6,1,1,7,2,21,1,4487,1,0.5635839,12.42808,2.572529,-1
3,10,21,F,6,1,1,8,2,23,3,7975,0,7.763662e-4,12.38514,0,-1
3,10,21,F,6,1,1,9,5,24,4,3277,1,0.2019051,6.440399,1.700078,-1
3,10,21,F,6,1,1,10,1,23,3,2754,1,0.1497801,6.410328,1.271955,-1
3,10,21,F,6,1,1,11,6,22,2,1699,0,0.8040337,12.36531,3.662815,-1
3,10,21,F,6,1,1,12,5,21,1,2332,1,0.08640708,6.334422,0.7480813,-1
3,10,21,F,6,1,1,13,6,24,4,1509,0,0.04371784,12.4587,0.1968319,-1
3,10,21,F,6,1,1,14,2,22,2,2132,0,0.4501345,12.36671,2.054333,-1
3,10,21,F,6,1,1,15,6,21,1,3554,1,0.3605529,12.44327,1.627866,-1
3,10,21,F,6,1,1,16,1,24,4,1754,0,0.2039589,6.436284,1.711665,-1
3,10,21,F,7,1,1,1,1,25,1,2742,1,0.5385862,6.355719,4.563857,-1
3,10,21,F,7,1,1,2,2,27,3,1799,0,0.1227208,12.38398,0.5560232,-1
3,10,21,F,7,1,1,3,6,25,1,1965,0,0.8273069,12.42921,3.723259,-1
3,10,21,F,7,1,1,4,2,26,2,2699,2,1.056237,12.36736,4.781023,-1
3,10,21,F,7,1,1,5,5,28,4,2821,1,0.09286761,6.440301,0.7890712,-1
3,10,21,F,7,1,1,6,1,26,2,1910,0,0.3563344,6.431224,3.008042,-1
3,10,21,F,7,1,1,7,6,27,3,2354,0,1.867862e-8,12.36683,0,-1
3,10,21,F,7,1,1,8,2,28,4,1543,0,0.3018535,12.43949,1.346539,-1
3,10,21,F,7,1,1,9,1,27,3,2221,1,0.2879457,6.399322,2.496067,-1
3,10,21,F,7,1,1,10,5,25,1,2543,0,0.1625123,6.3422789999999996,1.421202,-1
3,10,21,F,7,1,1,11,5,26,2,2032,0,0.1805324,6.429882,1.543576,-1
3,10,21,F,7,1,1,12,5,27,3,3654,0,0.1188925,6.411545,1.01375,-1
3,10,21,F,7,1,1,13,6,26,2,2454,1,0.009482778,12.34776,0.04423466,-1
3,10,21,F,7,1,1,14,6,28,4,2221,0,0.6993742,12.45278,3.125434,-1
3,10,21,F,7,1,1,15,2,25,1,2099,0,0.1672338,12.42618,0.7574393,-1
3,10,21,F,7,1,1,16,1,28,4,2021,0,0.4319829,6.434839,3.609776,-1
3,10,21,F,8,1,1,1,2,30,2,1232,0,0.02464771,12.36002,0.1119058,-1
3,10,21,F,8,1,1,2,5,32,4,3487,0,0.2119924,6.430667,1.780262,-1
3,10,21,F,8,1,1,3,5,29,1,2887,1,0.3553901,6.342925,3.119729,-1
3,10,21,F,8,1,1,4,1,32,4,1576,0,0.2131659,6.437872,1.787503,-1
3,10,21,F,8,1,1,5,5,30,2,2699,0,0.2504172,6.426675,2.116554,-1
3,10,21,F,8,1,1,6,2,32,4,2054,0,1.046625,12.44592,4.659636,-1
3,10,21,F,8,1,1,7,6,31,3,9465,6,0.4997672,12.36763,2.237996,-1
3,10,21,F,8,1,1,8,2,29,1,1821,0,0.7443371,12.42052,3.413001,-1
3,10,21,F,8,1,1,9,6,30,2,1332,0,0.0755023,12.34014,0.3426407,-1
3,10,21,F,8,1,1,10,1,29,1,2810,0,0.2174972,6.331618,1.895685,-1
3,10,21,F,8,1,1,11,1,31,3,1532,0,2.054336e-7,6.402609,0.01978234,-1
3,10,21,F,8,1,1,12,1,30,2,2765,0,0.4535394,6.421979,3.837982,-1
3,10,21,F,8,1,1,13,2,31,3,4843,1,0.3624403,12.37679,1.629188,-1
3,10,21,F,8,1,1,14,6,32,4,2043,0,0.7207282,12.4487,3.203935,-1
3,10,21,F,8,1,1,15,6,29,1,1577,0,0.4484455,12.41674,2.044879,-1
3,10,21,F,8,1,1,16,5,31,3,2599,0,0.1140643,6.41249,0.963068,-1
3,10,21,F,9,1,1,1,5,34,2,4165,2,0.2376246,6.440604,2.059376,-1
3,10,21,F,9,1,1,2,5,36,4,2465,0,0.239912,6.44452,2.007109,-1
3,10,21,F,9,1,1,3,6,35,3,7953,4,0.6408915,12.37984,2.882015,-1
3,10,21,F,9,1,1,4,6,36,4,9999,5,-1,-1,-1,-1
3,10,21,F,9,1,1,5,1,35,3,2309,0,0.107368,6.418911,0.9069818,-1
3,10,21,F,9,1,1,6,2,34,2,6643,0,0.007461709,12.38074,0.03956468,-1
3,10,21,F,9,1,1,7,2,33,1,1832,0,0.4657889,12.43999,2.106079,-1
3,10,21,F,9,1,1,8,2,35,3,4143,1,0.7238612,12.39132,3.248536,-1
3,10,21,F,9,1,1,9,1,34,2,3798,0,1.394332e-8,6.441226,0,-1
3,10,21,F,9,1,1,10,6,33,1,2520,0,0.78294299999999994,12.43979,3.529142,-1
3,10,21,F,9,1,1,11,1,36,4,4642,3,0.4279495,6.439896,3.57451,-1
3,10,21,F,9,1,1,12,6,34,2,3209,1,0.9440113,12.33957,4.285418,-1
3,10,21,F,9,1,1,13,5,35,3,3155,1,0.3130762,6.422102,2.621669,-1
3,10,21,F,9,1,1,14,1,33,1,3288,0,0.151757,6.351333,1.308806,-1
3,10,21,F,9,1,1,15,2,36,4,3610,1,0.5152368,12.44956,2.291235,-1
3,10,21,F,9,1,1,16,5,33,1,1898,0,0.3456585,6.338692,3.013764,-1
3,10,21,F,10,1,1,1,2,39,3,1820,0,0.8136993,12.38539,3.651412,-1
3,10,21,F,10,1,1,2,1,38,2,3232,0,0.3860443,6.420976,3.286642,-1
3,10,21,F,10,1,1,3,1,37,1,1943,0,0.2047814,6.351343,1.786627,-1
3,10,21,F,10,1,1,4,6,40,4,8509,5,0.6302818,12.44946,2.803305,-1
3,10,21,F,10,1,1,5,6,38,2,1410,0,0.6520179,12.35486,2.981437,-1
3,10,21,F,10,1,1,6,5,37,1,1643,0,0.133089,6.347235,1.141582,-1
3,10,21,F,10,1,1,7,1,39,3,1554,0,0.4983328,6.416507,4.199553,-1
3,10,21,F,10,1,1,8,1,40,4,4277,3,0.1756426,6.442779,1.47777,-1
3,10,21,F,10,1,1,9,6,39,3,1731,0,0.7930939,12.37012,3.55936,-1
3,10,21,F,10,1,1,10,2,38,2,1887,0,0.5977927,12.36086,2.74024,-1
3,10,21,F,10,1,1,11,2,37,1,3810,0,0.1252171,12.43039,0.5664824,-1
3,10,21,F,10,1,1,12,5,40,4,2932,1,0.3543406,6.446951,3.014348,-1
3,10,21,F,10,1,1,13,6,37,1,1188,0,0.7889007,12.41995,3.610156,-1
3,10,21,F,10,1,1,14,2,40,4,2454,1,0.8359752,12.45359,3.707712,-1
3,10,21,F,10,1,1,15,5,39,3,1810,0,0.2428502,6.417221,2.0389370000000002,-1
3,10,21,F,10,1,1,16,5,38,2,3165,0,0.3093559,6.413023,2.610146,-1
3,10,21,F,11,1,1,1,5,43,3,2121,0,0.42139,6.423868,3.539391,-1
3,10,21,F,11,1,1,2,3,41,1,1965,0,0.1602272,6.347526,1.373731,-1
3,10,21,F,11,1,1,3,5,42,2,1987,0,0.3229155,6.417693,2.720741,-1
3,10,21,F,11,1,1,4,6,44,4,4554,0,0.8818344,12.46436,3.938505,-1
3,10,21,F,11,1,1,5,6,41,1,1343,0,0.649505,12.43301,2.922283,-1
3,10,21,F,11,1,1,6,6,43,3,1276,0,0.8467399,12.3778,3.790597,-1
3,10,21,F,11,1,1,7,4,44,4,3476,3,2.9129e-7,12.4441,0,-1
3,10,21,F,11,1,1,8,4,42,2,3576,1,0.5469908,12.36685,2.506006,-1
3,10,21,F,11,1,1,9,4,41,1,1188,0,0.1007589,12.43405,0.4554249,-1
3,10,21,F,11,1,1,10,3,42,2,2087,0,0.1793265,6.417546,1.518009,-1
3,10,21,F,11,1,1,11,4,43,3,2688,1,0.5445905,12.38403,2.47148,-1
3,10,21,F,11,1,1,12,5,41,1,2099,0,9.696186e-8,6.350724,0,-1
3,10,21,F,11,1,1,13,3,44,4,3531,1,0.3286309,6.44928,2.757544,-1
3,10,21,F,11,1,1,14,3,43,3,1520,0,0.3165542,6.416788,2.66609,-1
3,10,21,F,11,1,1,15,5,44,4,2332,0,0.4332918,6.435207,3.632864,-1
3,10,21,F,11,1,1,16,6,42,2,1799,0,0.1800304,12.36217,0.8149337,-1
3,10,21,F,12,1,1,1,6,48,4,3965,2,0.2960347,12.44581,1.322194,-1
3,10,21,F,12,1,1,2,6,47,3,3031,2,0.9134246,12.36471,4.13768,-1
3,10,21,F,12,1,1,3,3,46,2,1709,0,6.661979e-8,6.428752,0,-1
3,10,21,F,12,1,1,4,3,48,4,4409,2,0.3315426,6.442277,2.766828,-1
3,10,21,F,12,1,1,5,5,46,2,3432,1,0.3553793,6.417439,2.993298,-1
3,10,21,F,12,1,1,6,3,45,1,1787,0,0.07569041,6.339563,0.6489125,-1
3,10,21,F,12,1,1,7,4,48,4,3343,1,0.2069209,12.4523,0.9272513,-1
3,10,21,F,12,1,1,8,5,45,1,2732,0,0.1987548,6.344795,1.691654,-1
3,10,21,F,12,1,1,9,4,46,2,1821,0,0.5696533,12.36351,2.57154,-1
3,10,21,F,12,1,1,10,5,48,4,2243,1,0.4635366,6.431016,3.881461,-1
3,10,21,F,12,1,1,11,6,46,2,1343,0,0.160106,12.34837,0.7246976,-1
3,10,21,F,12,1,1,12,4,47,3,1110,0,0.9317932,12.38117,4.183948,-1
3,10,21,F,12,1,1,13,6,45,1,1277,0,0.3354226,12.42499,1.525339,-1
3,10,21,F,12,1,1,14,3,47,3,1853,1,0.4513813,6.416985,3.803078,-1
3,10,21,F,12,1,1,15,4,45,1,1166,0,0.3202097,12.42931,1.453873,-1
3,10,21,F,12,1,1,16,5,47,3,1576,0,0.405208,6.41638,3.409098,-1
3,10,21,F,13,1,1,1,3,50,2,2610,1,0.5141382,6.414689,4.356355,-1
3,10,21,F,13,1,1,2,6,51,3,1821,1,0.7913818,12.38974,3.554185,-1
3,10,21,F,13,1,1,3,5,52,4,2198,1,0.2849645,6.43594,2.387533,-1
3,10,21,F,13,1,1,4,5,50,2,2466,0,0.2835649,6.424884,2.397432,-1
3,10,21,F,13,1,1,5,6,52,4,2187,0,0.9408014,12.44937,4.19428,-1
3,10,21,F,13,1,1,6,3,49,1,2709,0,0.4101179,6.34568,3.507383,-1
3,10,21,F,13,1,1,7,4,52,4,1743,0,0.3817837,12.45049,1.698696,-1
3,10,21,F,13,1,1,8,6,49,1,1210,0,0.885177,12.424,4.058785,-1
3,10,21,F,13,1,1,9,4,51,3,1432,0,0.1808601,12.38708,0.8144533,-1
3,10,21,F,13,1,1,10,6,50,2,1310,0,0.3680032,12.35248,1.672691,-1
3,10,21,F,13,1,1,11,3,52,4,3165,1,0.336631,6.458626,2.857663,-1
3,10,21,F,13,1,1,12,3,51,3,1454,0,0.008067869,6.414866,0.06852804,-1
3,10,21,F,13,1,1,13,4,49,1,1820,0,0.5666471,12.43346,2.588685,-1
3,10,21,F,13,1,1,14,4,50,2,1887,0,0.4782877,12.37112,2.164827,-1
3,10,21,F,13,1,1,15,5,51,3,1910,0,0.0077725,6.416255,0.0656106,-1
3,10,21,F,13,1,1,16,5,49,1,3376,0,0.06897005,6.344277,0.5970887,-1
3,10,21,F,14,1,1,1,4,55,3,1487,0,0.2325109,12.3925,1.051833,-1
3,10,21,F,14,1,1,2,3,56,4,2409,1,0.421647,6.441,3.530473,-1
3,10,21,F,14,1,1,3,5,54,2,2687,0,1.720431e-7,6.419415,0,-1
3,10,21,F,14,1,1,4,6,53,1,1932,0,0.844296,12.4561,3.798493,-1
3,10,21,F,14,1,1,5,3,55,3,2154,1,0.2045163,6.42198,1.720787,-1
3,10,21,F,14,1,1,6,4,53,1,1187,0,0.592483,12.43745,2.707254,-1
3,10,21,F,14,1,1,7,4,54,2,1320,0,1.053743,12.38101,4.734497,-1
3,10,21,F,14,1,1,8,4,56,4,1343,0,0.7385032,12.4544,3.274647,-1
3,10,21,F,14,1,1,9,6,54,2,1299,0,0.05949857,12.34747,0.2697954,-1
3,10,21,F,14,1,1,10,6,56,4,1388,0,0.4314761,12.45061,1.937045,-1
3,10,21,F,14,1,1,11,3,53,1,2187,0,1.092714e-7,6.344141,0,-1
3,10,21,F,14,1,1,12,3,54,2,2465,0,0.2110844,6.438524,1.815315,-1
3,10,21,F,14,1,1,13,6,55,3,2776,1,1.018882,12.39593,4.57029,-1
3,10,21,F,14,1,1,14,5,56,4,2743,0,0.3117098,6.450293,2.616886,-1
3,10,21,F,14,1,1,15,5,55,3,1521,0,0.4704178,6.435272,3.940344,-1
3,10,21,F,14,1,1,16,5,53,1,1621,0,0.2242721,6.351243,1.914484,-1
3,10,21,F,15,1,1,1,5,60,4,1943,0,0.5180366,6.440499,4.341268,-1
3,10,21,F,15,1,1,2,3,57,1,1587,0,0.2247487,6.346625,1.93755,-1
3,10,21,F,15,1,1,3,4,59,3,1310,0,0.7828076,12.40341,3.555452,-1
3,10,21,F,15,1,1,4,3,58,2,1465,0,1.264336e-7,6.439944,0,-1
3,10,21,F,15,1,1,5,3,59,3,1321,0,3.020849e-8,6.416969,0,-1
3,10,21,F,15,1,1,6,4,57,1,1965,1,0.3179385,12.43016,1.443472,-1
3,10,21,F,15,1,1,7,5,58,2,2276,0,0.269444,6.424292,2.267536,-1
3,10,21,F,15,1,1,8,6,60,4,4332,0,0.9835593,12.47281,4.452323,-1
3,10,21,F,15,1,1,9,6,57,1,1765,0,0.7225639,12.45791,3.266746,-1
3,10,21,F,15,1,1,10,4,58,2,2199,0,0.3848452,12.37387,1.738325,-1
3,10,21,F,15,1,1,11,6,59,3,1409,0,0.8066085,12.39772,3.616117,-1
3,10,21,F,15,1,1,12,5,57,1,1499,0,7.951913e-8,6.349589,0,-1
3,10,21,F,15,1,1,13,4,60,4,2654,1,0.5109654,12.46497,2.264599,-1
3,10,21,F,15,1,1,14,5,59,3,3710,0,0.4296173,6.432859,3.599456,-1
3,10,21,F,15,1,1,15,3,60,4,3631,0,0.53858,6.448639,4.493442,-1
3,10,21,F,15,1,1,16,6,58,2,3632,0,0.7475285,12.3548,3.402603,-1
3,10,21,F,16,1,1,1,5,63,3,2565,0,0.4269214,6.434617,3.583045,-1
3,10,21,F,16,1,1,2,4,64,4,2688,1,0.6947907,12.46414,3.081149,-1
3,10,21,F,16,1,1,3,5,62,2,1454,0,0.413441,6.4222340000000004,3.480597,-1
3,10,21,F,16,1,1,4,4,61,1,1410,0,0.465972,12.43384,2.121541,-1
3,10,21,F,16,1,1,5,3,63,3,2321,1,0.3851692,6.433841,3.234161,-1
3,10,21,F,16,1,1,6,3,62,2,2654,1,0.002698557,6.422877,0.01978234,-1
3,10,21,F,16,1,1,7,3,61,1,3220,0,0.1633482,6.345834,1.392127,-1
3,10,21,F,16,1,1,8,4,63,3,1743,0,0.8109156,12.39702,3.641585,-1
3,10,21,F,16,1,1,9,5,64,4,3887,0,0.3007861,6.438848,2.519638,-1
3,10,21,F,16,1,1,10,5,61,1,3910,1,1.05382e-7,6.343876,0,-1
3,10,21,F,16,1,1,11,4,62,2,3720,0,0.6229137,12.36545,2.854442,-1
3,10,21,F,16,1,1,12,6,63,3,2565,0,0.2289815,12.37896,1.029266,-1
3,10,21,F,16,1,1,13,6,62,2,1543,0,0.2532584,12.36608,1.144834,-1
3,10,21,F,16,1,1,14,6,64,4,1432,0,0.6084515,12.45352,2.703057,-1
3,10,21,F,16,1,1,15,6,61,1,1065,0,0.2477221,12.42611,1.121172,-1
3,10,21,F,16,1,1,16,3,64,4,2754,1,0.09400822,6.448841,0.7940154,-1
3,10,21,F,17,1,1,1,4,67,3,3721,3,0.4589219,12.40825,2.072921,-1
3,10,21,F,17,1,1,2,3,68,4,1332,0,0.3795437,6.452331,3.162793,-1
3,10,21,F,17,1,1,3,5,65,1,1543,0,0.3513848,6.374316,2.96326,-1
3,10,21,F,17,1,1,4,5,66,2,2176,0,0.4202441,6.429416,3.532414,-1
3,10,21,F,17,1,1,5,4,68,4,1321,0,0.7250516,12.45722,3.223186,-1
3,10,21,F,17,1,1,6,5,67,3,1854,0,1.006272e-7,6.429936,0,-1
3,10,21,F,17,1,1,7,3,66,2,1310,0,0.1047833,6.443032,0.8838168,-1
3,10,21,F,17,1,1,8,6,65,1,1987,0,0.2807159,12.46804,1.271801,-1
3,10,21,F,17,1,1,9,6,67,3,2576,0,0.3976872,12.41136,1.780043,-1
3,10,21,F,17,1,1,10,4,66,2,1776,0,0.8300555,12.38021,3.731034,-1
3,10,21,F,17,1,1,11,4,65,1,1565,0,0.6200827,12.45691,2.796034,-1
3,10,21,F,17,1,1,12,5,68,4,1443,0,0.4303134,6.441647,3.597007,-1
3,10,21,F,17,1,1,13,3,65,1,2543,0,0.07975004,6.365561,0.6829963,-1
3,10,21,F,17,1,1,14,6,66,2,2487,0,0.3396665,12.36898,1.551291,-1
3,10,21,F,17,1,1,15,6,68,4,2042,1,0.259722,12.46891,1.157075,-1
3,10,21,F,17,1,1,16,3,67,3,1365,0,0.437994,6.444523,3.71552,-1
3,10,21,F,18,1,1,1,4,72,4,1199,0,0.2835768,12.47668,1.275182,-1
3,10,21,F,18,1,1,2,3,69,1,2610,1,0.05425056,6.371087,0.4643598,-1
3,10,21,F,18,1,1,3,6,71,3,1143,0,0.5787818,12.38992,2.647893,-1
3,10,21,F,18,1,1,4,5,72,4,1988,0,0.4704866,6.453738,3.952947,-1
3,10,21,F,18,1,1,5,6,70,2,1654,0,0.9044013,12.35647,4.061534,-1
3,10,21,F,18,1,1,6,4,71,3,1209,0,0.1387386,12.41246,0.6240098,-1
3,10,21,F,18,1,1,7,4,69,1,1643,1,0.5199667,12.45914,2.348354,-1
3,10,21,F,18,1,1,8,3,70,2,3931,2,0.2146238,6.436865,1.810997,-1
3,10,21,F,18,1,1,9,6,72,4,2188,0,0.5828704,12.47744,2.5994,-1
3,10,21,F,18,1,1,10,6,69,1,1976,0,0.2149605,12.44713,0.9679322,-1
3,10,21,F,18,1,1,11,5,71,3,3609,0,0.3975646,6.447181,3.35217,-1
3,10,21,F,18,1,1,12,5,70,2,3031,0,0.4998445,6.431789,4.193018,-1
3,10,21,F,18,1,1,13,3,72,4,2321,1,0.2851767,6.447236,2.380802,-1
3,10,21,F,18,1,1,14,4,70,2,1743,0,0.3649129,12.37844,1.645919,-1
3,10,21,F,18,1,1,15,3,71,3,2165,1,0.007618408,6.42938,0.0656106,-1
3,10,21,F,18,1,1,16,5,69,1,3210,1,0.2956527,6.368252,2.502176,-1
3,10,21,F,1,1,1,1,9,4,4,4554,0,-1,-1,-1,0
3,10,21,F,1,1,1,2,8,2,2,1765,0,-1,-1,-1,0
3,10,21,F,1,1,1,3,7,3,3,1499,0,-1,-1,-1,1
3,10,21,F,1,1,1,4,7,1,1,2243,0,-1,-1,-1,0
3,10,21,F,1,1,1,5,10,2,2,2676,0,-1,-1,-1,0
3,10,21,F,1,1,1,6,9,1,1,1821,0,-1,-1,-1,1
3,10,21,F,1,1,1,7,8,4,4,2843,0,-1,-1,-1,0
3,10,21,F,1,1,1,8,10,3,3,1387,0,-1,-1,-1,1
3,10,21,F,1,1,1,9,8,1,1,3920,0,-1,-1,-1,1
3,10,21,F,1,1,1,10,9,2,2,4064,0,-1,-1,-1,0
3,10,21,F,1,1,1,11,10,4,4,1410,0,-1,-1,-1,1
3,10,21,F,1,1,1,12,9,3,3,2254,0,-1,-1,-1,0
3,10,21,F,1,1,1,13,7,4,4,4032,0,-1,-1,-1,0
3,10,21,F,1,1,1,14,10,1,1,1499,0,-1,-1,-1,0
3,10,21,F,1,1,1,15,8,3,3,4343,0,-1,-1,-1,1
3,10,21,F,1,1,1,16,7,2,2,3677,0,-1,-1,-1,0
3,10,21,F,2,1,1,1,9,2,2,1754,0,-1,-1,-1,1
3,10,21,F,2,1,1,2,7,3,3,2199,0,-1,-1,-1,0
3,10,21,F,2,1,1,3,8,2,2,2632,0,-1,-1,-1,0
3,10,21,F,2,1,1,4,8,4,4,3721,0,-1,-1,-1,1
3,10,21,F,2,1,1,5,9,3,3,4777,0,-1,-1,-1,0
3,10,21,F,2,1,1,6,7,4,4,3621,0,-1,-1,-1,1
3,10,21,F,2,1,1,7,10,1,1,3998,0,-1,-1,-1,0
3,10,21,F,2,1,1,8,7,2,2,4654,0,-1,-1,-1,0
3,10,21,F,2,1,1,9,10,4,4,887,0,-1,-1,-1,1
3,10,21,F,2,1,1,10,7,1,1,6898,0,-1,-1,-1,1
3,10,21,F,2,1,1,11,10,3,3,3698,0,-1,-1,-1,1
3,10,21,F,2,1,1,12,9,1,1,1754,0,-1,-1,-1,1
3,10,21,F,2,1,1,13,9,4,4,6631,0,-1,-1,-1,1
3,10,21,F,2,1,1,14,8,1,1,2399,0,-1,-1,-1,0
3,10,21,F,2,1,1,15,10,2,2,3276,0,-1,-1,-1,0
3,10,21,F,2,1,1,16,8,3,3,5076,0,-1,-1,-1,1
3,11,19,F,1,1,1,1,2,2,2,4943,1,0.08791558,12.31467,0.3995845,-1
3,11,19,F,1,1,1,2,1,4,4,6165,1,0.06951799,6.431235,0.5875081,-1
3,11,19,F,1,1,1,3,1,3,3,5565,1,7.969054e-8,6.41857,0.01978234,-1
3,11,19,F,1,1,1,4,2,1,1,3154,0,1.010477,12.34512,4.662075,-1
3,11,19,F,1,1,1,5,2,4,4,2998,0,1.032449,12.38362,4.690183,-1
3,11,19,F,1,1,1,6,6,2,2,8498,3,0.05866478,12.32979,0.2676108,-1
3,11,19,F,1,1,1,7,5,1,1,2699,0,0.5164077,6.336314,4.469228,-1
3,11,19,F,1,1,1,8,6,4,4,1965,0,0.2003201,12.37712,0.906766,-1
3,11,19,F,1,1,1,9,6,1,1,2632,0,0.8798438,12.3465,3.999929,-1
3,11,19,F,1,1,1,10,5,2,2,2088,0,0.3874226,6.355389,3.353688,-1
3,11,19,F,1,1,1,11,6,3,3,4087,1,0.2514331,12.3742,1.136944,-1
3,11,19,F,1,1,1,12,1,2,2,2632,0,0.1628389,6.330032,1.397598,-1
3,11,19,F,1,1,1,13,2,3,3,2421,0,0.2068683,12.39669,0.9366996,-1
3,11,19,F,1,1,1,14,5,4,4,2377,0,0.1771063,6.414181,1.504672,-1
3,11,19,F,1,1,1,15,5,3,3,2032,0,0.06372962,6.393151,0.5428462,-1
3,11,19,F,1,1,1,16,1,1,1,2754,0,0.1239831,6.332002,1.07829,-1
3,11,19,F,2,1,1,1,2,8,4,1798,0,0.6850549,12.37442,3.10501,-1
3,11,19,F,2,1,1,2,1,6,2,2843,0,0.4942885,6.326163,4.231886,-1
3,11,19,F,2,1,1,3,5,8,4,2242,0,0.4477191,6.41477,3.754211,-1
3,11,19,F,2,1,1,4,5,6,2,1777,0,0.5283231,6.348839,4.528656,-1
3,11,19,F,2,1,1,5,1,7,3,2732,0,0.08323028,6.409765,0.7080355,-1
3,11,19,F,2,1,1,6,6,6,2,4610,1,0.3435495,12.33498,1.571345,-1
3,11,19,F,2,1,1,7,2,5,1,4287,1,0.4292854,12.3363,1.973181,-1
3,11,19,F,2,1,1,8,6,7,3,6287,2,0.4322341,12.38056,1.954446,-1
3,11,19,F,2,1,1,9,6,8,4,1410,0,0.5348396,12.35537,2.440559,-1
3,11,19,F,2,1,1,10,2,7,3,1832,0,0.910875,12.38295,4.120558,-1
3,11,19,F,2,1,1,11,6,5,1,2499,0,0.8790738,12.28923,4.001838,-1
3,11,19,F,2,1,1,12,2,6,2,3420,1,0.2643309,12.29161,1.212085,-1
3,11,19,F,2,1,1,13,5,5,1,2587,0,0.05857382,6.317073,0.5074486,-1
3,11,19,F,2,1,1,14,5,7,3,2110,0,0.117251,6.402097,0.9991678,-1
3,11,19,F,2,1,1,15,1,8,4,7842,2,1.589125e-7,6.413718,0,-1
3,11,19,F,2,1,1,16,1,5,1,2621,0,0.276189,6.318168,2.423416,-1
3,11,19,F,3,1,1,1,6,12,4,2132,0,0.3928182,12.35367,1.779823,-1
3,11,19,F,3,1,1,2,6,9,1,3165,0,0.3984559,12.32279,1.833657,-1
3,11,19,F,3,1,1,3,1,11,3,2032,0,0.08017628,6.402656,0.6841414,-1
3,11,19,F,3,1,1,4,5,10,2,2910,0,0.404768,6.31828,3.49211,-1
3,11,19,F,3,1,1,5,5,11,3,2288,0,1.194985e-7,6.377625,0,-1
3,11,19,F,3,1,1,6,2,10,2,1876,0,0.3206124,12.29393,1.457771,-1
3,11,19,F,3,1,1,7,2,9,1,2410,0,0.03209413,12.32895,0.14537,-1
3,11,19,F,3,1,1,8,6,11,3,1710,0,0.02594504,12.36296,0.1170339,-1
3,11,19,F,3,1,1,9,2,12,4,2965,0,0.2847695,12.36609,1.297092,-1
3,11,19,F,3,1,1,10,6,10,2,1610,0,0.5313315,12.32897,2.413056,-1
3,11,19,F,3,1,1,11,1,12,4,2387,0,0.4836035,6.404704,4.118085,-1
3,11,19,F,3,1,1,12,1,9,1,2654,0,0.1662034,6.319211,1.435451,-1
3,11,19,F,3,1,1,13,2,11,3,1621,0,0.520436,12.38264,2.376523,-1
3,11,19,F,3,1,1,14,1,10,2,3476,1,8.744723e-9,6.320586,0,-1
3,11,19,F,3,1,1,15,5,9,1,6742,2,0.2694354,6.308232,2.328433,-1
3,11,19,F,3,1,1,16,5,12,4,4676,1,0.176663,6.406746,1.489903,-1
3,11,19,F,4,1,1,1,1,14,2,3321,1,0.1184391,6.317855,1.024502,-1
3,11,19,F,4,1,1,2,2,16,4,1765,0,0.4431974,12.35279,2.028351,-1
3,11,19,F,4,1,1,3,2,13,1,2077,0,0.07961588,12.32491,0.364769,-1
3,11,19,F,4,1,1,4,1,16,4,3443,0,0.3350973,6.397482,2.876644,-1
3,11,19,F,4,1,1,5,2,14,2,4332,0,0.8760777,12.28757,3.967139,-1
3,11,19,F,4,1,1,6,1,15,3,3165,1,8.833033e-8,6.402692,0,-1
3,11,19,F,4,1,1,7,6,14,2,1698,0,0.7405877,12.29131,3.359462,-1
3,11,19,F,4,1,1,8,6,13,1,3887,0,0.5972748,12.29111,2.719878,-1
3,11,19,F,4,1,1,9,6,15,3,3088,0,0.8709601,12.38791,3.952898,-1
3,11,19,F,4,1,1,10,1,13,1,3910,1,1.040625e-7,6.318157,0,-1
3,11,19,F,4,1,1,11,6,16,4,2054,0,0.4556634,12.35262,2.068857,-1
3,11,19,F,4,1,1,12,5,15,3,3143,0,0.3641613,6.401828,3.119541,-1
3,11,19,F,4,1,1,13,5,13,1,4309,1,4.333709e-8,6.31652,0,-1
3,11,19,F,4,1,1,14,5,16,4,4243,1,5.620752e-8,6.435623,0,-1
3,11,19,F,4,1,1,15,5,14,2,2443,0,5.365555e-8,6.318902,0,-1
3,11,19,F,4,1,1,16,2,15,3,1365,0,0.6194489,12.38419,2.800651,-1
3,11,19,F,5,1,1,1,2,18,2,1165,0,0.9326646,12.27542,4.235356,-1
3,11,19,F,5,1,1,2,2,20,4,1343,0,0.9653961,12.34062,4.357524,-1
3,11,19,F,5,1,1,3,6,19,3,1432,0,1.013885,12.34099,4.576757,-1
3,11,19,F,5,1,1,4,6,18,2,2743,1,0.7619128,12.30971,3.460004,-1
3,11,19,F,5,1,1,5,6,20,4,1654,0,8.781343e-8,12.37561,0,-1
3,11,19,F,5,1,1,6,2,17,1,4721,2,0.07074473,12.30932,0.3232465,-1
3,11,19,F,5,1,1,7,5,19,3,1976,0,0.1178068,6.369515,1.00561,-1
3,11,19,F,5,1,1,8,1,20,4,3465,1,0.1640554,6.400308,1.38508,-1
3,11,19,F,5,1,1,9,1,17,1,2110,0,0.07335041,6.310531,0.6370438,-1
3,11,19,F,5,1,1,10,5,20,4,2076,0,0.1696666,6.423835,1.453604,-1
3,11,19,F,5,1,1,11,5,17,1,1810,0,0.04858785,6.290248,0.4201138,-1
3,11,19,F,5,1,1,12,1,18,2,1887,0,0.3044914,6.314916,2.5994,-1
3,11,19,F,5,1,1,13,2,19,3,1788,0,0.4632703,12.36476,2.113592,-1
3,11,19,F,5,1,1,14,6,17,1,2254,0,0.3012437,12.306,1.384656,-1
3,11,19,F,5,1,1,15,5,18,2,2521,0,0.0683563,6.330088,0.5891711,-1
3,11,19,F,5,1,1,16,1,19,3,2099,0,1.87384e-7,6.387751,0,-1
3,11,19,F,6,1,1,1,5,24,4,4087,1,0.08614806,6.408805,0.7378095,-1
3,11,19,F,6,1,1,2,1,22,2,2921,1,9.718126e-8,6.307221,0,-1
3,11,19,F,6,1,1,3,2,21,1,2032,0,0.8104985,12.3094,3.749357,-1
3,11,19,F,6,1,1,4,6,23,3,9343,5,2.340478e-7,12.34498,0,-1
3,11,19,F,6,1,1,5,1,24,4,2998,0,0.06391215,6.38394,0.5432066,-1
3,11,19,F,6,1,1,6,5,21,1,2232,0,1.583453e-7,6.269998,0,-1
3,11,19,F,6,1,1,7,1,23,3,2888,0,0.0627608,6.3779,0.5377761,-1
3,11,19,F,6,1,1,8,6,22,2,3499,1,0.5292491,12.27103,2.417109,-1
3,11,19,F,6,1,1,9,6,24,4,1810,0,0.3768083,12.33501,1.710979,-1
3,11,19,F,6,1,1,10,2,22,2,3254,1,0.07465313,12.27245,0.3414966,-1
3,11,19,F,6,1,1,11,6,21,1,2265,0,0.002917453,12.28984,0.01978234,-1
3,11,19,F,6,1,1,12,2,23,3,1766,0,1.520685e-7,12.35874,0,-1
3,11,19,F,6,1,1,13,5,22,2,3376,1,0.2462755,6.316787,2.133225,-1
3,11,19,F,6,1,1,14,1,21,1,4443,0,1.865828e-7,6.293696,0,-1
3,11,19,F,6,1,1,15,2,24,4,3598,2,0.1475238,12.34142,0.6696879,-1
3,11,19,F,6,1,1,16,5,23,3,3020,0,0.2145841,6.382428,1.842388,-1
3,11,19,F,7,1,1,1,5,25,1,3509,1,1.616213e-7,6.279066,0,-1
3,11,19,F,7,1,1,2,2,26,2,4043,1,0.05558777,12.26408,0.254109,-1
3,11,19,F,7,1,1,3,6,25,1,1765,0,0.300472,12.28092,1.38395,-1
3,11,19,F,7,1,1,4,2,27,3,5743,2,0.1383209,12.35264,0.6283845,-1
3,11,19,F,7,1,1,5,2,28,4,2876,1,0.5041738,12.34086,2.303673,-1
3,11,19,F,7,1,1,6,5,27,3,3732,0,0.005140342,6.378536,0.04423466,-1
3,11,19,F,7,1,1,7,2,25,1,2076,0,0.90816,12.31384,4.200998,-1
3,11,19,F,7,1,1,8,6,26,2,5698,1,0.5945678,12.29913,2.750081,-1
3,11,19,F,7,1,1,9,1,28,4,3698,0,0.1901632,6.388941,1.609854,-1
3,11,19,F,7,1,1,10,6,27,3,1987,0,0.5849828,12.30433,2.638637,-1
3,11,19,F,7,1,1,11,6,28,4,1276,0,0.9107608,12.32918,4.101598,-1
3,11,19,F,7,1,1,12,5,26,2,1843,0,2.060799e-8,6.301793,0,-1
3,11,19,F,7,1,1,13,5,28,4,2521,1,0.2615969,6.413725,2.23992,-1
3,11,19,F,7,1,1,14,1,25,1,2743,0,0.1428113,6.296187,1.250075,-1
3,11,19,F,7,1,1,15,1,26,2,1943,0,0.187457,6.304237,1.614103,-1
3,11,19,F,7,1,1,16,1,27,3,3554,0,0.3050926,6.373827,2.597818,-1
3,11,19,F,8,1,1,1,2,32,4,1788,0,0.8210815,12.34002,3.705441,-1
3,11,19,F,8,1,1,2,5,31,3,3076,0,0.5469117,6.381337,4.702613,-1
3,11,19,F,8,1,1,3,6,32,4,2987,1,2.142726e-7,12.32689,0,-1
3,11,19,F,8,1,1,4,6,31,3,1543,0,0.453743,12.3548,2.068668,-1
3,11,19,F,8,1,1,5,1,32,4,2599,0,0.3306164,6.390203,2.820292,-1
3,11,19,F,8,1,1,6,5,29,1,2821,0,0.07229842,6.27045,0.629007,-1
3,11,19,F,8,1,1,7,6,30,2,6087,1,0.362871,12.26993,1.674913,-1
3,11,19,F,8,1,1,8,2,29,1,2532,0,4.881113e-8,12.30164,0,-1
3,11,19,F,8,1,1,9,5,32,4,5054,1,4.457334e-8,6.419134,0,-1
3,11,19,F,8,1,1,10,1,31,3,2699,0,0.1272906,6.362989,1.09289,-1
3,11,19,F,8,1,1,11,2,30,2,6432,1,0.479067,12.27426,2.21249,-1
3,11,19,F,8,1,1,12,2,31,3,3598,1,0.1138203,12.35877,0.5200178,-1
3,11,19,F,8,1,1,13,1,29,1,2343,0,1.203041e-7,6.295789,0,-1
3,11,19,F,8,1,1,14,5,30,2,2910,0,0.04796894,6.322538,0.414487,-1
3,11,19,F,8,1,1,15,6,29,1,2554,0,0.238631,12.29426,1.090919,-1
3,11,19,F,8,1,1,16,1,30,2,1921,0,2.798884e-8,6.299723,0,-1
3,11,19,F,9,1,1,1,2,35,3,1232,0,0.3763574,12.43664,1.693504,-1
3,11,19,F,9,1,1,2,2,36,4,4521,3,0.9728202,12.41889,4.403221,-1
3,11,19,F,9,1,1,3,2,33,1,2154,0,6.456752e-8,12.3613,0,-1
3,11,19,F,9,1,1,4,2,34,2,1932,0,0.3306856,12.34243,1.497371,-1
3,11,19,F,9,1,1,5,1,33,1,2988,0,0.4705851,6.278708,4.201185,-1
3,11,19,F,9,1,1,6,5,36,4,3198,0,0.3635122,6.397287,3.093641,-1
3,11,19,F,9,1,1,7,5,35,3,1765,0,9.930218e-8,6.366243,0,-1
3,11,19,F,9,1,1,8,5,34,2,3443,1,0.05860349,6.305222,0.5093729,-1
3,11,19,F,9,1,1,9,6,33,1,2443,0,0.7377349,12.28205,3.415181,-1
3,11,19,F,9,1,1,10,6,34,2,1999,0,0.1269209,12.25875,0.5797972,-1
3,11,19,F,9,1,1,11,1,35,3,1521,0,4.753475e-8,6.382515,0,-1
3,11,19,F,9,1,1,12,6,36,4,1365,0,0.6195025,12.36921,2.810976,-1
3,11,19,F,9,1,1,13,5,33,1,2376,0,1.513206e-7,6.256684,0,-1
3,11,19,F,9,1,1,14,6,35,3,1365,0,0.540728,12.36538,2.473143,-1
3,11,19,F,9,1,1,15,1,36,4,3876,1,1.067848e-7,6.413948,0,-1
3,11,19,F,9,1,1,16,1,34,2,1421,0,0.5138887,6.2841,4.426822,-1
3,11,19,F,10,1,1,1,2,37,1,1654,0,0.58705,12.28776,2.713248,-1
3,11,19,F,10,1,1,2,1,38,2,1621,0,0.2064492,6.284206,1.78235,-1
3,11,19,F,10,1,1,3,1,40,4,3388,1,0.06560143,6.409715,0.556375,-1
3,11,19,F,10,1,1,4,2,39,3,1387,0,0.7408702,12.35645,3.382346,-1
3,11,19,F,10,1,1,5,5,40,4,1765,0,1.347006e-7,6.408099,0,-1
3,11,19,F,10,1,1,6,6,39,3,1254,0,0.3526125,12.34078,1.589547,-1
3,11,19,F,10,1,1,7,5,38,2,1821,0,0.410981,6.284078,3.545691,-1
3,11,19,F,10,1,1,8,1,39,3,2065,0,1.293071e-7,6.388783,0,-1
3,11,19,F,10,1,1,9,5,37,1,3376,0,0.2748832,6.248487,2.395717,-1
3,11,19,F,10,1,1,10,5,39,3,2865,0,0.1297016,6.395278,1.106238,-1
3,11,19,F,10,1,1,11,2,38,2,1654,0,1.012399,12.26705,4.649326,-1
3,11,19,F,10,1,1,12,1,37,1,4598,2,0.2784282,6.275895,2.424305,-1
3,11,19,F,10,1,1,13,6,38,2,1244,0,0.6342238,12.29517,2.880656,-1
3,11,19,F,10,1,1,14,2,40,4,2721,1,0.6917298,12.35154,3.157651,-1
3,11,19,F,10,1,1,15,6,37,1,1977,0,0.9537955,12.28907,4.405756,-1
3,11,19,F,10,1,1,16,6,40,4,5476,3,1.05352,12.37165,4.765469,-1
3,11,19,F,11,1,1,1,6,43,3,1432,0,0.3440515,12.37632,1.552552,-1
3,11,19,F,11,1,1,2,4,41,1,1643,0,0.5183204,12.29949,2.389746,-1
3,11,19,F,11,1,1,3,4,42,2,2454,1,0.46703480000000003,12.2679,2.15495,-1
3,11,19,F,11,1,1,4,3,43,3,2787,0,0.4807327,6.39383,4.06563,-1
3,11,19,F,11,1,1,5,3,41,1,2510,0,0.2870952,6.282066,2.535281,-1
3,11,19,F,11,1,1,6,3,42,2,1854,0,0.3291697,6.284976,2.837108,-1
3,11,19,F,11,1,1,7,5,44,4,4387,1,0.01634328,6.432132,0.1398823,-1
3,11,19,F,11,1,1,8,4,43,3,2820,1,0.1496805,12.37326,0.6824232,-1
3,11,19,F,11,1,1,9,6,41,1,9999,0,-1,-1,-1,-1
3,11,19,F,11,1,1,10,5,43,3,4487,0,0.495395,6.394544,4.192411,-1
3,11,19,F,11,1,1,11,6,44,4,2165,1,0.394251,12.34888,1.772109,-1
3,11,19,F,11,1,1,12,5,41,1,2310,0,0.2514663,6.275645,2.183282,-1
3,11,19,F,11,1,1,13,4,44,4,2877,0,0.9752543,12.35081,4.439415,-1
3,11,19,F,11,1,1,14,5,42,2,3699,1,0.3426645,6.297837,2.955918,-1
3,11,19,F,11,1,1,15,3,44,4,6065,1,0.2655552,6.407465,2.242627,-1
3,11,19,F,11,1,1,16,6,42,2,2188,1,0.1024756,12.2641,0.4693892,-1
3,11,19,F,12,1,1,1,4,48,4,1421,0,0.306805,12.34708,1.385504,-1
3,11,19,F,12,1,1,2,3,46,2,2676,1,0.5102605,6.273742,4.402198,-1
3,11,19,F,12,1,1,3,4,45,1,2398,0,0.9010959,12.29253,4.159348,-1
3,11,19,F,12,1,1,4,5,46,2,2687,0,0.03869132,6.28735,0.3363003,-1
3,11,19,F,12,1,1,5,6,48,4,3621,2,0.923583,12.34833,4.229433,-1
3,11,19,F,12,1,1,6,6,47,3,4698,2,0.6943178,12.36979,3.135939,-1
3,11,19,F,12,1,1,7,4,46,2,3865,1,0.4345596,12.26696,2.008376,-1
3,11,19,F,12,1,1,8,5,47,3,3654,0,0.05202001,6.368195,0.4471871,-1
3,11,19,F,12,1,1,9,5,45,1,6821,3,0.1025627,6.256709,0.8895546,-1
3,11,19,F,12,1,1,10,3,47,3,7687,3,0.1419815,6.372855,1.22029,-1
3,11,19,F,12,1,1,11,3,45,1,4043,0,0.164077,6.277185,1.422441,-1
3,11,19,F,12,1,1,12,5,48,4,2565,0,2.170683e-7,6.449432,0.01978234,-1
3,11,19,F,12,1,1,13,6,46,2,4321,1,0.1146892,12.30412,0.5237671,-1
3,11,19,F,12,1,1,14,4,47,3,2443,0,0.2066844,12.37709,0.9404523,-1
3,11,19,F,12,1,1,15,3,48,4,2854,0,0.02273959,6.415862,0.1928145,-1
3,11,19,F,12,1,1,16,6,45,1,2488,0,0.6176747,12.26789,2.840211,-1
3,11,19,F,13,1,1,1,5,50,2,1732,0,0.01452592,6.305999,0.1266688,-1
3,11,19,F,13,1,1,2,4,51,3,1799,0,0.1333175,12.37745,0.6058724,-1
3,11,19,F,13,1,1,3,3,50,2,3443,0,0.3068584,6.285042,2.645305,-1
3,11,19,F,13,1,1,4,3,51,3,3432,0,9.240907e-8,6.39506,0.01978234,-1
3,11,19,F,13,1,1,5,6,52,4,1610,0,0.3519751,12.3932,1.590163,-1
3,11,19,F,13,1,1,6,5,49,1,2510,0,0.2007149,6.256066,1.739451,-1
3,11,19,F,13,1,1,7,4,50,2,1465,0,0.6854992,12.26892,3.113133,-1
3,11,19,F,13,1,1,8,4,52,4,1543,0,0.7020437,12.35582,3.186043,-1
3,11,19,F,13,1,1,9,6,49,1,8776,0,0.6641231,12.30619,3.028214,-1
3,11,19,F,13,1,1,10,5,51,3,2665,0,0.300239,6.375039,2.543221,-1
3,11,19,F,13,1,1,11,3,52,4,4287,1,0.2969835,6.412817,2.524915,-1
3,11,19,F,13,1,1,12,4,49,1,9999,5,-1,-1,-1,-1
3,11,19,F,13,1,1,13,6,50,2,2043,1,0.71956,12.24885,3.328314,-1
3,11,19,F,13,1,1,14,5,52,4,1654,0,0.5176224,6.391212,4.367671,-1
3,11,19,F,13,1,1,15,3,49,1,3321,0,0.1422892,6.268688,1.248822,-1
3,11,19,F,13,1,1,16,6,51,3,1621,0,0.2521607,12.35608,1.149099,-1
3,11,19,F,14,1,1,1,3,56,4,4798,1,0.1357103,6.409492,1.155552,-1
3,11,19,F,14,1,1,2,3,54,2,3421,1,0.5106059,6.272141,4.479428,-1
3,11,19,F,14,1,1,3,3,55,3,3954,0,1.852652e-7,6.379595,0,-1
3,11,19,F,14,1,1,4,3,53,1,2832,0,0.08107984,6.271062,0.709416,-1
3,11,19,F,14,1,1,5,5,56,4,4087,1,0.1178713,6.415926,1.008136,-1
3,11,19,F,14,1,1,6,5,55,3,3176,0,0.02304177,6.381106,0.1988102,-1
3,11,19,F,14,1,1,7,4,56,4,3443,2,0.9856399,12.34045,4.506935,-1
3,11,19,F,14,1,1,8,4,53,1,2154,0,0.2478645,12.29146,1.140553,-1
3,11,19,F,14,1,1,9,4,55,3,1687,0,0.07280322,12.36258,0.3304307,-1
3,11,19,F,14,1,1,10,4,54,2,2054,0,5.209096e-8,12.25615,0,-1
3,11,19,F,14,1,1,11,6,53,1,2087,0,1.008003,12.28229,4.614818,-1
3,11,19,F,14,1,1,12,6,54,2,2387,0,0.5225246,12.28938,2.38458,-1
3,11,19,F,14,1,1,13,5,53,1,2054,0,0.4353718,6.235338,3.789874,-1
3,11,19,F,14,1,1,14,6,55,3,1521,0,0.124731,12.32815,0.5650989,-1
3,11,19,F,14,1,1,15,5,54,2,3010,1,0.3233458,6.297469,2.794914,-1
3,11,19,F,14,1,1,16,6,56,4,1321,0,0.6391511,12.33466,2.886426,-1
3,11,19,F,15,1,1,1,6,58,2,2666,1,0.7889289,12.25694,3.659553,-1
3,11,19,F,15,1,1,2,6,59,3,1743,0,6.374914e-8,12.33105,0,-1
3,11,19,F,15,1,1,3,5,57,1,1999,0,0.007655274,6.257449,0.0656106,-1
3,11,19,F,15,1,1,4,3,59,3,2177,0,2.546484e-8,6.379998,0,-1
3,11,19,F,15,1,1,5,4,57,1,1621,0,0.9052785,12.28623,4.180997,-1
3,11,19,F,15,1,1,6,6,60,4,1432,0,0.4579182,12.33958,2.078107,-1
3,11,19,F,15,1,1,7,5,58,2,2487,0,0.400976,6.279704,3.485488,-1
3,11,19,F,15,1,1,8,3,57,1,1854,0,0.1684772,6.267633,1.469404,-1
3,11,19,F,15,1,1,9,4,59,3,1332,0,0.3648408,12.36403,1.662246,-1
3,11,19,F,15,1,1,10,5,60,4,4076,1,0.2961938,6.434285,2.53559,-1
3,11,19,F,15,1,1,11,3,58,2,3165,1,0.3437783,6.274771,3.013049,-1
3,11,19,F,15,1,1,12,6,57,1,1865,0,0.2985579,12.24416,1.375582,-1
3,11,19,F,15,1,1,13,3,60,4,2887,0,0.5063933,6.394187,4.286286,-1
3,11,19,F,15,1,1,14,4,58,2,2110,0,0.09299029,12.25534,0.4256662,-1
3,11,19,F,15,1,1,15,5,59,3,2165,0,0.01331644,6.391465,0.1119058,-1
3,11,19,F,15,1,1,16,4,60,4,1309,0,0.2907584,12.34672,1.310599,-1
3,11,19,F,16,1,1,1,5,63,3,1443,0,0.2910521,6.368222,2.479624,-1
3,11,19,F,16,1,1,2,3,62,2,1710,0,0.5168358,6.27705,4.48847,-1
3,11,19,F,16,1,1,3,6,63,3,1465,0,0.516777,12.35526,2.333639,-1
3,11,19,F,16,1,1,4,4,61,1,1176,0,0.3218128,12.28819,1.483321,-1
3,11,19,F,16,1,1,5,3,63,3,3609,3,0.09698086,6.380948,0.8294513,-1
3,11,19,F,16,1,1,6,5,64,4,3066,2,1.738014e-7,6.432725,0,-1
3,11,19,F,16,1,1,7,5,61,1,1543,0,0.2138298,6.256645,1.867184,-1
3,11,19,F,16,1,1,8,6,62,2,1598,0,0.2383302,12.25776,1.088045,-1
3,11,19,F,16,1,1,9,4,63,3,1143,0,0.5739637,12.36752,2.598421,-1
3,11,19,F,16,1,1,10,6,64,4,3110,1,0.2006204,12.37982,0.9119305,-1
3,11,19,F,16,1,1,11,5,62,2,2609,1,0.2599517,6.287201,2.244459,-1
3,11,19,F,16,1,1,12,3,61,1,1720,0,0.3420053,6.277565,2.97368,-1
3,11,19,F,16,1,1,13,4,64,4,1188,0,0.6119284,12.34974,2.75868,-1
3,11,19,F,16,1,1,14,4,62,2,1421,0,0.4180908,12.25665,1.907623,-1
3,11,19,F,16,1,1,15,3,64,4,3842,0,0.05190189,6.407278,0.4410186,-1
3,11,19,F,16,1,1,16,6,61,1,2143,0,0.2093065,12.25204,0.962255,-1
3,11,19,F,17,1,1,1,4,66,2,2454,1,0.6863274,12.27143,3.134628,-1
3,11,19,F,17,1,1,2,5,65,1,1843,0,0.4701375,6.265771,4.092038,-1
3,11,19,F,17,1,1,3,5,68,4,5220,3,7.814311e-8,6.437036,0,-1
3,11,19,F,17,1,1,4,4,67,3,1143,0,0.859122,12.372,3.880704,-1
3,11,19,F,17,1,1,5,3,68,4,4177,1,0.09711269,6.411235,0.8211529,-1
3,11,19,F,17,1,1,6,6,66,2,2165,1,0.312868,12.30173,1.426287,-1
3,11,19,F,17,1,1,7,6,67,3,2054,1,1.006979,12.36235,4.548294,-1
3,11,19,F,17,1,1,8,6,68,4,2132,1,0.448185,12.38345,2.02613,-1
3,11,19,F,17,1,1,9,3,67,3,3087,0,0.2650111,6.398837,2.270899,-1
3,11,19,F,17,1,1,10,3,65,1,3065,1,0.1188974,6.284285,1.036843,-1
3,11,19,F,17,1,1,11,5,66,2,3110,1,0.0287258,6.288882,0.2478722,-1
3,11,19,F,17,1,1,12,4,65,1,3754,0,0.3036241,12.29919,1.396758,-1
3,11,19,F,17,1,1,13,3,66,2,3209,2,0.03387018,6.285791,0.2934199,-1
3,11,19,F,17,1,1,14,4,68,4,1421,0,0.5526847,12.35418,2.501081,-1
3,11,19,F,17,1,1,15,6,65,1,2665,0,0.8904366,12.23671,4.149117,-1
3,11,19,F,17,1,1,16,5,67,3,2865,0,0.3689048,6.34638,3.157093,-1
3,11,19,F,18,1,1,1,4,69,1,3043,1,0.1661658,12.27095,0.7646385,-1
3,11,19,F,18,1,1,2,5,71,3,1443,0,0.3823912,6.34841,3.271657,-1
3,11,19,F,18,1,1,3,6,72,4,2099,1,0.1842198,12.36715,0.8360308,-1
3,11,19,F,18,1,1,4,5,70,2,2443,0,0.4119991,6.288909,3.61021,-1
3,11,19,F,18,1,1,5,3,71,3,1999,0,0.1679219,6.368194,1.445504,-1
3,11,19,F,18,1,1,6,4,70,2,2621,1,0.4366851,12.25601,2.019842,-1
3,11,19,F,18,1,1,7,5,69,1,2498,0,0.2890337,6.243426,2.523131,-1
3,11,19,F,18,1,1,8,5,72,4,3299,0,0.5001624,6.393616,4.263332,-1
3,11,19,F,18,1,1,9,6,69,1,1887,0,0.2127969,12.2346,0.9797872,-1
3,11,19,F,18,1,1,10,6,71,3,1499,0,0.5998402,12.3578,2.711517,-1
3,11,19,F,18,1,1,11,3,70,2,2732,1,0.04465022,6.26928,0.3876539,-1
3,11,19,F,18,1,1,12,3,69,1,3498,0,0.2010973,6.262667,1.767022,-1
3,11,19,F,18,1,1,13,3,72,4,3776,0,0.540691,6.392145,4.592395,-1
3,11,19,F,18,1,1,14,6,70,2,2621,1,0.03550994,12.28881,0.1631294,-1
3,11,19,F,18,1,1,15,4,72,4,1410,0,0.6718876,12.34392,3.030347,-1
3,11,19,F,18,1,1,16,4,71,3,1410,0,0.5639606,12.35886,2.554816,-1
3,11,19,F,1,1,1,1,7,2,2,3198,0,-1,-1,-1,0
3,11,19,F,1,1,1,2,9,3,3,3098,0,-1,-1,-1,1
3,11,19,F,1,1,1,3,10,4,4,3154,0,-1,-1,-1,1
3,11,19,F,1,1,1,4,10,1,1,1754,0,-1,-1,-1,1
3,11,19,F,1,1,1,5,10,3,3,1532,0,-1,-1,-1,0
3,11,19,F,1,1,1,6,9,2,2,1798,0,-1,-1,-1,0
3,11,19,F,1,1,1,7,9,4,4,2665,0,-1,-1,-1,1
3,11,19,F,1,1,1,8,10,2,2,1076,0,-1,-1,-1,0
3,11,19,F,1,1,1,9,7,1,1,1187,0,-1,-1,-1,0
3,11,19,F,1,1,1,10,8,3,3,1899,0,-1,-1,-1,0
3,11,19,F,1,1,1,11,8,2,2,2165,0,-1,-1,-1,1
3,11,19,F,1,1,1,12,8,1,1,2432,0,-1,-1,-1,1
3,11,19,F,1,1,1,13,7,4,4,3131,0,-1,-1,-1,0
3,11,19,F,1,1,1,14,9,1,1,2587,0,-1,-1,-1,0
3,11,19,F,1,1,1,15,7,3,3,2232,0,-1,-1,-1,1
3,11,19,F,1,1,1,16,8,4,4,2987,0,-1,-1,-1,0
3,11,19,F,2,1,1,1,7,3,3,2265,0,-1,-1,-1,1
3,11,19,F,2,1,1,2,9,2,2,1676,0,-1,-1,-1,0
3,11,19,F,2,1,1,3,10,1,1,2699,0,-1,-1,-1,1
3,11,19,F,2,1,1,4,8,4,4,2332,0,-1,-1,-1,0
3,11,19,F,2,1,1,5,8,3,3,1409,0,-1,-1,-1,0
3,11,19,F,2,1,1,6,9,1,1,3288,0,-1,-1,-1,0
3,11,19,F,2,1,1,7,10,2,2,1621,0,-1,-1,-1,1
3,11,19,F,2,1,1,8,9,4,4,2532,0,-1,-1,-1,0
3,11,19,F,2,1,1,9,7,2,2,2576,0,-1,-1,-1,0
3,11,19,F,2,1,1,10,7,1,1,2254,0,-1,-1,-1,0
3,11,19,F,2,1,1,11,10,4,4,1721,0,-1,-1,-1,1
3,11,19,F,2,1,1,12,10,3,3,1243,0,-1,-1,-1,1
3,11,19,F,2,1,1,13,8,2,2,2177,0,-1,-1,-1,1
3,11,19,F,2,1,1,14,9,3,3,1243,0,-1,-1,-1,1
3,11,19,F,2,1,1,15,7,4,4,2177,0,-1,-1,-1,1
3,11,19,F,2,1,1,16,8,1,1,1388,0,-1,-1,-1,0
3,12,20,F,1,1,1,1,5,3,3,4843,0,0.3781525,6.474761,3.199349,-1
3,12,20,F,1,1,1,2,2,1,1,3598,1,0.76732,12.42699,3.444976,-1
3,12,20,F,1,1,1,3,2,3,3,2365,0,0.572479,12.39019,2.579899,-1
3,12,20,F,1,1,1,4,1,2,2,3854,2,0.5170099,6.432075,4.359366,-1
3,12,20,F,1,1,1,5,5,4,4,4165,0,0.1348155,6.457016,1.143466,-1
3,12,20,F,1,1,1,6,2,2,2,2443,0,0.4298073,12.3953,1.931987,-1
3,12,20,F,1,1,1,7,1,3,3,4532,0,0.3264848,6.447593,2.767959,-1
3,12,20,F,1,1,1,8,5,1,1,2610,1,0.3056562,6.429344,2.603839,-1
3,12,20,F,1,1,1,9,6,2,2,2243,1,0.7098469,12.39334,3.181062,-1
3,12,20,F,1,1,1,10,6,4,4,3187,0,0.1773758,12.38917,0.8003972,-1
3,12,20,F,1,1,1,11,5,2,2,2209,0,0.4064441,6.416979,3.433477,-1
3,12,20,F,1,1,1,12,2,4,4,2698,0,0.6168702,12.3869,2.809026,-1
3,12,20,F,1,1,1,13,6,1,1,2343,0,0.8104154,12.43213,3.620825,-1
3,12,20,F,1,1,1,14,1,4,4,4287,1,0.1768046,6.456953,1.4878,-1
3,12,20,F,1,1,1,15,1,1,1,2043,0,0.06837497,6.434549,0.5818186,-1
3,12,20,F,1,1,1,16,6,3,3,5253,0,0.6897777,12.40309,3.105956,-1
3,12,20,F,2,1,1,1,5,6,2,2710,1,0.4950523,6.422816,4.152939,-1
3,12,20,F,2,1,1,2,5,5,1,2209,0,0.3803908,6.43878,3.208393,-1
3,12,20,F,2,1,1,3,1,8,4,3410,0,0.3491916,6.459698,2.93745,-1
3,12,20,F,2,1,1,4,6,6,2,1999,0,0.191029,12.39578,0.8681804,-1
3,12,20,F,2,1,1,5,2,5,1,2554,0,0.4141757,12.42765,1.865821,-1
3,12,20,F,2,1,1,6,5,7,3,5965,3,0.3591969,6.479736,3.036607,-1
3,12,20,F,2,1,1,7,2,6,2,1999,0,0.3972613,12.39511,1.791549,-1
3,12,20,F,2,1,1,8,1,7,3,3243,1,0.10241,6.447744,0.8686311,-1
3,12,20,F,2,1,1,9,6,8,4,2565,0,0.4895633,12.38209,2.203004,-1
3,12,20,F,2,1,1,10,6,5,1,2032,0,0.7783434,12.40345,3.526089,-1
3,12,20,F,2,1,1,11,1,6,2,2521,0,0.1924678,6.434847,1.615558,-1
3,12,20,F,2,1,1,12,6,7,3,2799,0,0.1423482,12.39141,0.6425489,-1
3,12,20,F,2,1,1,13,2,8,4,2076,0,0.6821564,12.38943,3.098699,-1
3,12,20,F,2,1,1,14,2,7,3,4198,0,0.1990222,12.39035,0.8967844,-1
3,12,20,F,2,1,1,15,5,8,4,3976,0,0.07777128,6.46497,0.6611602,-1
3,12,20,F,2,1,1,16,1,5,1,4876,0,0.08722819,6.438817,0.7409853,-1
3,12,20,F,3,1,1,1,2,10,2,1988,0,0.455413,12.39822,2.05871,-1
3,12,20,F,3,1,1,2,5,12,4,3965,0,0.3808445,6.450873,3.221424,-1
3,12,20,F,3,1,1,3,5,10,2,2254,0,0.2234584,6.444719,1.870848,-1
3,12,20,F,3,1,1,4,2,12,4,3098,0,0.6643262,12.39229,3.031316,-1
3,12,20,F,3,1,1,5,1,9,1,3321,0,0.1443204,6.433037,1.224932,-1
3,12,20,F,3,1,1,6,1,11,3,3754,0,0.07617492,6.445991,0.6437659,-1
3,12,20,F,3,1,1,7,6,12,4,1676,0,0.4544768,12.39283,2.078296,-1
3,12,20,F,3,1,1,8,2,11,3,2687,0,0.1087385,12.38867,0.4913847,-1
3,12,20,F,3,1,1,9,1,10,2,2032,0,0.1667247,6.439823,1.425601,-1
3,12,20,F,3,1,1,10,6,9,1,5154,0,0.2917967,12.42444,1.325889,-1
3,12,20,F,3,1,1,11,5,11,3,2732,0,0.04655198,6.461473,0.3941611,-1
3,12,20,F,3,1,1,12,1,12,4,2532,0,0.4398056,6.45245,3.70581,-1
3,12,20,F,3,1,1,13,2,9,1,2710,1,0.5857285,12.43406,2.620997,-1
3,12,20,F,3,1,1,14,6,10,2,1843,0,0.2837583,12.40534,1.276409,-1
3,12,20,F,3,1,1,15,5,9,1,3654,0,2.98456e-8,6.430805,0,-1
3,12,20,F,3,1,1,16,6,11,3,2077,0,0.1853844,12.38444,0.8367326,-1
3,12,20,F,4,1,1,1,5,16,4,3098,0,0.1418078,6.465035,1.208851,-1
3,12,20,F,4,1,1,2,1,15,3,3554,0,0.2103613,6.452608,1.781581,-1
3,12,20,F,4,1,1,3,6,16,4,2599,0,0.2664541,12.40137,1.211115,-1
3,12,20,F,4,1,1,4,5,14,2,2243,1,0.3465765,6.448644,2.910537,-1
3,12,20,F,4,1,1,5,6,13,1,2143,0,0.1415525,12.43258,0.6373509,-1
3,12,20,F,4,1,1,6,2,14,2,1743,0,3.711845e-8,12.40857,0,-1
3,12,20,F,4,1,1,7,5,13,1,1887,0,0.1557104,6.445122,1.319083,-1
3,12,20,F,4,1,1,8,1,16,4,3154,0,0.1586226,6.455881,1.337205,-1
3,12,20,F,4,1,1,9,5,15,3,3387,0,0.3870347,6.488527,3.267045,-1
3,12,20,F,4,1,1,10,2,13,1,1832,0,0.5224377,12.43801,2.340757,-1
3,12,20,F,4,1,1,11,1,14,2,1621,0,0.3567214,6.447429,2.980058,-1
3,12,20,F,4,1,1,12,2,16,4,3643,0,0.3499016,12.39669,1.584244,-1
3,12,20,F,4,1,1,13,6,14,2,2744,0,0.08525591,12.41324,0.3856296,-1
3,12,20,F,4,1,1,14,2,15,3,3209,0,0.1164778,12.40131,0.5256317,-1
3,12,20,F,4,1,1,15,1,13,1,4843,0,0.154486,6.449877,1.307909,-1
3,12,20,F,4,1,1,16,6,15,3,3609,0,0.5570598,12.40089,2.510143,-1
3,12,20,F,5,1,1,1,2,20,4,4332,0,1.060381,12.38029,4.767154,-1
3,12,20,F,5,1,1,2,6,18,2,1388,0,0.9862834,12.39879,4.412419,-1
3,12,20,F,5,1,1,3,5,20,4,5310,1,0.1484408,6.453324,1.259898,-1
3,12,20,F,5,1,1,4,2,18,2,1776,0,0.8651726,12.39923,3.869233,-1
3,12,20,F,5,1,1,5,2,19,3,3332,0,0.2560517,12.39332,1.162138,-1
3,12,20,F,5,1,1,6,2,17,1,2431,1,0.2830077,12.4333,1.271032,-1
3,12,20,F,5,1,1,7,5,19,3,4365,0,0.134172,6.470545,1.13125,-1
3,12,20,F,5,1,1,8,5,18,2,6709,0,0.3066674,6.432702,2.588761,-1
3,12,20,F,5,1,1,9,1,17,1,2543,0,3.80603e-8,6.427772,0,-1
3,12,20,F,5,1,1,10,6,20,4,3465,0,0.1607741,12.38869,0.7252374,-1
3,12,20,F,5,1,1,11,5,17,1,1698,0,0.0892347,6.439793,0.7579558,-1
3,12,20,F,5,1,1,12,1,18,2,2376,1,0.3793077,6.435912,3.196043,-1
3,12,20,F,5,1,1,13,6,19,3,4232,0,0.05219846,12.38474,0.2365626,-1
3,12,20,F,5,1,1,14,6,17,1,1987,0,0.3816866,12.42698,1.712351,-1
3,12,20,F,5,1,1,15,1,19,3,5509,1,0.1487789,6.445764,1.258966,-1
3,12,20,F,5,1,1,16,1,20,4,4421,0,0.3383698,6.461757,2.845857,-1
3,12,20,F,6,1,1,1,2,23,3,2521,0,0.1134431,12.39124,0.5116726,-1
3,12,20,F,6,1,1,2,1,21,1,4465,0,6.595155e-8,6.440692,0,-1
3,12,20,F,6,1,1,3,1,23,3,4476,1,0.2605324,6.434104,2.230287,-1
3,12,20,F,6,1,1,4,6,22,2,1332,0,0.2852823,12.39387,1.286944,-1
3,12,20,F,6,1,1,5,1,24,4,3599,0,0.2040574,6.451981,1.724309,-1
3,12,20,F,6,1,1,6,6,23,3,2709,1,0.2246827,12.39196,1.019908,-1
3,12,20,F,6,1,1,7,1,22,2,1476,0,0.2797343,6.439947,2.358417,-1
3,12,20,F,6,1,1,8,2,24,4,3132,0,0.3504878,12.38876,1.580906,-1
3,12,20,F,6,1,1,9,5,21,1,1410,0,0.04194162,6.440723,0.3577275,-1
3,12,20,F,6,1,1,10,5,22,2,1654,0,0.2625884,6.443469,2.212755,-1
3,12,20,F,6,1,1,11,5,23,3,3209,0,0.01676221,6.478402,0.1426525,-1
3,12,20,F,6,1,1,12,5,24,4,2810,0,0.3825609,6.454988,3.24033,-1
3,12,20,F,6,1,1,13,2,21,1,1910,0,0.0723249,12.42977,0.3256589,-1
3,12,20,F,6,1,1,14,2,22,2,1265,0,0.2326167,12.40408,1.048105,-1
3,12,20,F,6,1,1,15,6,21,1,1776,0,0.2210359,12.41827,0.9975998,-1
3,12,20,F,6,1,1,16,6,24,4,2265,0,0.782347,12.38723,3.534575,-1
3,12,20,F,7,1,1,1,6,27,3,2498,0,0.02598293,12.39484,0.1203313,-1
3,12,20,F,7,1,1,2,6,26,2,1243,0,0.4204093,12.40619,1.889584,-1
3,12,20,F,7,1,1,3,5,25,1,1732,0,0.07940111,6.435597,0.6746368,-1
3,12,20,F,7,1,1,4,5,27,3,3465,0,0.4535705,6.473256,3.838084,-1
3,12,20,F,7,1,1,5,1,25,1,1942,0,0.5294384,6.445505,4.454522,-1
3,12,20,F,7,1,1,6,6,28,4,2954,0,1.596323e-7,12.39758,0.01978234,-1
3,12,20,F,7,1,1,7,1,26,2,2410,1,0.2642719,6.435307,2.229673,-1
3,12,20,F,7,1,1,8,1,27,3,3354,0,0.3405157,6.454264,2.883984,-1
3,12,20,F,7,1,1,9,2,26,2,1054,0,0.4512916,12.40257,2.025841,-1
3,12,20,F,7,1,1,10,5,28,4,2443,0,0.196647,6.466136,1.665187,-1
3,12,20,F,7,1,1,11,5,26,2,1665,0,0.4635457,6.44413,3.885999,-1
3,12,20,F,7,1,1,12,2,27,3,2987,0,0.3830848,12.39435,1.722606,-1
3,12,20,F,7,1,1,13,6,25,1,2221,0,0.5201924,12.43551,2.330534,-1
3,12,20,F,7,1,1,14,1,28,4,3876,1,0.4786282,6.459966,4.048688,-1
3,12,20,F,7,1,1,15,2,25,1,2121,1,0.1461912,12.43405,0.6578966,-1
3,12,20,F,7,1,1,16,2,28,4,2298,0,0.3421131,12.39145,1.551165,-1
3,12,20,F,8,1,1,1,2,29,1,2099,0,0.1583326,12.43033,0.7127182,-1
3,12,20,F,8,1,1,2,5,30,2,2432,1,0.2778963,6.425072,2.358749,-1
3,12,20,F,8,1,1,3,6,32,4,2665,0,8.784322e-8,12.40022,0,-1
3,12,20,F,8,1,1,4,1,31,3,3488,0,0.2254025,6.448329,1.908956,-1
3,12,20,F,8,1,1,5,1,30,2,1565,0,1.492479e-7,6.440023,0,-1
3,12,20,F,8,1,1,6,5,29,1,2276,0,0.1437551,6.439784,1.224293,-1
3,12,20,F,8,1,1,7,2,31,3,2943,0,0.3307395,12.38688,1.488721,-1
3,12,20,F,8,1,1,8,2,32,4,3254,0,0.5483643,12.38947,2.461641,-1
3,12,20,F,8,1,1,9,6,30,2,1999,0,0.5154729,12.39904,2.31672,-1
3,12,20,F,8,1,1,10,1,32,4,2854,0,0.1171799,6.457448,0.9881397,-1
3,12,20,F,8,1,1,11,6,31,3,5765,0,0.3360748,12.38847,1.515687,-1
3,12,20,F,8,1,1,12,6,29,1,2010,0,0.4907574,12.43331,2.198023,-1
3,12,20,F,8,1,1,13,5,32,4,4620,0,0.003903826,6.441647,0.02797646,-1
3,12,20,F,8,1,1,14,5,31,3,3421,0,0.2225062,6.477041,1.877531,-1
3,12,20,F,8,1,1,15,2,30,2,1199,0,1.645856e-7,12.40807,0,-1
3,12,20,F,8,1,1,16,1,29,1,3176,0,0.3269431,6.435915,2.776292,-1
3,12,20,F,9,1,1,1,2,35,3,2310,0,0.4090817,12.39202,1.839411,-1
3,12,20,F,9,1,1,2,5,36,4,4143,0,0.506098,6.470361,4.256758,-1
3,12,20,F,9,1,1,3,6,33,1,1565,1,0.5539194,12.42463,2.482385,-1
3,12,20,F,9,1,1,4,6,34,2,1210,0,0.9614884,12.40318,4.305707,-1
3,12,20,F,9,1,1,5,6,35,3,1887,0,7.539336e-8,12.39639,0,-1
3,12,20,F,9,1,1,6,2,34,2,1376,0,0.2425736,12.39542,1.092353,-1
3,12,20,F,9,1,1,7,5,35,3,2632,0,0.2016072,6.455387,1.706627,-1
3,12,20,F,9,1,1,8,5,33,1,2298,0,0.4343163,6.440533,3.668371,-1
3,12,20,F,9,1,1,9,1,35,3,3443,1,0.3824067,6.453859,3.239242,-1
3,12,20,F,9,1,1,10,5,34,2,1377,0,0.1517533,6.444252,1.273032,-1
3,12,20,F,9,1,1,11,1,33,1,2121,1,0.2330678,6.445504,1.970005,-1
3,12,20,F,9,1,1,12,1,36,4,2365,0,0.4129438,6.457714,3.475305,-1
3,12,20,F,9,1,1,13,1,34,2,1454,0,0.3167494,6.441781,2.652694,-1
3,12,20,F,9,1,1,14,6,36,4,3632,0,0.6358353,12.3922,2.921345,-1
3,12,20,F,9,1,1,15,2,33,1,1754,0,0.906987,12.43778,4.056855,-1
3,12,20,F,9,1,1,16,2,36,4,1888,0,0.6233521,12.39561,2.80114,-1
3,12,20,F,10,1,1,1,2,39,3,2632,1,0.05941387,12.39874,0.2676108,-1
3,12,20,F,10,1,1,2,5,40,4,2698,0,0.3014194,6.468648,2.562924,-1
3,12,20,F,10,1,1,3,1,37,1,2243,0,2.45963e-8,6.435628,0,-1
3,12,20,F,10,1,1,4,6,38,2,1287,0,0.4263218,12.40694,1.914586,-1
3,12,20,F,10,1,1,5,1,39,3,3254,0,0.3931132,6.462988,3.325902,-1
3,12,20,F,10,1,1,6,1,40,4,3110,1,0.4006973,6.459463,3.371156,-1
3,12,20,F,10,1,1,7,6,37,1,1821,0,0.8024625,12.42486,3.591233,-1
3,12,20,F,10,1,1,8,6,39,3,1620,0,0.1555055,12.38717,0.7055438,-1
3,12,20,F,10,1,1,9,5,37,1,1288,0,0.1421784,6.437991,1.209822,-1
3,12,20,F,10,1,1,10,1,38,2,2388,1,0.5409927,6.442737,4.525454,-1
3,12,20,F,10,1,1,11,2,40,4,2698,0,0.3924955,12.39734,1.774758,-1
3,12,20,F,10,1,1,12,2,38,2,1009,0,0.3368618,12.406,1.51349,-1
3,12,20,F,10,1,1,13,6,40,4,1376,0,0.535841,12.40185,2.40371,-1
3,12,20,F,10,1,1,14,5,38,2,4398,0,5.596087e-8,6.443797,0,-1
3,12,20,F,10,1,1,15,2,37,1,1509,0,0.6697329,12.43329,3.06548,-1
3,12,20,F,10,1,1,16,5,39,3,4488,1,0.0575105,6.477977,0.4849715,-1
3,12,20,F,11,1,1,1,6,42,2,1077,0,0.4540455,12.401,2.039417,-1
3,12,20,F,11,1,1,2,6,44,4,1632,0,0.7889243,12.39964,3.602175,-1
3,12,20,F,11,1,1,3,5,42,2,1532,0,0.4113874,6.427888,3.447533,-1
3,12,20,F,11,1,1,4,3,43,3,5409,1,0.2365075,6.456746,2.001739,-1
3,12,20,F,11,1,1,5,5,44,4,2965,0,0.3317225,6.466143,2.78748,-1
3,12,20,F,11,1,1,6,4,41,1,1165,0,0.6634681,12.44517,3.003288,-1
3,12,20,F,11,1,1,7,3,44,4,1954,0,0.5524928,6.462567,4.673992,-1
3,12,20,F,11,1,1,8,4,42,2,1076,0,0.436098,12.41022,1.957947,-1
3,12,20,F,11,1,1,9,4,43,3,7386,0,0.4514091,12.39898,2.027096,-1
3,12,20,F,11,1,1,10,5,41,1,1821,0,0.5065349,6.447531,4.262321,-1
3,12,20,F,11,1,1,11,5,43,3,3732,0,0.3762735,6.487674,3.176936,-1
3,12,20,F,11,1,1,12,6,41,1,1254,0,0.007940059,12.42508,0.03956468,-1
3,12,20,F,11,1,1,13,6,43,3,1721,0,0.2354231,12.39529,1.063121,-1
3,12,20,F,11,1,1,14,4,44,4,2032,0,0.4934627,12.40013,2.252467,-1
3,12,20,F,11,1,1,15,3,42,2,4121,4,0.2039951,6.446614,1.746188,-1
3,12,20,F,11,1,1,16,3,41,1,2521,0,0.06836788,6.43404,0.5821548,-1
3,12,20,F,12,1,1,1,5,46,2,1565,0,0.324486,6.440877,2.723977,-1
3,12,20,F,12,1,1,2,6,48,4,2654,0,0.4729499,12.40145,2.14174,-1
3,12,20,F,12,1,1,3,6,46,2,1343,0,0.2878391,12.41314,1.294222,-1
3,12,20,F,12,1,1,4,3,45,1,4421,0,0.08955961,6.435217,0.7610474,-1
3,12,20,F,12,1,1,5,3,47,3,3610,0,0.1373728,6.451084,1.163316,-1
3,12,20,F,12,1,1,6,4,46,2,1087,0,0.1649544,12.40821,0.7465102,-1
3,12,20,F,12,1,1,7,3,48,4,3698,1,7.561528e-8,6.462868,0,-1
3,12,20,F,12,1,1,8,4,45,1,1187,0,0.2567178,12.43544,1.156229,-1
3,12,20,F,12,1,1,9,6,47,3,1421,0,0.2788852,12.39034,1.269183,-1
3,12,20,F,12,1,1,10,6,45,1,4443,0,1.261782e-7,12.4287,0,-1
3,12,20,F,12,1,1,11,4,48,4,3376,0,0.2784147,12.39777,1.266559,-1
3,12,20,F,12,1,1,12,3,46,2,1332,0,0.549385,6.444127,4.626942,-1
3,12,20,F,12,1,1,13,4,47,3,2354,0,0.05044031,12.39673,0.2289973,-1
3,12,20,F,12,1,1,14,5,48,4,3832,0,0.3158586,6.463105,2.655275,-1
3,12,20,F,12,1,1,15,5,47,3,2554,0,0.3428048,6.485716,2.895094,-1
3,12,20,F,12,1,1,16,5,45,1,3776,0,0.2683671,6.446625,2.2665,-1
3,12,20,F,13,1,1,1,6,52,4,2043,1,6.292593e-8,12.40068,0,-1
3,12,20,F,13,1,1,2,6,50,2,1143,0,0.4842027,12.40419,2.170966,-1
3,12,20,F,13,1,1,3,4,49,1,1154,0,0.6797088,12.44308,3.042982,-1
3,12,20,F,13,1,1,4,5,51,3,2087,0,0.2092814,6.482982,1.764695,-1
3,12,20,F,13,1,1,5,6,49,1,1121,0,0.5354728,12.43727,2.400125,-1
3,12,20,F,13,1,1,6,3,52,4,2176,0,0.440607,6.468084,3.702427,-1
3,12,20,F,13,1,1,7,5,49,1,1198,0,0.07814503,6.446662,0.6649964,-1
3,12,20,F,13,1,1,8,3,50,2,1577,0,0.4607905,6.445656,3.851682,-1
3,12,20,F,13,1,1,9,4,52,4,2176,0,0.4379287,12.39991,1.986428,-1
3,12,20,F,13,1,1,10,4,51,3,3854,0,0.04997538,12.39671,0.2255535,-1
3,12,20,F,13,1,1,11,4,50,2,1121,0,0.4827997,12.40765,2.20096,-1
3,12,20,F,13,1,1,12,5,52,4,2087,0,0.5505707,6.476125,4.623215,-1
3,12,20,F,13,1,1,13,5,50,2,2066,1,0.02150056,6.444583,0.1823843,-1
3,12,20,F,13,1,1,14,3,51,3,3065,0,0.3295744,6.463027,2.793863,-1
3,12,20,F,13,1,1,15,3,49,1,1188,0,0.3775323,6.445671,3.18217,-1
3,12,20,F,13,1,1,16,6,51,3,2165,0,0.5285478,12.39167,2.393919,-1
3,12,20,F,14,1,1,1,5,53,1,1065,0,0.1283992,6.43624,1.098961,-1
3,12,20,F,14,1,1,2,6,54,2,1565,0,0.4322918,12.41563,1.950035,-1
3,12,20,F,14,1,1,3,3,55,3,2743,0,0.09547877,6.46054,0.8072135,-1
3,12,20,F,14,1,1,4,4,54,2,1154,0,1.011905e-7,12.40704,0,-1
3,12,20,F,14,1,1,5,5,56,4,2942,0,0.09048307,6.468781,0.7684676,-1
3,12,20,F,14,1,1,6,5,55,3,2098,0,0.3886542,6.483391,3.283066,-1
3,12,20,F,14,1,1,7,4,53,1,1010,0,0.7922769,12.43199,3.62639,-1
3,12,20,F,14,1,1,8,3,56,4,1943,0,0.3705007,6.458364,3.129378,-1
3,12,20,F,14,1,1,9,3,53,1,3665,0,0.4306257,6.448895,3.634642,-1
3,12,20,F,14,1,1,10,3,54,2,2154,1,0.1338872,6.442322,1.133842,-1
3,12,20,F,14,1,1,11,4,56,4,2343,0,0.3878414,12.39012,1.76824,-1
3,12,20,F,14,1,1,12,5,54,2,3287,2,0.2641806,6.440234,2.221142,-1
3,12,20,F,14,1,1,13,6,55,3,1987,0,0.252499,12.39472,1.138492,-1
3,12,20,F,14,1,1,14,6,53,1,1010,0,0.568442,12.42494,2.59533,-1
3,12,20,F,14,1,1,15,4,55,3,3665,0,0.1222778,12.3919,0.5542608,-1
3,12,20,F,14,1,1,16,6,56,4,1898,0,0.22703980000000001,12.39606,1.030216,-1
3,12,20,F,15,1,1,1,3,59,3,3232,0,0.06589226,6.45242,0.5581307,-1
3,12,20,F,15,1,1,2,3,60,4,2865,0,0.2508438,6.463202,2.108493,-1
3,12,20,F,15,1,1,3,3,58,2,1554,0,0.3000818,6.43833,2.527162,-1
3,12,20,F,15,1,1,4,4,60,4,2465,0,0.2211652,12.39049,1.005804,-1
3,12,20,F,15,1,1,5,4,57,1,1554,0,0.007240169,12.42827,0.03426402,-1
3,12,20,F,15,1,1,6,4,58,2,932,0,0.3579707,12.40681,1.609003,-1
3,12,20,F,15,1,1,7,6,59,3,2088,0,0.1296359,12.40002,0.5851721,-1
3,12,20,F,15,1,1,8,6,57,1,1065,0,0.717644,12.4353,3.208088,-1
3,12,20,F,15,1,1,9,5,58,2,3454,0,0.1406048,6.450235,1.182833,-1
3,12,20,F,15,1,1,10,5,60,4,1343,0,0.4522465,6.470322,3.821159,-1
3,12,20,F,15,1,1,11,3,57,1,6176,0,7.415533e-8,6.441577,0,-1
3,12,20,F,15,1,1,12,6,60,4,1610,0,0.0616513,12.39372,0.2783625,-1
3,12,20,F,15,1,1,13,6,58,2,1032,0,0.3740543,12.40867,1.684815,-1
3,12,20,F,15,1,1,14,5,59,3,2254,0,0.2185776,6.4736,1.848433,-1
3,12,20,F,15,1,1,15,5,57,1,3021,0,6.181886e-8,6.44557,0,-1
3,12,20,F,15,1,1,16,4,59,3,1999,0,0.4235856,12.39088,1.935832,-1
3,12,20,F,16,1,1,1,3,61,1,1999,0,0.1968089,6.444174,1.665422,-1
3,12,20,F,16,1,1,2,4,64,4,2043,0,0.3775338,12.3965,1.723628,-1
3,12,20,F,16,1,1,3,4,63,3,1632,0,0.3116881,12.40168,1.418445,-1
3,12,20,F,16,1,1,4,6,64,4,3143,0,0.7890194,12.39396,3.626661,-1
3,12,20,F,16,1,1,5,6,62,2,1232,0,0.5904917,12.40404,2.645379,-1
3,12,20,F,16,1,1,6,5,61,1,1199,0,0.3342776,6.452213,2.816055,-1
3,12,20,F,16,1,1,7,3,62,2,3132,0,0.07417256,6.445115,0.6255757,-1
3,12,20,F,16,1,1,8,5,63,3,2954,2,0.3235341,6.470791,2.725126,-1
3,12,20,F,16,1,1,9,3,64,4,3643,0,0.4170227,6.459425,3.521144,-1
3,12,20,F,16,1,1,10,5,62,2,1565,0,0.1091026,6.434908,0.92365679999999994,-1
3,12,20,F,16,1,1,11,6,61,1,1199,0,0.4614853,12.43108,2.105986,-1
3,12,20,F,16,1,1,12,4,62,2,988,0,0.2142471,12.40347,0.9646922,-1
3,12,20,F,16,1,1,13,4,61,1,1121,0,1.917551e-7,12.42996,0,-1
3,12,20,F,16,1,1,14,6,63,3,2176,0,0.7928361,12.40114,3.548451,-1
3,12,20,F,16,1,1,15,5,64,4,2721,1,1.836211e-7,6.458422,0,-1
3,12,20,F,16,1,1,16,3,63,3,2543,0,0.5049427,6.461728,4.27416,-1
3,12,20,F,17,1,1,1,6,68,4,1643,0,0.7765626,12.37161,3.483184,-1
3,12,20,F,17,1,1,2,6,66,2,1154,0,0.6198739,12.3841,2.783263,-1
3,12,20,F,17,1,1,3,3,68,4,2532,0,0.2234123,6.44381,1.892482,-1
3,12,20,F,17,1,1,4,4,65,1,1087,0,0.1094808,12.42281,0.4933717,-1
3,12,20,F,17,1,1,5,3,66,2,2321,0,0.05101651,6.435948,0.4316007,-1
3,12,20,F,17,1,1,6,4,67,3,1609,0,0.5355411,12.37249,2.451042,-1
3,12,20,F,17,1,1,7,6,65,1,988,0,0.2013457,12.40094,0.9097822,-1
3,12,20,F,17,1,1,8,4,66,2,1020,0,0.6667563,12.38887,2.99271,-1
3,12,20,F,17,1,1,9,4,68,4,1643,0,0.1149411,12.37173,0.5207698,-1
3,12,20,F,17,1,1,10,5,67,3,2287,0,0.03903403,6.465687,0.3316129,-1
3,12,20,F,17,1,1,11,5,66,2,1843,0,3.687141e-8,6.421727,0,-1
3,12,20,F,17,1,1,12,3,65,1,1654,0,0.09716025,6.420267,0.8273254,-1
3,12,20,F,17,1,1,13,3,67,3,2265,0,0.4325653,6.445001,3.669972,-1
3,12,20,F,17,1,1,14,5,65,1,1021,0,5.571708e-8,6.423114,0,-1
3,12,20,F,17,1,1,15,6,67,3,3254,0,0.3342154,12.37669,1.512843,-1
3,12,20,F,17,1,1,16,5,68,4,2132,0,0.3195619,6.442451,2.717718,-1
3,12,20,F,18,1,1,1,5,69,1,1276,0,0.4029867,6.431362,3.399321,-1
3,12,20,F,18,1,1,2,5,70,2,3032,2,1.449703e-7,6.432301,0,-1
3,12,20,F,18,1,1,3,6,72,4,2154,0,0.500646,12.37743,2.253422,-1
3,12,20,F,18,1,1,4,6,70,2,988,0,4.020207e-8,12.39609,0,-1
3,12,20,F,18,1,1,5,3,71,3,3921,1,0.396675,6.443978,3.359695,-1
3,12,20,F,18,1,1,6,5,72,4,3476,1,0.4715366,6.440876,4.006777,-1
3,12,20,F,18,1,1,7,6,71,3,1676,0,0.5376823,12.37121,2.460607,-1
3,12,20,F,18,1,1,8,6,69,1,1021,0,0.4325596,12.40469,1.974768,-1
3,12,20,F,18,1,1,9,4,71,3,2010,0,0.7671282,12.37368,3.528088,-1
3,12,20,F,18,1,1,10,4,70,2,1443,0,0.6740564,12.39338,3.019409,-1
3,12,20,F,18,1,1,11,3,72,4,2398,0,0.1052716,6.447386,0.8943809,-1
3,12,20,F,18,1,1,12,3,69,1,2710,0,0.1021859,6.423979,0.8715547,-1
3,12,20,F,18,1,1,13,5,71,3,2455,0,0.3994469,6.472762,3.372201,-1
3,12,20,F,18,1,1,14,4,69,1,1321,0,0.3840455,12.4139,1.744843,-1
3,12,20,F,18,1,1,15,3,70,2,3832,0,0.4160496,6.440209,3.497432,-1
3,12,20,F,18,1,1,16,4,72,4,2299,0,0.2817189,12.37983,1.269954,-1
3,12,20,F,1,1,1,1,7,3,3,4743,0,-1,-1,-1,0
3,12,20,F,1,1,1,2,10,1,1,1421,0,-1,-1,-1,0
3,12,20,F,1,1,1,3,9,3,3,2087,0,-1,-1,-1,0
3,12,20,F,1,1,1,4,7,4,4,2487,0,-1,-1,-1,0
3,12,20,F,1,1,1,5,10,2,2,1398,0,-1,-1,-1,0
3,12,20,F,1,1,1,6,10,3,3,3199,0,-1,-1,-1,1
3,12,20,F,1,1,1,7,7,2,2,2443,0,-1,-1,-1,0
3,12,20,F,1,1,1,8,9,1,1,2121,0,-1,-1,-1,0
3,12,20,F,1,1,1,9,8,4,4,2676,0,-1,-1,-1,1
3,12,20,F,1,1,1,10,8,2,2,1043,0,-1,-1,-1,0
3,12,20,F,1,1,1,11,7,1,1,2965,0,-1,-1,-1,1
3,12,20,F,1,1,1,12,10,4,4,1743,0,-1,-1,-1,0
3,12,20,F,1,1,1,13,8,3,3,2709,0,-1,-1,-1,1
3,12,20,F,1,1,1,14,9,2,2,2954,0,-1,-1,-1,0
3,12,20,F,1,1,1,15,8,1,1,2910,0,-1,-1,-1,1
3,12,20,F,1,1,1,16,9,4,4,3620,0,-1,-1,-1,0
3,12,20,F,2,1,1,1,7,4,4,3454,0,-1,-1,-1,0
3,12,20,F,2,1,1,2,9,1,1,3165,0,-1,-1,-1,0
3,12,20,F,2,1,1,3,10,4,4,2054,0,-1,-1,-1,0
3,12,20,F,2,1,1,4,10,2,2,1843,0,-1,-1,-1,0
3,12,20,F,2,1,1,5,7,3,3,3576,0,-1,-1,-1,0
3,12,20,F,2,1,1,6,8,1,1,1910,0,-1,-1,-1,0
3,12,20,F,2,1,1,7,8,3,3,3699,0,-1,-1,-1,0
3,12,20,F,2,1,1,8,7,2,2,2865,0,-1,-1,-1,1
3,12,20,F,2,1,1,9,9,3,3,3032,0,-1,-1,-1,0
3,12,20,F,2,1,1,10,9,2,2,1565,0,-1,-1,-1,0
3,12,20,F,2,1,1,11,7,1,1,3076,0,-1,-1,-1,0
3,12,20,F,2,1,1,12,9,4,4,3287,0,-1,-1,-1,1
3,12,20,F,2,1,1,13,10,1,1,1676,0,-1,-1,-1,0
3,12,20,F,2,1,1,14,8,2,2,2865,0,-1,-1,-1,0
3,12,20,F,2,1,1,15,10,3,3,2843,0,-1,-1,-1,1
3,12,20,F,2,1,1,16,8,4,4,4632,0,-1,-1,-1,1
3,13,20,M,1,1,1,1,5,1,1,2787,0,0.535111,6.538645,4.533281,-1
3,13,20,M,1,1,1,2,1,2,2,1954,0,0.4534212,6.58833,3.778542,-1
3,13,20,M,1,1,1,3,2,1,1,9999,0,-1,-1,-1,-1
3,13,20,M,1,1,1,4,6,2,2,8931,1,0.3368646,12.52273,1.503891,-1
3,13,20,M,1,1,1,5,2,3,3,3010,0,0.6051506,12.5784,2.711517,-1
3,13,20,M,1,1,1,6,6,4,4,3021,0,0.8037356,12.53023,3.578342,-1
3,13,20,M,1,1,1,7,1,3,3,4187,0,0.500989,6.575578,4.18081,-1
3,13,20,M,1,1,1,8,2,4,4,5698,1,0.4390826,12.5821,1.974173,-1
3,13,20,M,1,1,1,9,1,1,1,2143,0,0.2520045,6.552413,2.102079,-1
3,13,20,M,1,1,1,10,2,2,2,1366,0,0.5868017,12.57348,2.61711,-1
3,13,20,M,1,1,1,11,6,3,3,3076,0,0.8098189,12.57702,3.574729,-1
3,13,20,M,1,1,1,12,6,1,1,1621,0,0.7837825,12.56219,3.528587,-1
3,13,20,M,1,1,1,13,5,3,3,7131,3,0.322422,6.564798,2.670931,-1
3,13,20,M,1,1,1,14,1,4,4,2810,0,0.4828897,6.586299,4.025209,-1
3,13,20,M,1,1,1,15,5,2,2,2099,1,5.304237e-8,6.605532,0,-1
3,13,20,M,1,1,1,16,5,4,4,3943,1,0.1539184,6.603771,1.289375,-1
3,13,20,M,2,1,1,1,1,6,2,2354,0,0.3011829,6.607236,2.501472,-1
3,13,20,M,2,1,1,2,5,8,4,3165,0,0.4130026,6.604209,3.440028,-1
3,13,20,M,2,1,1,3,1,7,3,3787,1,0.4763831,6.57937,3.972664,-1
3,13,20,M,2,1,1,4,1,8,4,2310,0,0.4098807,6.595864,3.410936,-1
3,13,20,M,2,1,1,5,6,5,1,2454,0,0.01754064,12.62035,0.07912937,-1
3,13,20,M,2,1,1,6,2,6,2,1387,0,0.5590901,12.57383,2.491594,-1
3,13,20,M,2,1,1,7,6,7,3,4131,0,0.1405134,12.61199,0.6258884,-1
3,13,20,M,2,1,1,8,5,5,1,1643,0,4.536154e-4,6.576867,0.01978234,-1
3,13,20,M,2,1,1,9,2,8,4,5131,0,0.4192079,12.59649,1.866135,-1
3,13,20,M,2,1,1,10,6,6,2,1521,0,0.7873789,12.54998,3.515691,-1
3,13,20,M,2,1,1,11,2,5,1,2921,0,0.229064,12.57612,1.020867,-1
3,13,20,M,2,1,1,12,5,6,2,7234,5,5.35521e-8,6.63923,0,-1
3,13,20,M,2,1,1,13,2,7,3,2703,0,0.3547681,12.6229,1.585603,-1
3,13,20,M,2,1,1,14,1,5,1,1477,0,1.70032e-7,6.590936,0,-1
3,13,20,M,2,1,1,15,5,7,3,6277,3,0.2997372,6.603145,2.527007,-1
3,13,20,M,2,1,1,16,6,8,4,2687,0,0.03084652,12.58655,0.1384764,-1
3,13,20,M,3,1,1,1,5,10,2,2065,0,0.4631251,6.619831,3.793283,-1
3,13,20,M,3,1,1,2,6,11,3,7054,1,0.2547744,12.62483,1.130731,-1
3,13,20,M,3,1,1,3,1,10,2,6232,0,0.05400695,6.623857,0.4480613,-1
3,13,20,M,3,1,1,4,5,9,1,1476,0,0.213158,6.613858,1.789254,-1
3,13,20,M,3,1,1,5,6,12,4,3376,0,1.518326e-7,12.61567,0,-1
3,13,20,M,3,1,1,6,2,10,2,1554,0,0.340039,12.59347,1.514266,-1
3,13,20,M,3,1,1,7,1,11,3,5620,2,1.853477e-7,6.591637,0,-1
3,13,20,M,3,1,1,8,1,9,1,1887,0,1.376034e-7,6.58681,0,-1
3,13,20,M,3,1,1,9,5,12,4,2899,1,0.4298756,6.628278,3.597279,-1
3,13,20,M,3,1,1,10,2,11,3,3332,0,4.9738e-8,12.62711,0,-1
3,13,20,M,3,1,1,11,6,10,2,7498,0,0.1508606,12.59408,0.6723125,-1
3,13,20,M,3,1,1,12,2,12,4,2388,0,0.6709759,12.61747,2.979073,-1
3,13,20,M,3,1,1,13,2,9,1,7531,0,0.887871,12.58368,4.009904,-1
3,13,20,M,3,1,1,14,5,11,3,4698,2,0.5022622,6.603619,4.178421,-1
3,13,20,M,3,1,1,15,1,12,4,2654,0,0.4126242,6.611164,3.425598,-1
3,13,20,M,3,1,1,16,6,9,1,1710,0,0.8081691,12.64186,3.638788,-1
3,13,20,M,4,1,1,1,2,14,2,1510,0,1.499801e-7,12.61194,0,-1
3,13,20,M,4,1,1,2,1,16,4,2699,1,0.2983967,6.625593,2.451123,-1
3,13,20,M,4,1,1,3,1,14,2,8231,0,0.2675604,6.635735,2.213197,-1
3,13,20,M,4,1,1,4,1,15,3,4531,1,0.1492232,6.603558,1.250857,-1
3,13,20,M,4,1,1,5,6,13,1,5999,0,0.5932223,12.63008,2.62689,-1
3,13,20,M,4,1,1,6,5,14,2,5643,4,0.3913623,6.621248,3.240632,-1
3,13,20,M,4,1,1,7,2,15,3,4765,0,0.1897891,12.62846,0.8413968,-1
3,13,20,M,4,1,1,8,2,13,1,3365,0,0.7089106,12.60724,3.129878,-1
3,13,20,M,4,1,1,9,2,16,4,2465,0,0.51455,12.63891,2.281991,-1
3,13,20,M,4,1,1,10,6,15,3,2766,1,0.9747243,12.63402,4.312252,-1
3,13,20,M,4,1,1,11,1,13,1,1499,0,0.2443735,6.617152,2.025841,-1
3,13,20,M,4,1,1,12,6,16,4,4421,1,0.02703406,12.63096,0.1186941,-1
3,13,20,M,4,1,1,13,5,15,3,4276,0,0.5124938,6.585479,4.303113,-1
3,13,20,M,4,1,1,14,5,13,1,1299,0,0.3521706,6.64352,2.920541,-1
3,13,20,M,4,1,1,15,6,14,2,1299,0,0.4309408,12.58505,1.904337,-1
3,13,20,M,4,1,1,16,5,16,4,5254,2,0.5147924,6.612475,4.27448,-1
3,13,20,M,5,1,1,1,5,18,2,2999,2,0.2916839,6.641921,2.406396,-1
3,13,20,M,5,1,1,2,1,17,1,2454,1,0.4658594,6.602139,3.859453,-1
3,13,20,M,5,1,1,3,6,18,2,4043,0,0.9420611,12.61471,4.176967,-1
3,13,20,M,5,1,1,4,1,19,3,8432,5,0.2654997,6.607501,2.219026,-1
3,13,20,M,5,1,1,5,6,20,4,5643,0,0.9640137,12.63411,4.273793,-1
3,13,20,M,5,1,1,6,6,19,3,3054,0,0.5919737,12.63939,2.621594,-1
3,13,20,M,5,1,1,7,6,17,1,1221,0,0.25709,12.61806,1.139179,-1
3,13,20,M,5,1,1,8,2,18,2,1410,0,0.3508103,12.61331,1.559845,-1
3,13,20,M,5,1,1,9,5,20,4,3954,1,0.5229858,6.597226,4.383204,-1
3,13,20,M,5,1,1,10,5,19,3,5676,3,0.3991297,6.575739,3.376147,-1
3,13,20,M,5,1,1,11,5,17,1,2021,0,0.06802294,6.609676,0.5626699,-1
3,13,20,M,5,1,1,12,1,18,2,2354,0,0.4304523,6.643774,3.537565,-1
3,13,20,M,5,1,1,13,1,20,4,3920,1,0.5023459,6.60851,4.19708,-1
3,13,20,M,5,1,1,14,2,17,1,5620,1,0.8733091,12.59142,3.936167,-1
3,13,20,M,5,1,1,15,2,20,4,2265,0,0.547578,12.62931,2.443044,-1
3,13,20,M,5,1,1,16,2,19,3,4432,0,0.1626319,12.63491,0.7246976,-1
3,13,20,M,6,1,1,1,6,24,4,2266,0,0.4282487,12.63243,1.923357,-1
3,13,20,M,6,1,1,2,6,21,1,1943,0,0.509132,12.60297,2.259061,-1
3,13,20,M,6,1,1,3,5,23,3,2876,1,0.3690436,6.605259,3.067842,-1
3,13,20,M,6,1,1,4,2,22,2,5543,0,0.1912737,12.60094,0.8517979,-1
3,13,20,M,6,1,1,5,2,21,1,6565,0,0.7976184,12.59168,3.588451,-1
3,13,20,M,6,1,1,6,1,24,4,2854,0,0.3658657,6.606129,3.036607,-1
3,13,20,M,6,1,1,7,1,22,2,6742,0,0.09807908,6.633554,0.8106001,-1
3,13,20,M,6,1,1,8,2,24,4,5510,1,0.5586797,12.63162,2.505225,-1
3,13,20,M,6,1,1,9,2,23,3,2365,0,0.8512758,12.62645,3.812643,-1
3,13,20,M,6,1,1,10,6,22,2,1532,0,0.540521,12.59961,2.405582,-1
3,13,20,M,6,1,1,11,1,23,3,4254,1,0.2974655,6.604263,2.493949,-1
3,13,20,M,6,1,1,12,5,22,2,1810,0,0.4664285,6.597929,3.815261,-1
3,13,20,M,6,1,1,13,5,24,4,2909,0,0.5430173,6.597537,4.55135,-1
3,13,20,M,6,1,1,14,1,21,1,1408,0,0.1346055,6.609995,1.118726,-1
3,13,20,M,6,1,1,15,6,23,3,2410,0,0.2141366,12.59648,0.9553158,-1
3,13,20,M,6,1,1,16,5,21,1,2932,0,0.4543019,6.640937,3.767332,-1
3,13,20,M,7,1,1,1,5,26,2,1921,0,0.3458573,6.591625,2.840349,-1
3,13,20,M,7,1,1,2,2,27,3,2331,0,0.483721,12.6246,2.140735,-1
3,13,20,M,7,1,1,3,6,28,4,1698,0,0.7920694,12.5763,3.514409,-1
3,13,20,M,7,1,1,4,1,25,1,1499,0,0.4880128,6.609156,4.051734,-1
3,13,20,M,7,1,1,5,5,27,3,5698,3,0.2974426,6.591298,2.508504,-1
3,13,20,M,7,1,1,6,6,25,1,2065,0,0.3799638,12.59846,1.688759,-1
3,13,20,M,7,1,1,7,6,27,3,2065,0,1.278374e-7,12.60749,0,-1
3,13,20,M,7,1,1,8,2,25,1,1743,0,0.4879846,12.60705,2.161932,-1
3,13,20,M,7,1,1,9,1,28,4,5109,3,2.501403e-7,6.623631,0.01978234,-1
3,13,20,M,7,1,1,10,1,27,3,3665,0,0.3041084,6.597828,2.535744,-1
3,13,20,M,7,1,1,11,1,26,2,5076,0,0.4851365,6.629769,3.997284,-1
3,13,20,M,7,1,1,12,5,25,1,1410,0,0.5639627,6.642306,4.678683,-1
3,13,20,M,7,1,1,13,5,28,4,1976,0,0.3774091,6.592098,3.163721,-1
3,13,20,M,7,1,1,14,2,26,2,1587,0,0.7003959,12.59578,3.118662,-1
3,13,20,M,7,1,1,15,2,28,4,1566,0,0.5622448,12.62465,2.532346,-1
3,13,20,M,7,1,1,16,6,26,2,1343,0,1.293866e-7,12.60207,0,-1
3,13,20,M,8,1,1,1,2,32,4,1543,0,0.6201947,12.62301,2.799672,-1
3,13,20,M,8,1,1,2,5,31,3,3298,0,0.4550148,6.611338,3.802512,-1
3,13,20,M,8,1,1,3,6,32,4,3032,0,0.9701332,12.61105,4.310662,-1
3,13,20,M,8,1,1,4,5,29,1,1288,0,1.091257e-7,6.631917,0,-1
3,13,20,M,8,1,1,5,2,31,3,2243,0,0.4981363,12.6225,2.230638,-1
3,13,20,M,8,1,1,6,1,30,2,3154,2,0.2952983,6.637104,2.439115,-1
3,13,20,M,8,1,1,7,2,29,1,4565,0,0.5591326,12.59225,2.492379,-1
3,13,20,M,8,1,1,8,2,30,2,1110,0,0.6462905,12.59756,2.87678,-1
3,13,20,M,8,1,1,9,6,29,1,1376,0,0.6169439,12.63163,2.771493,-1
3,13,20,M,8,1,1,10,5,30,2,2665,2,0.2929845,6.639414,2.402081,-1
3,13,20,M,8,1,1,11,6,31,3,1809,0,0.3777633,12.62805,1.687484,-1
3,13,20,M,8,1,1,12,6,30,2,4365,0,0.3470834,12.57687,1.54535,-1
3,13,20,M,8,1,1,13,1,32,4,3787,0,0.5537571,6.598596,4.608277,-1
3,13,20,M,8,1,1,14,1,31,3,3621,1,0.3159577,6.587725,2.638711,-1
3,13,20,M,8,1,1,15,1,29,1,1365,0,0.1205603,6.605203,1.002882,-1
3,13,20,M,8,1,1,16,5,32,4,3176,0,0.5582449,6.60328,4.642538,-1
3,13,20,M,9,1,1,1,6,35,3,3565,0,0.05931552,12.64665,0.2639296,-1
3,13,20,M,9,1,1,2,5,33,1,2065,1,0.2818144,6.607149,2.31046,-1
3,13,20,M,9,1,1,3,1,34,2,4065,3,0.5010509,6.648629,4.139383,-1
3,13,20,M,9,1,1,4,1,35,3,3365,0,0.185778,6.60851,1.555196,-1
3,13,20,M,9,1,1,5,5,34,2,1499,0,0.2579754,6.628186,2.132399,-1
3,13,20,M,9,1,1,6,2,33,1,4820,0,0.1509912,12.60124,0.6731851,-1
3,13,20,M,9,1,1,7,5,36,4,4932,2,1.917134e-8,6.613314,0,-1
3,13,20,M,9,1,1,8,2,34,2,1243,0,0.3530494,12.60131,1.578924,-1
3,13,20,M,9,1,1,9,2,35,3,2077,0,0.1842416,12.6358,0.8235324,-1
3,13,20,M,9,1,1,10,1,33,1,1543,0,0.1344907,6.604041,1.115749,-1
3,13,20,M,9,1,1,11,1,36,4,3521,0,0.4164309,6.605608,3.459891,-1
3,13,20,M,9,1,1,12,5,35,3,3776,0,2.268014e-7,6.598368,0,-1
3,13,20,M,9,1,1,13,2,36,4,1510,0,3.511424e-8,12.63683,0,-1
3,13,20,M,9,1,1,14,6,33,1,2832,0,0.3744301,12.60208,1.667535,-1
3,13,20,M,9,1,1,15,6,34,2,1254,0,1.069047,12.61773,4.74483,-1
3,13,20,M,9,1,1,16,6,36,4,4221,1,0.727435,12.62529,3.264288,-1
3,13,20,M,10,1,1,1,5,39,3,3610,0,0.2600387,6.60219,2.162203,-1
3,13,20,M,10,1,1,2,2,38,2,1821,1,0.19487,12.59743,0.8656976,-1
3,13,20,M,10,1,1,3,2,37,1,2176,0,0.7036902,12.59784,3.115899,-1
3,13,20,M,10,1,1,4,6,40,4,1521,0,0.8724762,12.56693,3.933231,-1
3,13,20,M,10,1,1,5,6,37,1,1699,0,0.8715968,12.59581,3.939748,-1
3,13,20,M,10,1,1,6,2,40,4,2377,0,0.6898625,12.62112,3.111246,-1
3,13,20,M,10,1,1,7,6,39,3,2998,0,5.32411e-8,12.62631,0,-1
3,13,20,M,10,1,1,8,5,38,2,2843,0,0.1023608,6.625892,0.845804,-1
3,13,20,M,10,1,1,9,1,39,3,3865,0,0.1900317,6.588572,1.581153,-1
3,13,20,M,10,1,1,10,1,37,1,1276,0,2.965579e-8,6.601598,0,-1
3,13,20,M,10,1,1,11,1,40,4,3176,0,0.06013148,6.604449,0.4992853,-1
3,13,20,M,10,1,1,12,2,39,3,2310,0,0.3441625,12.6265,1.537606,-1
3,13,20,M,10,1,1,13,1,38,2,2543,1,0.2461285,6.643064,2.025841,-1
3,13,20,M,10,1,1,14,5,37,1,1788,0,0.08742486,6.625176,0.7228051,-1
3,13,20,M,10,1,1,15,5,40,4,3032,0,0.5177354,6.59643,4.31198,-1
3,13,20,M,10,1,1,16,6,38,2,1332,0,0.516865,12.59541,2.288243,-1
3,13,20,M,11,1,1,1,6,43,3,1876,0,0.9756446,12.59122,4.390347,-1
3,13,20,M,11,1,1,2,3,42,2,1688,0,0.5116262,6.630128,4.23836,-1
3,13,20,M,11,1,1,3,3,43,3,2787,0,0.4871362,6.597928,4.078183,-1
3,13,20,M,11,1,1,4,5,44,4,2687,0,0.5323781,6.583466,4.471375,-1
3,13,20,M,11,1,1,5,3,41,1,2699,1,9.184932e-8,6.591448,0,-1
3,13,20,M,11,1,1,6,4,44,4,6987,0,0.9493978,12.61679,4.249989,-1
3,13,20,M,11,1,1,7,5,42,2,2087,0,0.5583153,6.627202,4.609297,-1
3,13,20,M,11,1,1,8,6,41,1,3554,0,0.3489798,12.63006,1.563855,-1
3,13,20,M,11,1,1,9,6,44,4,1743,0,0.2938839,12.58411,1.317153,-1
3,13,20,M,11,1,1,10,6,42,2,1721,0,0.499092,12.58769,2.220261,-1
3,13,20,M,11,1,1,11,4,41,1,2632,0,0.5786451,12.58833,2.593519,-1
3,13,20,M,11,1,1,12,4,43,3,2265,0,0.9553365,12.62956,4.278556,-1
3,13,20,M,11,1,1,13,3,44,4,4254,0,0.4596203,6.595952,3.825103,-1
3,13,20,M,11,1,1,14,4,42,2,3698,0,0.5927544,12.59403,2.627486,-1
3,13,20,M,11,1,1,15,5,41,1,3954,1,0.293947,6.592813,2.43759,-1
3,13,20,M,11,1,1,16,5,43,3,3854,2,0.4912391,6.564142,4.10985,-1
3,13,20,M,12,1,1,1,4,46,2,3521,0,0.3358028,12.59111,1.504412,-1
3,13,20,M,12,1,1,2,4,48,4,9999,0,-1,-1,-1,-1
3,13,20,M,12,1,1,3,6,46,2,1787,0,0.09105518,12.59394,0.4059006,-1
3,13,20,M,12,1,1,4,4,47,3,3076,0,0.321064,12.62137,1.433268,-1
3,13,20,M,12,1,1,5,4,45,1,2765,0,0.1370059,12.59003,0.6113381,-1
3,13,20,M,12,1,1,6,5,47,3,4732,2,0.5611063,6.561739,4.69757,-1
3,13,20,M,12,1,1,7,3,48,4,3343,0,0.3317302,6.599221,2.758609,-1
3,13,20,M,12,1,1,8,6,45,1,4687,3,0.4821616,12.6172,2.144754,-1
3,13,20,M,12,1,1,9,6,48,4,2710,0,0.3971087,12.62689,1.783118,-1
3,13,20,M,12,1,1,10,5,45,1,2276,0,2.33576e-8,6.600142,0,-1
3,13,20,M,12,1,1,11,6,47,3,2298,0,0.58398,12.59897,2.616886,-1
3,13,20,M,12,1,1,12,3,45,1,1754,0,0.0597223,6.592696,0.4985009,-1
3,13,20,M,12,1,1,13,3,47,3,3309,0,0.4851559,6.597966,4.063848,-1
3,13,20,M,12,1,1,14,3,46,2,2965,1,0.1772256,6.637938,1.462863,-1
3,13,20,M,12,1,1,15,5,48,4,3343,0,0.4461179,6.621288,3.737588,-1
3,13,20,M,12,1,1,16,5,46,2,1810,1,0.2679172,6.628925,2.201049,-1
3,13,20,M,13,1,1,1,4,49,1,4754,0,0.6834452,12.5909,3.045104,-1
3,13,20,M,13,1,1,2,3,50,2,2354,1,0.2823675,6.637486,2.335148,-1
3,13,20,M,13,1,1,3,6,51,3,2509,0,0.9881439,12.61807,4.375824,-1
3,13,20,M,13,1,1,4,5,52,4,2376,0,0.3153279,6.600941,2.639898,-1
3,13,20,M,13,1,1,5,4,51,3,1399,0,0.4129595,12.63954,1.826813,-1
3,13,20,M,13,1,1,6,4,52,4,1299,0,1.039525,12.62417,4.608574,-1
3,13,20,M,13,1,1,7,5,50,2,2698,2,0.5399724,6.626484,4.467957,-1
3,13,20,M,13,1,1,8,6,52,4,3643,0,0.657887,12.62238,2.964449,-1
3,13,20,M,13,1,1,9,4,50,2,2554,0,0.6744261,12.59689,2.98911,-1
3,13,20,M,13,1,1,10,6,49,1,2176,0,0.6937384,12.6259,3.066693,-1
3,13,20,M,13,1,1,11,3,51,3,5532,2,0.2521479,6.611578,2.100961,-1
3,13,20,M,13,1,1,12,3,49,1,2387,1,0.164194,6.593135,1.363149,-1
3,13,20,M,13,1,1,13,5,51,3,2965,0,0.5550448,6.60681,4.655515,-1
3,13,20,M,13,1,1,14,5,49,1,1598,0,0.08017799,6.587783,0.6664661,-1
3,13,20,M,13,1,1,15,6,50,2,1177,0,0.7051877,12.57421,3.12581,-1
3,13,20,M,13,1,1,16,3,52,4,3543,0,0.3239901,6.602859,2.692609,-1
3,13,20,M,14,1,1,1,6,53,1,2209,0,0.7600921,12.59662,3.359462,-1
3,13,20,M,14,1,1,2,4,54,2,3065,0,0.4627092,12.59958,2.047462,-1
3,13,20,M,14,1,1,3,4,56,4,1643,0,0.71478,12.63259,3.202957,-1
3,13,20,M,14,1,1,4,5,53,1,2043,0,1.612915e-7,6.61796,0,-1
3,13,20,M,14,1,1,5,4,55,3,3654,0,0.5096298,12.62502,2.281647,-1
3,13,20,M,14,1,1,6,3,53,1,2132,0,0.1698547,6.596272,1.411808,-1
3,13,20,M,14,1,1,7,3,56,4,4887,2,0.1453805,6.604359,1.214343,-1
3,13,20,M,14,1,1,8,5,55,3,3109,0,0.3397477,6.575302,2.855539,-1
3,13,20,M,14,1,1,9,6,54,2,1977,0,0.4136432,12.6134,1.8426,-1
3,13,20,M,14,1,1,10,6,55,3,2754,0,0.6551425,12.59774,2.934716,-1
3,13,20,M,14,1,1,11,6,56,4,3010,0,0.6162512,12.61595,2.766898,-1
3,13,20,M,14,1,1,12,5,54,2,6265,0,0.09517322,6.637136,0.7853427,-1
3,13,20,M,14,1,1,13,3,55,3,3909,0,0.3485901,6.600305,2.924627,-1
3,13,20,M,14,1,1,14,3,54,2,1976,0,0.208046,6.635257,1.717372,-1
3,13,20,M,14,1,1,15,5,56,4,2765,0,0.09735379,6.582904,0.8139727,-1
3,13,20,M,14,1,1,16,4,53,1,4976,0,0.2014939,12.59157,0.8954742,-1
3,13,20,M,15,1,1,1,5,59,3,3932,0,0.3538592,6.58476,2.949089,-1
3,13,20,M,15,1,1,2,5,60,4,3287,1,0.5365473,6.59321,4.468395,-1
3,13,20,M,15,1,1,3,3,59,3,3310,0,0.05323593,6.592292,0.4463111,-1
3,13,20,M,15,1,1,4,5,57,1,1665,0,0.2253031,6.60041,1.871267,-1
3,13,20,M,15,1,1,5,3,58,2,4565,1,0.3963681,6.62635,3.284199,-1
3,13,20,M,15,1,1,6,4,60,4,1521,0,0.8309846,12.61372,3.748051,-1
3,13,20,M,15,1,1,7,4,57,1,2810,0,0.798187,12.58583,3.542487,-1
3,13,20,M,15,1,1,8,4,58,2,1443,0,0.7652791,12.58991,3.394134,-1
3,13,20,M,15,1,1,9,4,59,3,2254,0,0.1881523,12.61599,0.8406988,-1
3,13,20,M,15,1,1,10,6,58,2,2065,1,0.667982,12.59013,2.961608,-1
3,13,20,M,15,1,1,11,3,57,1,1599,0,0.1983066,6.594306,1.643896,-1
3,13,20,M,15,1,1,12,6,60,4,1554,0,0.3784316,12.60806,1.695583,-1
3,13,20,M,15,1,1,13,6,59,3,3287,0,0.5148355,12.62525,2.306644,-1
3,13,20,M,15,1,1,14,3,60,4,2843,0,0.23556,6.598477,1.958747,-1
3,13,20,M,15,1,1,15,6,57,1,1798,0,0.1152417,12.61865,0.5143426,-1
3,13,20,M,15,1,1,16,5,58,2,3276,1,0.09854735,6.592517,0.8161334,-1
3,13,20,M,16,1,1,1,3,64,4,3121,0,0.2523631,6.587512,2.101707,-1
3,13,20,M,16,1,1,2,3,63,3,3810,1,0.5328012,6.58329,4.441134,-1
3,13,20,M,16,1,1,3,6,62,2,1232,0,0.8095881,12.56656,3.602664,-1
3,13,20,M,16,1,1,4,6,64,4,1610,0,0.4376447,12.61084,1.963537,-1
3,13,20,M,16,1,1,5,4,62,2,2843,0,0.2027517,12.58751,0.9024397,-1
3,13,20,M,16,1,1,6,3,61,1,1576,0,0.2708435,6.594806,2.24533,-1
3,13,20,M,16,1,1,7,5,62,2,1376,0,0.3293066,6.628969,2.727065,-1
3,13,20,M,16,1,1,8,4,64,4,2399,1,0.7055128,12.62329,3.166381,-1
3,13,20,M,16,1,1,9,4,63,3,1998,0,0.5595314,12.61235,2.509129,-1
3,13,20,M,16,1,1,10,3,62,2,7231,0,0.2809705,6.627461,2.32591,-1
3,13,20,M,16,1,1,11,5,61,1,1332,0,0.163854,6.590945,1.359843,-1
3,13,20,M,16,1,1,12,5,64,4,4676,0,0.3267828,6.578244,2.714403,-1
3,13,20,M,16,1,1,13,4,61,1,5876,0,0.6145974,12.58024,2.750792,-1
3,13,20,M,16,1,1,14,5,63,3,6154,3,0.3138226,6.586169,2.598797,-1
3,13,20,M,16,1,1,15,6,61,1,1209,0,1.022085,12.62435,4.615752,-1
3,13,20,M,16,1,1,16,6,63,3,7265,6,0.5599023,12.59647,2.482937,-1
3,13,20,M,17,1,1,1,6,66,2,2298,0,0.2597787,12.58566,1.157752,-1
3,13,20,M,17,1,1,2,5,65,1,1598,0,0.1697152,6.617079,1.405278,-1
3,13,20,M,17,1,1,3,4,66,2,1643,0,0.3164637,12.58498,1.410143,-1
3,13,20,M,17,1,1,4,4,65,1,2665,0,0.6731037,12.58234,2.989241,-1
3,13,20,M,17,1,1,5,6,68,4,1621,0,0.6816088,12.60209,3.025951,-1
3,13,20,M,17,1,1,6,5,67,3,2776,0,0.2768717,6.583875,2.294052,-1
3,13,20,M,17,1,1,7,6,65,1,1421,0,0.9985009,12.60201,4.478466,-1
3,13,20,M,17,1,1,8,5,66,2,2631,1,0.2062122,6.579024,1.702034,-1
3,13,20,M,17,1,1,9,3,68,4,3732,1,0.4209638,6.596141,3.500342,-1
3,13,20,M,17,1,1,10,6,67,3,1654,0,0.6947676,12.58164,3.099331,-1
3,13,20,M,17,1,1,11,4,68,4,1887,0,0.3295484,12.61011,1.477902,-1
3,13,20,M,17,1,1,12,4,67,3,2809,0,0.1003098,12.61091,0.4458725,-1
3,13,20,M,17,1,1,13,3,66,2,2076,0,0.07498602,6.615875,0.6221254,-1
3,13,20,M,17,1,1,14,3,65,1,1332,0,0.02638331,6.580574,0.220287,-1
3,13,20,M,17,1,1,15,5,68,4,3343,0,0.3566636,6.593171,2.966957,-1
3,13,20,M,17,1,1,16,3,67,3,5109,2,0.5572526,6.572375,4.733172,-1
3,13,20,M,18,1,1,1,4,72,4,1454,0,0.5503966,12.60674,2.483962,-1
3,13,20,M,18,1,1,2,3,71,3,3187,0,0.409081,6.574749,3.427198,-1
3,13,20,M,18,1,1,3,6,70,2,2299,0,0.9508967,12.55442,4.239747,-1
3,13,20,M,18,1,1,4,6,71,3,2210,0,0.659507,12.58125,2.961608,-1
3,13,20,M,18,1,1,5,4,69,1,2287,0,0.5923665,12.57304,2.656307,-1
3,13,20,M,18,1,1,6,3,70,2,2398,1,0.3669704,6.616723,3.044719,-1
3,13,20,M,18,1,1,7,6,69,1,7142,3,0.7320453,12.57095,3.279367,-1
3,13,20,M,18,1,1,8,6,72,4,1876,0,0.8082539,12.60353,3.656716,-1
3,13,20,M,18,1,1,9,3,69,1,1321,0,0.3183,6.575994,2.67993,-1
3,13,20,M,18,1,1,10,3,72,4,2732,0,0.338909,6.595901,2.834968,-1
3,13,20,M,18,1,1,11,4,70,2,2865,0,0.3057729,12.57576,1.357394,-1
3,13,20,M,18,1,1,12,5,72,4,4931,2,0.1143948,6.601483,0.9505931,-1
3,13,20,M,18,1,1,13,4,71,3,3798,2,0.8009705,12.6001,3.587578,-1
3,13,20,M,18,1,1,14,5,70,2,3976,0,0.3720636,6.575618,3.063755,-1
3,13,20,M,18,1,1,15,5,71,3,3943,1,0.3504668,6.561115,2.947496,-1
3,13,20,M,18,1,1,16,5,69,1,6154,0,0.3208121,6.570788,2.707037,-1
3,13,20,M,1,1,1,1,7,1,1,4865,0,-1,-1,-1,1
3,13,20,M,1,1,1,2,9,4,4,7042,0,-1,-1,-1,1
3,13,20,M,1,1,1,3,8,1,1,4210,0,-1,-1,-1,0
3,13,20,M,1,1,1,4,9,2,2,3087,0,-1,-1,-1,0
3,13,20,M,1,1,1,5,9,1,1,5842,0,-1,-1,-1,0
3,13,20,M,1,1,1,6,10,3,3,4098,0,-1,-1,-1,1
3,13,20,M,1,1,1,7,7,4,4,3198,0,-1,-1,-1,0
3,13,20,M,1,1,1,8,9,3,3,5287,0,-1,-1,-1,1
3,13,20,M,1,1,1,9,10,1,1,1332,0,-1,-1,-1,0
3,13,20,M,1,1,1,10,8,2,2,4209,0,-1,-1,-1,0
3,13,20,M,1,1,1,11,8,4,4,5098,0,-1,-1,-1,0
3,13,20,M,1,1,1,12,7,3,3,7620,0,-1,-1,-1,1
3,13,20,M,1,1,1,13,7,2,2,2532,0,-1,-1,-1,0
3,13,20,M,1,1,1,14,8,3,3,3732,0,-1,-1,-1,0
3,13,20,M,1,1,1,15,10,2,2,4032,0,-1,-1,-1,0
3,13,20,M,1,1,1,16,10,4,4,2898,0,-1,-1,-1,1
3,13,20,M,2,1,1,1,9,3,3,4421,0,-1,-1,-1,0
3,13,20,M,2,1,1,2,7,1,1,2888,0,-1,-1,-1,0
3,13,20,M,2,1,1,3,7,3,3,5121,0,-1,-1,-1,0
3,13,20,M,2,1,1,4,7,2,2,4343,0,-1,-1,-1,0
3,13,20,M,2,1,1,5,9,4,4,4521,0,-1,-1,-1,1
3,13,20,M,2,1,1,6,9,2,2,4609,0,-1,-1,-1,1
3,13,20,M,2,1,1,7,10,3,3,5343,0,-1,-1,-1,1
3,13,20,M,2,1,1,8,8,2,2,5054,0,-1,-1,-1,1
3,13,20,M,2,1,1,9,8,1,1,3676,0,-1,-1,-1,0
3,13,20,M,2,1,1,10,10,2,2,3498,0,-1,-1,-1,0
3,13,20,M,2,1,1,11,10,4,4,5010,0,-1,-1,-1,0
3,13,20,M,2,1,1,12,8,3,3,4632,0,-1,-1,-1,0
3,13,20,M,2,1,1,13,7,4,4,5209,0,-1,-1,-1,0
3,13,20,M,2,1,1,14,9,1,1,4421,0,-1,-1,-1,0
3,13,20,M,2,1,1,15,8,4,4,5709,0,-1,-1,-1,0
3,13,20,M,2,1,1,16,10,1,1,4754,0,-1,-1,-1,1
3,14,22,F,1,1,1,1,2,1,1,4410,0,0.4523549,12.49919,2.038265,-1
3,14,22,F,1,1,1,2,6,3,3,1876,0,0.4552872,12.44242,2.045071,-1
3,14,22,F,1,1,1,3,6,1,1,3176,0,6.550385e-8,12.52555,0,-1
3,14,22,F,1,1,1,4,2,2,2,2888,1,0.7892112,12.42594,3.554406,-1
3,14,22,F,1,1,1,5,5,3,3,3831,1,0.3552873,6.433266,2.997546,-1
3,14,22,F,1,1,1,6,5,4,4,9999,6,-1,-1,-1,-1
3,14,22,F,1,1,1,7,6,2,2,9999,3,-1,-1,-1,-1
3,14,22,F,1,1,1,8,2,3,3,4443,3,0.9023595,12.44378,4.122601,-1
3,14,22,F,1,1,1,9,2,4,4,8031,6,0.2655152,12.43118,1.186632,-1
3,14,22,F,1,1,1,10,1,2,2,1954,0,0.1387248,6.474179,1.175864,-1
3,14,22,F,1,1,1,11,1,1,1,4065,0,0.4383655,6.444345,3.717522,-1
3,14,22,F,1,1,1,12,6,4,4,2287,0,0.7018168,12.4396,3.144107,-1
3,14,22,F,1,1,1,13,5,2,2,2510,1,0.4150096,6.472466,3.516582,-1
3,14,22,F,1,1,1,14,5,1,1,3321,0,0.141595,6.439106,1.193374,-1
3,14,22,F,1,1,1,15,1,4,4,4654,2,0.1713884,6.479326,1.435042,-1
3,14,22,F,1,1,1,16,1,3,3,2677,0,0.2686496,6.434705,2.267708,-1
3,14,22,F,2,1,1,1,2,5,1,1610,0,0.6996813,12.50751,3.185121,-1
3,14,22,F,2,1,1,2,6,7,3,1810,1,0.2778481,12.42433,1.245684,-1
3,14,22,F,2,1,1,3,5,8,4,1932,0,0.2345274,6.470383,1.959047,-1
3,14,22,F,2,1,1,4,5,5,1,3588,1,0.3968633,6.44036,3.409271,-1
3,14,22,F,2,1,1,5,2,8,4,3421,1,0.5258071,12.42506,2.395227,-1
3,14,22,F,2,1,1,6,1,7,3,2043,0,0.06545062,6.434125,0.5517841,-1
3,14,22,F,2,1,1,7,1,8,4,3576,2,0.1629325,6.485752,1.367592,-1
3,14,22,F,2,1,1,8,6,6,2,1299,0,0.7686654,12.3909,3.44776,-1
3,14,22,F,2,1,1,9,2,7,3,9999,0,-1,-1,-1,-1
3,14,22,F,2,1,1,10,2,6,2,1132,0,0.5800585,12.44184,2.636188,-1
3,14,22,F,2,1,1,11,6,5,1,1776,0,0.02026522,12.48449,0.09065409,-1
3,14,22,F,2,1,1,12,5,7,3,3165,0,0.01290307,6.442835,0.1083524,-1
3,14,22,F,2,1,1,13,1,6,2,4387,3,0.1089082,6.482646,0.9270402,-1
3,14,22,F,2,1,1,14,1,5,1,3943,1,0.03163547,6.447941,0.268341,-1
3,14,22,F,2,1,1,15,5,6,2,1921,0,0.3542627,6.477552,2.982357,-1
3,14,22,F,2,1,1,16,6,8,4,9098,0,0.737194,12.49037,3.336715,-1
3,14,22,F,3,1,1,1,5,11,3,3976,0,0.3832269,6.481661,3.259547,-1
3,14,22,F,3,1,1,2,2,12,4,3710,0,0.4245516,12.4341,1.896201,-1
3,14,22,F,3,1,1,3,2,11,3,2121,0,0.4419645,12.46236,2.004084,-1
3,14,22,F,3,1,1,4,5,9,1,2799,1,0.3028529,6.460505,2.560632,-1
3,14,22,F,3,1,1,5,6,10,2,1588,0,0.9549965,12.3949,4.288341,-1
3,14,22,F,3,1,1,6,5,12,4,2454,1,0.5341819,6.485664,4.484978,-1
3,14,22,F,3,1,1,7,2,10,2,1910,1,1.319124e-7,12.45845,0,-1
3,14,22,F,3,1,1,8,6,9,1,1543,0,0.6084522,12.49654,2.756408,-1
