exp,subj,age,gender,condition,phase,block,awareness_type,session,trial,set,pattern,quadrant,RT,num_additional_Rs,dist_to_T,camera_distance_from_target,angle_error_degrees,fc_response
2,1,19,F,proximal_repeated,1,1,0,1,1,1,1,1,2864,0,0.381126,6.291494,3.318535,-1
2,1,19,F,proximal_repeated,1,1,0,1,2,1,3,3,9999,4,-1,-1,-1,-1
2,1,19,F,proximal_repeated,1,1,0,1,3,2,2,2,1764,0,0.1462087,12.4586,0.6602717,-1
2,1,19,F,proximal_repeated,1,1,0,1,4,1,4,4,4097,0,0.02716521,6.542117,0.2264194,-1
2,1,19,F,proximal_repeated,1,1,0,1,5,2,1,1,2365,0,0.5931737,12.25616,2.748728,-1
2,1,19,F,proximal_repeated,1,1,0,1,6,1,2,2,3841,0,0.1726396,6.635686,1.418169,-1
2,1,19,F,proximal_repeated,1,1,0,1,7,2,4,4,1887,0,0.4543858,12.38682,2.027965,-1
2,1,19,F,proximal_repeated,1,1,0,1,8,2,3,3,2553,0,0.4974055,12.33556,2.252814,-1
2,1,19,F,proximal_repeated,1,2,0,1,1,2,8,4,2209,0,0.4543384,12.39003,2.027096,-1
2,1,19,F,proximal_repeated,1,2,0,1,2,2,6,2,2409,0,0.9988717,12.46271,4.558746,-1
2,1,19,F,proximal_repeated,1,2,0,1,3,1,8,4,7809,1,0.1967828,6.557287,1.625219,-1
2,1,19,F,proximal_repeated,1,2,0,1,4,2,5,1,3442,1,0.2218085,12.2537,1.020291,-1
2,1,19,F,proximal_repeated,1,2,0,1,5,1,6,2,3076,0,0.4620487,6.638709,3.820647,-1
2,1,19,F,proximal_repeated,1,2,0,1,6,2,7,3,3219,0,0.4723947,12.34014,2.138631,-1
2,1,19,F,proximal_repeated,1,2,0,1,7,1,5,1,3220,1,0.3067827,6.26924,2.669318,-1
2,1,19,F,proximal_repeated,1,2,0,1,8,1,7,3,3565,0,0.2020342,6.256024,1.775309,-1
2,1,19,F,proximal_repeated,1,3,0,1,1,1,9,1,1598,0,0.486884,6.27915,4.208078,-1
2,1,19,F,proximal_repeated,1,3,0,1,2,2,12,4,2187,0,0.5372913,12.39024,2.455032,-1
2,1,19,F,proximal_repeated,1,3,0,1,3,2,9,1,2331,0,0.1215842,12.26806,0.55778,-1
2,1,19,F,proximal_repeated,1,3,0,1,4,2,10,2,1331,0,0.8404318,12.46109,3.765772,-1
2,1,19,F,proximal_repeated,1,3,0,1,5,1,11,3,3664,0,0.4158319,6.257761,3.692895,-1
2,1,19,F,proximal_repeated,1,3,0,1,6,1,12,4,5020,0,0.3634034,6.546632,3.06286,-1
2,1,19,F,proximal_repeated,1,3,0,1,7,2,11,3,5342,2,0.8259583,12.09573,3.858641,-1
2,1,19,F,proximal_repeated,1,3,0,1,8,1,10,2,3042,0,0.4976257,6.621459,4.136496,-1
2,1,19,F,proximal_repeated,1,4,0,1,1,1,16,4,2731,1,0.2028492,6.546157,1.703528,-1
2,1,19,F,proximal_repeated,1,4,0,1,2,2,13,1,5509,1,0.3206414,12.06725,1.499069,-1
2,1,19,F,proximal_repeated,1,4,0,1,3,1,15,3,2765,0,0.3841751,6.269119,3.348839,-1
2,1,19,F,proximal_repeated,1,4,0,1,4,2,14,2,1886,0,0.4529762,12.45823,2.052331,-1
2,1,19,F,proximal_repeated,1,4,0,1,5,1,13,1,2031,1,0.4374977,6.272514,3.816493,-1
2,1,19,F,proximal_repeated,1,4,0,1,6,2,16,4,1764,0,0.4612048,12.39377,2.062035,-1
2,1,19,F,proximal_repeated,1,4,0,1,7,1,14,2,2564,1,0.3745658,6.629202,3.083372,-1
2,1,19,F,proximal_repeated,1,4,0,1,8,2,15,3,2664,0,6.505395e-8,12.34701,0,-1
2,1,19,F,proximal_repeated,1,5,0,1,1,1,18,2,3153,0,0.1206579,6.634146,0.9972074,-1
2,1,19,F,proximal_repeated,1,5,0,1,2,1,17,1,4942,3,0.1135018,6.27326,1.001711,-1
2,1,19,F,proximal_repeated,1,5,0,1,3,2,18,2,2275,1,0.2987909,12.43352,1.352195,-1
2,1,19,F,proximal_repeated,1,5,0,1,4,2,19,3,1897,0,0.7259578,12.34806,3.321424,-1
2,1,19,F,proximal_repeated,1,5,0,1,5,2,17,1,2254,1,0.826912,12.25598,3.836655,-1
2,1,19,F,proximal_repeated,1,5,0,1,6,1,20,4,2853,0,0.3705503,6.562132,3.116401,-1
2,1,19,F,proximal_repeated,1,5,0,1,7,1,19,3,2453,0,1.167139e-8,6.267218,0,-1
2,1,19,F,proximal_repeated,1,5,0,1,8,2,20,4,4886,1,0.2413639,12.39693,1.097714,-1
2,1,19,F,proximal_repeated,1,6,0,1,1,1,23,3,3309,0,0.09771603,6.269,0.85638,-1
2,1,19,F,proximal_repeated,1,6,0,1,2,2,21,1,4864,1,0.706796,12.21154,3.287238,-1
2,1,19,F,proximal_repeated,1,6,0,1,3,1,22,2,4786,0,1.23473e-7,6.645615,0,-1
2,1,19,F,proximal_repeated,1,6,0,1,4,1,21,1,1775,0,0.4139636,6.273032,3.57982,-1
2,1,19,F,proximal_repeated,1,6,0,1,5,1,24,4,2309,0,0.1059013,6.569858,0.8888945,-1
2,1,19,F,proximal_repeated,1,6,0,1,6,2,23,3,5208,0,0.3433482,12.35849,1.568977,-1
2,1,19,F,proximal_repeated,1,6,0,1,7,2,24,4,2275,1,0.1708322,12.41085,0.7661725,-1
2,1,19,F,proximal_repeated,1,6,0,1,8,2,22,2,4031,0,0.4539653,12.47024,2.054999,-1
2,1,19,F,proximal_repeated,1,7,0,1,1,2,25,1,1897,0,0.830622,12.2686,3.857676,-1
2,1,19,F,proximal_repeated,1,7,0,1,2,1,28,4,2409,0,0.4070076,6.576568,3.415926,-1
2,1,19,F,proximal_repeated,1,7,0,1,3,2,27,3,3009,1,0.3428273,12.36539,1.565981,-1
2,1,19,F,proximal_repeated,1,7,0,1,4,1,26,2,2609,1,0.2060372,6.651099,1.726918,-1
2,1,19,F,proximal_repeated,1,7,0,1,5,1,25,1,3531,3,0.2663938,6.26241,2.329022,-1
2,1,19,F,proximal_repeated,1,7,0,1,6,2,26,2,7931,0,0.534913,12.45382,2.393265,-1
2,1,19,F,proximal_repeated,1,7,0,1,7,2,28,4,2298,1,0.7728026,12.39996,3.523645,-1
2,1,19,F,proximal_repeated,1,7,0,1,8,1,27,3,3898,0,0.1380272,6.291222,1.207394,-1
2,1,19,F,proximal_repeated,1,8,0,1,1,1,32,4,3953,2,0.09639208,6.577221,0.8047857,-1
2,1,19,F,proximal_repeated,1,8,0,1,2,2,29,1,4353,6,0.9089813,12.04408,4.300928,-1
2,1,19,F,proximal_repeated,1,8,0,1,3,2,31,3,4364,1,0.8459965,12.35993,3.872723,-1
2,1,19,F,proximal_repeated,1,8,0,1,4,1,30,2,2720,0,0.3298547,6.649447,2.722323,-1
2,1,19,F,proximal_repeated,1,8,0,1,5,1,29,1,3697,3,0.5192444,6.293429,4.502978,-1
2,1,19,F,proximal_repeated,1,8,0,1,6,2,30,2,2997,0,0.5335174,12.47699,2.397106,-1
2,1,19,F,proximal_repeated,1,8,0,1,7,2,32,4,2542,0,0.4900535,12.41075,2.217173,-1
2,1,19,F,proximal_repeated,1,8,0,1,8,1,31,3,3319,0,0.1643154,6.273092,1.456965,-1
2,1,19,F,proximal_repeated,1,9,0,1,1,2,34,2,1820,0,0.4121887,12.48409,1.844511,-1
2,1,19,F,proximal_repeated,1,9,0,1,2,1,33,1,4042,4,0.4846451,6.288986,4.222898,-1
2,1,19,F,proximal_repeated,1,9,0,1,3,2,36,4,2164,0,0.1575814,12.41605,0.711894,-1
2,1,19,F,proximal_repeated,1,9,0,1,4,2,33,1,2187,1,1.044345,12.27403,4.863209,-1
2,1,19,F,proximal_repeated,1,9,0,1,5,1,36,4,3409,0,0.01128295,6.591438,0.09278741,-1
2,1,19,F,proximal_repeated,1,9,0,1,6,1,35,3,3342,0,0.149557,6.280386,1.323526,-1
2,1,19,F,proximal_repeated,1,9,0,1,7,1,34,2,2920,1,0.2887442,6.658101,2.378746,-1
2,1,19,F,proximal_repeated,1,9,0,1,8,2,35,3,4364,1,0.3632486,12.36137,1.65989,-1
2,1,19,F,proximal_repeated,1,10,0,1,1,1,40,4,2653,0,0.1622702,6.581366,1.35205,-1
2,1,19,F,proximal_repeated,1,10,0,1,2,1,38,2,3109,0,0.1398092,6.662431,1.143294,-1
2,1,19,F,proximal_repeated,1,10,0,1,3,1,37,1,4876,5,0.4582861,6.139769,4.20426,-1
2,1,19,F,proximal_repeated,1,10,0,1,4,2,38,2,2531,1,0.5384105,12.42754,2.445766,-1
2,1,19,F,proximal_repeated,1,10,0,1,5,2,39,3,3586,0,0.4647731,12.37188,2.121726,-1
2,1,19,F,proximal_repeated,1,10,0,1,6,2,40,4,2098,0,0.676706,12.43586,3.007326,-1
2,1,19,F,proximal_repeated,1,10,0,1,7,2,37,1,1720,0,0.6979249,12.27066,3.240813,-1
2,1,19,F,proximal_repeated,1,10,0,1,8,1,39,3,3431,0,0.06383244,6.293317,0.5581307,-1
2,1,19,F,proximal_repeated,1,11,0,1,1,2,41,1,2920,4,0.4004192,12.26817,1.840369,-1
2,1,19,F,proximal_repeated,1,11,0,1,2,1,42,2,2253,0,0.2246639,6.646628,1.854352,-1
2,1,19,F,proximal_repeated,1,11,0,1,3,2,43,3,2831,0,0.310632,12.37854,1.417065,-1
2,1,19,F,proximal_repeated,1,11,0,1,4,2,44,4,1554,0,0.04341898,12.43595,0.1958353,-1
2,1,19,F,proximal_repeated,1,11,0,1,5,2,42,2,2142,0,0.5964013,12.46225,2.673641,-1
2,1,19,F,proximal_repeated,1,11,0,1,6,1,43,3,1898,0,0.2928708,6.295443,2.541527,-1
2,1,19,F,proximal_repeated,1,11,0,1,7,1,41,1,1220,0,0.3828558,6.260903,3.396901,-1
2,1,19,F,proximal_repeated,1,11,0,1,8,1,44,4,2431,0,0.09014951,6.601714,0.749649,-1
2,1,19,F,proximal_repeated,1,12,0,1,1,2,46,2,4453,0,0.2920921,12.4637,1.308956,-1
2,1,19,F,proximal_repeated,1,12,0,1,2,2,47,3,2453,0,0.2628897,12.37816,1.194685,-1
2,1,19,F,proximal_repeated,1,12,0,1,3,1,45,1,1920,0,0.5003648,6.273237,4.32821,-1
2,1,19,F,proximal_repeated,1,12,0,1,4,1,46,2,2553,0,1.342708e-7,6.65253,0,-1
2,1,19,F,proximal_repeated,1,12,0,1,5,1,48,4,2175,0,0.04109263,6.592682,0.3403488,-1
2,1,19,F,proximal_repeated,1,12,0,1,6,1,47,3,4787,3,0.2071513,6.291942,1.810241,-1
2,1,19,F,proximal_repeated,1,12,0,1,7,2,45,1,3275,4,0.9833853,12.00817,4.6566090000000004,-1
2,1,19,F,proximal_repeated,1,12,0,1,8,2,48,4,2309,0,0.3252403,12.41321,1.474588,-1
2,1,19,F,proximal_repeated,1,13,0,1,1,2,51,3,1719,0,0.7508656,12.37276,3.391883,-1
2,1,19,F,proximal_repeated,1,13,0,1,2,2,49,1,1164,0,0.4838594,12.29195,2.207796,-1
2,1,19,F,proximal_repeated,1,13,0,1,3,1,50,2,3308,0,0.3873617,6.655324,3.159263,-1
2,1,19,F,proximal_repeated,1,13,0,1,4,1,51,3,2920,1,5.924479e-8,6.279662,0,-1
2,1,19,F,proximal_repeated,1,13,0,1,5,1,52,4,2476,0,0.1305989,6.581274,1.093069,-1
2,1,19,F,proximal_repeated,1,13,0,1,6,2,50,2,2009,0,1.055167,12.45858,4.757734,-1
2,1,19,F,proximal_repeated,1,13,0,1,7,1,49,1,3931,5,0.4965608,6.123748,4.516746,-1
2,1,19,F,proximal_repeated,1,13,0,1,8,2,52,4,1842,0,0.1199298,12.42168,0.5395923,-1
2,1,19,F,proximal_repeated,1,14,0,1,1,1,55,3,920,0,0.462884,6.30045,4.002425,-1
2,1,19,F,proximal_repeated,1,14,0,1,2,1,54,2,2720,0,0.354357,6.638723,2.928974,-1
2,1,19,F,proximal_repeated,1,14,0,1,3,1,53,1,1520,0,0.006103008,6.272185,0.04845664,-1
2,1,19,F,proximal_repeated,1,14,0,1,4,1,56,4,2342,0,0.1027971,6.611719,0.8425589,-1
2,1,19,F,proximal_repeated,1,14,0,1,5,2,55,3,2831,0,0.05708139,12.38866,0.2594432,-1
2,1,19,F,proximal_repeated,1,14,0,1,6,2,56,4,1398,0,0.2394008,12.44313,1.069177,-1
2,1,19,F,proximal_repeated,1,14,0,1,7,2,54,2,2854,0,0.3218135,12.47402,1.443472,-1
2,1,19,F,proximal_repeated,1,14,0,1,8,2,53,1,1264,0,0.3025838,12.2919,1.38211,-1
2,1,19,F,proximal_repeated,1,15,0,1,1,2,60,4,1498,0,0.735427,12.4402,3.301619,-1
2,1,19,F,proximal_repeated,1,15,0,1,2,2,58,2,1742,1,0.9647376,12.4592,4.351632,-1
2,1,19,F,proximal_repeated,1,15,0,1,3,2,59,3,1987,0,0.03053532,12.39204,0.1370561,-1
2,1,19,F,proximal_repeated,1,15,0,1,4,1,58,2,4109,0,0.2985529,6.645737,2.460288,-1
2,1,19,F,proximal_repeated,1,15,0,1,5,2,57,1,1342,0,1.028416,12.27407,4.77963,-1
2,1,19,F,proximal_repeated,1,15,0,1,6,1,59,3,1820,0,0.01124151,6.302827,0.09691329,-1
2,1,19,F,proximal_repeated,1,15,0,1,7,1,57,1,1087,0,0.5352225,6.278346,4.671267,-1
2,1,19,F,proximal_repeated,1,15,0,1,8,1,60,4,2531,1,3.56298e-7,6.615143,0,-1
2,1,19,F,proximal_repeated,1,16,0,1,1,1,62,2,2465,0,0.5619072,6.641292,4.645701,-1
2,1,19,F,proximal_repeated,1,16,0,1,2,2,63,3,1887,0,0.7276829,12.40334,3.317827,-1
2,1,19,F,proximal_repeated,1,16,0,1,3,2,62,2,1231,0,0.1555606,12.47176,0.6985759,-1
2,1,19,F,proximal_repeated,1,16,0,1,4,2,64,4,1653,0,0.7701933,12.45588,3.434161,-1
2,1,19,F,proximal_repeated,1,16,0,1,5,2,61,1,2875,2,0.9134005,12.27191,4.180342,-1
2,1,19,F,proximal_repeated,1,16,0,1,6,1,64,4,3331,1,0.03701232,6.611342,0.3064671,-1
2,1,19,F,proximal_repeated,1,16,0,1,7,1,61,1,2520,0,0.1607438,6.267617,1.412223,-1
2,1,19,F,proximal_repeated,1,16,0,1,8,1,63,3,2409,0,0.3205194,6.283358,2.865667,-1
2,1,19,F,proximal_repeated,1,17,0,1,1,4,68,4,4364,1,0.08876427,12.46147,0.3990945,-1
2,1,19,F,proximal_repeated,1,17,0,1,2,3,66,2,9999,1,-1,-1,-1,-1
2,1,19,F,proximal_repeated,1,17,0,1,3,3,65,1,1531,0,0.2433024,6.244623,2.104591,-1
2,1,19,F,proximal_repeated,1,17,0,1,4,4,66,2,4886,4,0.1098517,12.25513,0.5008504,-1
2,1,19,F,proximal_repeated,1,17,0,1,5,3,68,4,3609,0,0.2642933,6.572214,2.190263,-1
2,1,19,F,proximal_repeated,1,17,0,1,6,3,67,3,2053,0,0.360109,6.248991,3.135565,-1
2,1,19,F,proximal_repeated,1,17,0,1,7,4,65,1,1820,0,4.424655e-8,12.20977,0,-1
2,1,19,F,proximal_repeated,1,17,0,1,8,4,67,3,3153,0,0.5880984,12.33238,2.666163,-1
2,1,19,F,proximal_repeated,1,18,0,1,1,3,72,4,2954,0,0.1735306,6.587,1.437086,-1
2,1,19,F,proximal_repeated,1,18,0,1,2,4,71,3,1731,0,0.4466955,12.3231,2.008181,-1
2,1,19,F,proximal_repeated,1,18,0,1,3,4,69,1,1331,0,0.1959444,12.28809,0.901789,-1
2,1,19,F,proximal_repeated,1,18,0,1,4,4,70,2,2720,1,0.2929145,12.48179,1.32648,-1
2,1,19,F,proximal_repeated,1,18,0,1,5,3,69,1,1542,0,0.4815604,6.243463,4.298241,-1
2,1,19,F,proximal_repeated,1,18,0,1,6,4,72,4,1865,0,0.9043078,12.4223,4.091894,-1
2,1,19,F,proximal_repeated,1,18,0,1,7,3,71,3,1831,0,0.2945334,6.258298,2.629869,-1
2,1,19,F,proximal_repeated,1,18,0,1,8,3,70,2,2498,0,8.241759e-8,6.610101,0,-1
2,1,19,F,proximal_repeated,1,19,0,1,1,3,75,3,2386,0,0.1674667,6.228461,1.463799,-1
2,1,19,F,proximal_repeated,1,19,0,1,2,4,73,1,1287,0,0.09193094,12.22897,0.4205793,-1
2,1,19,F,proximal_repeated,1,19,0,1,3,4,74,2,1854,0,0.7631318,12.46579,3.42777,-1
2,1,19,F,proximal_repeated,1,19,0,1,4,4,75,3,3575,0,0.5909384,12.40825,2.699942,-1
2,1,19,F,proximal_repeated,1,19,0,1,5,3,76,4,4731,1,0.1143387,6.580552,0.9427382,-1
2,1,19,F,proximal_repeated,1,19,0,1,6,3,73,1,3009,2,0.3764183,6.214411,3.302805,-1
2,1,19,F,proximal_repeated,1,19,0,1,7,3,74,2,2576,1,0.3402119,6.643504,2.813134,-1
2,1,19,F,proximal_repeated,1,19,0,1,8,4,76,4,1831,0,0.6082435,12.38968,2.7113,-1
2,1,19,F,proximal_repeated,1,20,0,1,1,4,77,1,2831,1,1.673309e-7,12.22238,0,-1
2,1,19,F,proximal_repeated,1,20,0,1,2,4,79,3,3831,0,0.6443748,12.30006,2.968672,-1
2,1,19,F,proximal_repeated,1,20,0,1,3,3,80,4,2598,0,0.3123021,6.55435,2.592387,-1
2,1,19,F,proximal_repeated,1,20,0,1,4,3,78,2,3209,0,0.07571106,6.614958,0.6224399,-1
2,1,19,F,proximal_repeated,1,20,0,1,5,3,79,3,3398,0,0.2605113,6.216304,2.274431,-1
2,1,19,F,proximal_repeated,1,20,0,1,6,4,78,2,4475,0,5.23455e-8,12.42687,0,-1
2,1,19,F,proximal_repeated,1,20,0,1,7,3,77,1,1531,0,0.3064874,6.233068,2.66146,-1
2,1,19,F,proximal_repeated,1,20,0,1,8,4,80,4,2887,0,0.9418198,12.4189,4.262873,-1
2,1,19,F,proximal_repeated,1,21,0,1,1,2,78,2,1253,0,0.1181798,12.4619,0.5319225,-1
2,1,19,F,proximal_repeated,1,21,0,1,2,2,77,1,9999,14,-1,-1,-1,-1
2,1,19,F,proximal_repeated,1,21,0,1,3,1,80,4,3842,0,0.1348558,6.575514,1.113466,-1
2,1,19,F,proximal_repeated,1,21,0,1,4,1,79,3,2764,0,0.3382423,6.272862,2.968079,-1
2,1,19,F,proximal_repeated,1,21,0,1,5,2,80,4,2720,2,0.7658008,12.41915,3.486948,-1
2,1,19,F,proximal_repeated,1,21,0,1,6,1,78,2,2487,0,0.09538213,6.635441,0.7883269,-1
2,1,19,F,proximal_repeated,1,21,0,1,7,1,77,1,1031,0,0.01891159,6.273604,0.166689,-1
2,1,19,F,proximal_repeated,1,21,0,1,8,2,79,3,2097,0,0.31934,12.3666,1.453604,-1
2,1,19,F,proximal_repeated,1,22,0,1,1,1,82,2,1664,0,0.4852128,6.642035,3.983003,-1
2,1,19,F,proximal_repeated,1,22,0,1,2,1,84,4,2220,0,0.1763109,6.619157,1.456965,-1
2,1,19,F,proximal_repeated,1,22,0,1,3,2,83,3,2542,0,0.222879,12.39617,1.010269,-1
2,1,19,F,proximal_repeated,1,22,0,1,4,2,82,2,1353,0,0.3414186,12.46701,1.535696,-1
2,1,19,F,proximal_repeated,1,22,0,1,5,1,83,3,2431,0,0.3051894,6.300959,2.710794,-1
2,1,19,F,proximal_repeated,1,22,0,1,6,2,81,1,1120,0,0.6575674,12.28014,3.048381,-1
2,1,19,F,proximal_repeated,1,22,0,1,7,2,84,4,3575,0,0.7610318,12.4507,3.384487,-1
2,1,19,F,proximal_repeated,1,22,0,1,8,1,81,1,1642,0,0.09875646,6.269398,0.8724523,-1
2,1,19,F,proximal_repeated,1,23,0,1,1,1,87,3,2553,0,0.04364461,6.306898,0.3820612,-1
2,1,19,F,proximal_repeated,1,23,0,1,2,2,88,4,2875,0,0.1127412,12.45381,0.5082192,-1
2,1,19,F,proximal_repeated,1,23,0,1,3,1,86,2,1942,0,0.1408229,6.651735,1.153688,-1
2,1,19,F,proximal_repeated,1,23,0,1,4,2,87,3,3308,0,0.9924114,12.39227,4.527488,-1
2,1,19,F,proximal_repeated,1,23,0,1,5,1,85,1,1220,0,0.35276,6.27041,3.093894,-1
2,1,19,F,proximal_repeated,1,23,0,1,6,2,86,2,1209,0,3.181285e-7,12.46396,0,-1
2,1,19,F,proximal_repeated,1,23,0,1,7,2,85,1,2798,1,0.9498286,12.26622,4.425141,-1
2,1,19,F,proximal_repeated,1,23,0,1,8,1,88,4,3665,0,1.236121e-7,6.622888,0,-1
2,1,19,F,proximal_repeated,1,24,0,1,1,1,90,2,2942,0,0.4081545,6.656023,3.340703,-1
2,1,19,F,proximal_repeated,1,24,0,1,2,1,89,1,1220,0,0.4110953,6.281766,3.577576,-1
2,1,19,F,proximal_repeated,1,24,0,1,3,2,90,2,4898,0,0.6914945,12.47444,3.130191,-1
2,1,19,F,proximal_repeated,1,24,0,1,4,2,91,3,3909,0,1.384817e-7,12.41487,0,-1
2,1,19,F,proximal_repeated,1,24,0,1,5,1,92,4,2542,0,0.03294042,6.627469,0.272681,-1
2,1,19,F,proximal_repeated,1,24,0,1,6,2,89,1,5442,0,0.5691445,12.29611,2.631506,-1
2,1,19,F,proximal_repeated,1,24,0,1,7,2,92,4,1464,0,0.5679251,12.45684,2.519094,-1
2,1,19,F,proximal_repeated,1,24,0,1,8,1,91,3,2508,0,0.222495,6.314561,1.962141,-1
2,1,19,F,proximal_repeated,1,25,0,1,1,1,96,4,2132,0,0.1487011,6.626866,1.219649,-1
2,1,19,F,proximal_repeated,1,25,0,1,2,2,94,2,2220,0,0.3174551,12.47855,1.420238,-1
2,1,19,F,proximal_repeated,1,25,0,1,3,2,95,3,2142,0,0.9269859,12.40884,4.177483,-1
2,1,19,F,proximal_repeated,1,25,0,1,4,2,96,4,1476,0,0.615061,12.4604,2.736166,-1
2,1,19,F,proximal_repeated,1,25,0,1,5,1,95,3,4065,0,5.442061e-8,6.324148,0.01978234,-1
2,1,19,F,proximal_repeated,1,25,0,1,6,2,93,1,5675,0,0.5457706,12.28919,2.506006,-1
2,1,19,F,proximal_repeated,1,25,0,1,7,1,94,2,2376,0,0.1438657,6.652113,1.186302,-1
2,1,19,F,proximal_repeated,1,25,0,1,8,1,93,1,1365,0,0.352241,6.275723,3.060047,-1
2,1,19,F,proximal_repeated,1,26,0,1,1,1,99,3,3476,0,7.986704e-8,6.319343,0,-1
2,1,19,F,proximal_repeated,1,26,0,1,2,2,100,4,1876,0,0.563601,12.45987,2.5046,-1
2,1,19,F,proximal_repeated,1,26,0,1,3,1,97,1,1609,0,0.2644833,6.285064,2.301122,-1
2,1,19,F,proximal_repeated,1,26,0,1,4,2,98,2,1665,0,0.5598088,12.47483,2.498105,-1
2,1,19,F,proximal_repeated,1,26,0,1,5,2,97,1,2465,0,0.5489735,12.29534,2.506631,-1
2,1,19,F,proximal_repeated,1,26,0,1,6,1,98,2,3265,0,0.5394727,6.657514,4.449419,-1
2,1,19,F,proximal_repeated,1,26,0,1,7,1,100,4,2253,0,0.5002458,6.628975,4.152326,-1
2,1,19,F,proximal_repeated,1,26,0,1,8,2,99,3,3209,0,3.007981e-7,12.41375,0,-1
2,1,19,F,proximal_repeated,1,27,0,1,1,2,104,4,1698,0,0.6642516,12.46493,2.954328,-1
2,1,19,F,proximal_repeated,1,27,0,1,2,1,101,1,1764,0,0.516879,6.283032,4.474878,-1
2,1,19,F,proximal_repeated,1,27,0,1,3,1,102,2,3776,1,0.1793461,6.665779,1.485431,-1
2,1,19,F,proximal_repeated,1,27,0,1,4,2,101,1,4209,4,0.2233567,12.2771,1.022399,-1
2,1,19,F,proximal_repeated,1,27,0,1,5,2,102,2,1753,0,0.405877,12.46582,1.818654,-1
2,1,19,F,proximal_repeated,1,27,0,1,6,1,103,3,2331,0,0.08569657,6.305405,0.7504317,-1
2,1,19,F,proximal_repeated,1,27,0,1,7,1,104,4,2898,0,5.321858e-4,6.631314,0,-1
2,1,19,F,proximal_repeated,1,27,0,1,8,2,103,3,3975,0,0.4072568,12.40583,1.854247,-1
2,1,19,F,proximal_repeated,1,28,0,1,1,2,105,1,1709,0,0.8411501,12.28998,3.888366,-1
2,1,19,F,proximal_repeated,1,28,0,1,2,2,107,3,2664,0,0.358742,12.40747,1.627626,-1
2,1,19,F,proximal_repeated,1,28,0,1,3,2,106,2,1675,0,0.2097962,12.47748,0.9404523,-1
2,1,19,F,proximal_repeated,1,28,0,1,4,2,108,4,3342,0,0.5442436,12.46227,2.465613,-1
2,1,19,F,proximal_repeated,1,28,0,1,5,1,105,1,3009,1,0.4959017,6.2785,4.286012,-1
2,1,19,F,proximal_repeated,1,28,0,1,6,1,106,2,4064,1,0.4108654,6.663687,3.441052,-1
2,1,19,F,proximal_repeated,1,28,0,1,7,1,107,3,2409,0,0.1979832,6.310098,1.743048,-1
2,1,19,F,proximal_repeated,1,28,0,1,8,1,108,4,3276,1,9.96143e-8,6.636264,0,-1
2,1,19,F,proximal_repeated,1,29,0,1,1,2,111,3,2442,0,0.2028976,12.41715,0.9130027,-1
2,1,19,F,proximal_repeated,1,29,0,1,2,2,110,2,1909,0,0.3619225,12.48481,1.617736,-1
2,1,19,F,proximal_repeated,1,29,0,1,3,1,112,4,2820,0,0.1515281,6.631221,1.259432,-1
2,1,19,F,proximal_repeated,1,29,0,1,4,1,110,2,2965,0,0.3869471,6.660449,3.17632,-1
2,1,19,F,proximal_repeated,1,29,0,1,5,2,109,1,2798,2,0.8464432,12.27457,3.939797,-1
2,1,19,F,proximal_repeated,1,29,0,1,6,2,112,4,3309,1,0.9639832,12.4608,4.325086,-1
2,1,19,F,proximal_repeated,1,29,0,1,7,1,109,1,1687,0,0.4901817,6.286359,4.243855,-1
2,1,19,F,proximal_repeated,1,29,0,1,8,1,111,3,2398,0,0.3154039,6.30923,2.780871,-1
2,1,19,F,proximal_repeated,1,30,0,1,1,1,116,4,2798,0,8.27434e-8,6.63527,0,-1
2,1,19,F,proximal_repeated,1,30,0,1,2,2,115,3,3242,0,9.861163e-8,12.41233,0,-1
2,1,19,F,proximal_repeated,1,30,0,1,3,2,114,2,1798,0,0.3669069,12.47778,1.642348,-1
2,1,19,F,proximal_repeated,1,30,0,1,4,2,113,1,1720,0,0.8950753,12.28685,4.115088,-1
2,1,19,F,proximal_repeated,1,30,0,1,5,1,114,2,3964,1,0.1705685,6.660934,1.400116,-1
2,1,19,F,proximal_repeated,1,30,0,1,6,1,113,1,2931,2,1.478161e-7,6.279246,0,-1
2,1,19,F,proximal_repeated,1,30,0,1,7,2,116,4,2487,0,0.5201795,12.46664,2.364468,-1
2,1,19,F,proximal_repeated,1,30,0,1,8,1,115,3,2009,0,0.3441644,6.308135,3.055053,-1
2,1,19,F,proximal_repeated,1,31,0,1,1,2,117,1,1586,0,0.1117352,12.28833,0.5109072,-1
2,1,19,F,proximal_repeated,1,31,0,1,2,1,118,2,3797,1,0.07622026,6.664097,0.6321102,-1
2,1,19,F,proximal_repeated,1,31,0,1,3,1,119,3,2620,0,0.2050702,6.329293,1.774868,-1
2,1,19,F,proximal_repeated,1,31,0,1,4,1,120,4,3665,0,0.564863,6.618557,4.717253,-1
2,1,19,F,proximal_repeated,1,31,0,1,5,2,119,3,2598,0,0.3444051,12.38784,1.565606,-1
2,1,19,F,proximal_repeated,1,31,0,1,6,2,118,2,1864,0,0.3459221,12.44095,1.553056,-1
2,1,19,F,proximal_repeated,1,31,0,1,7,1,117,1,1209,0,0.2064693,6.263209,1.797112,-1
2,1,19,F,proximal_repeated,1,31,0,1,8,2,120,4,1820,0,0.6959299,12.45204,3.090348,-1
2,1,19,F,proximal_repeated,1,32,0,1,1,2,121,1,2009,1,0.7509371,12.27476,3.490371,-1
2,1,19,F,proximal_repeated,1,32,0,1,2,2,123,3,6042,6,0.8845258,12.39495,4.033423,-1
2,1,19,F,proximal_repeated,1,32,0,1,3,2,124,4,1776,0,0.4465919,12.46097,1.986329,-1
2,1,19,F,proximal_repeated,1,32,0,1,4,1,121,1,2153,0,0.2277441,6.26489,1.981495,-1
2,1,19,F,proximal_repeated,1,32,0,1,5,2,122,2,1653,0,0.7735671,12.45948,3.467804,-1
2,1,19,F,proximal_repeated,1,32,0,1,6,1,124,4,2920,0,1.741902e-7,6.636984,0,-1
2,1,19,F,proximal_repeated,1,32,0,1,7,1,123,3,2720,0,4.877413e-8,6.313358,0,-1
2,1,19,F,proximal_repeated,1,32,0,1,8,1,122,2,3619,0,0.3679716,6.655034,3.03422,-1
2,1,19,F,proximal_repeated,1,33,0,1,1,1,127,3,2298,0,0.05049435,6.307004,0.4423477,-1
2,1,19,F,proximal_repeated,1,33,0,1,2,1,125,1,1376,0,0.4956406,6.260262,4.349246,-1
2,1,19,F,proximal_repeated,1,33,0,1,3,2,127,3,2731,0,0.0316286,12.40249,0.1426525,-1
2,1,19,F,proximal_repeated,1,33,0,1,4,1,128,4,3153,0,0.105015,6.629222,0.8699816,-1
2,1,19,F,proximal_repeated,1,33,0,1,5,2,126,2,2987,0,0.5476655,12.46686,2.461084,-1
2,1,19,F,proximal_repeated,1,33,0,1,6,2,128,4,1753,0,0.4138543,12.45637,1.841325,-1
2,1,19,F,proximal_repeated,1,33,0,1,7,1,126,2,4031,0,0.05517581,6.653368,0.454995,-1
2,1,19,F,proximal_repeated,1,33,0,1,8,2,125,1,2054,0,0.7125612,12.27716,3.304938,-1
2,1,19,F,proximal_repeated,1,34,0,1,1,1,130,2,1998,0,0.4524701,6.649115,3.735178,-1
2,1,19,F,proximal_repeated,1,34,0,1,2,2,132,4,2031,0,0.07131226,12.46554,0.3208161,-1
2,1,19,F,proximal_repeated,1,34,0,1,3,2,130,2,1309,0,0.4631402,12.46765,2.074997,-1
2,1,19,F,proximal_repeated,1,34,0,1,4,1,132,4,3053,0,0.4370096,6.62848,3.641101,-1
2,1,19,F,proximal_repeated,1,34,0,1,5,2,131,3,2142,0,7.441965e-8,12.41483,0,-1
2,1,19,F,proximal_repeated,1,34,0,1,6,1,129,1,3820,3,0.3165515,6.26125,2.761516,-1
2,1,19,F,proximal_repeated,1,34,0,1,7,1,131,3,2754,0,0.00974332,6.314125,0.08392937,-1
2,1,19,F,proximal_repeated,1,34,0,1,8,2,129,1,1953,0,0.3548222,12.2832,1.634584,-1
2,1,19,F,proximal_repeated,1,35,0,1,1,2,136,4,2542,0,6.7560340000000007e-008,12.46314,0,-1
2,1,19,F,proximal_repeated,1,35,0,1,2,1,134,2,2765,0,0.3705942,6.64968,3.058255,-1
2,1,19,F,proximal_repeated,1,35,0,1,3,2,133,1,1754,0,0.8453052,12.2743,3.921463,-1
2,1,19,F,proximal_repeated,1,35,0,1,4,2,134,2,1309,0,0.2548342,12.46392,1.142781,-1
2,1,19,F,proximal_repeated,1,35,0,1,5,2,135,3,2120,0,0.51782,12.40279,2.3585,-1
2,1,19,F,proximal_repeated,1,35,0,1,6,1,136,4,2953,0,1.114374e-7,6.636395,0,-1
2,1,19,F,proximal_repeated,1,35,0,1,7,1,135,3,2742,0,4.125864e-8,6.313946,0,-1
2,1,19,F,proximal_repeated,1,35,0,1,8,1,133,1,2898,1,0.1848151,6.262047,1.650194,-1
2,1,19,F,proximal_repeated,1,36,0,1,1,2,139,3,1631,0,0.5439258,12.41159,2.454713,-1
2,1,19,F,proximal_repeated,1,36,0,1,2,2,137,1,2198,1,0.1911291,12.27673,0.8791551,-1
2,1,19,F,proximal_repeated,1,36,0,1,3,2,140,4,2531,0,0.3533384,12.46587,1.585356,-1
2,1,19,F,proximal_repeated,1,36,0,1,4,1,137,1,2131,0,0.164797,6.268209,1.449829,-1
2,1,19,F,proximal_repeated,1,36,0,1,5,1,138,2,4031,1,1.200746e-7,6.649431,0,-1
2,1,19,F,proximal_repeated,1,36,0,1,6,1,140,4,2943,0,0.2898147,6.632632,2.412245,-1
2,1,19,F,proximal_repeated,1,36,0,1,7,2,138,2,1798,0,0.0189486,12.47048,0.08392937,-1
2,1,19,F,proximal_repeated,1,36,0,1,8,1,139,3,2187,0,1.577508e-7,6.319954,0,-1
2,1,19,F,proximal_repeated,1,37,0,1,1,3,148,4,2531,0,0.19446,6.638694,1.596426,-1
2,1,19,F,proximal_repeated,1,37,0,1,2,3,146,2,2120,0,0.5375901,6.658095,4.441047,-1
2,1,19,F,proximal_repeated,1,37,0,1,3,4,147,3,2253,0,3.488059e-7,12.37348,0.01978234,-1
2,1,19,F,proximal_repeated,1,37,0,1,4,4,146,2,1520,0,0.9808714,12.49048,4.386776,-1
2,1,19,F,proximal_repeated,1,37,0,1,5,3,145,1,2420,0,0.4212057,6.219733,3.639057,-1
2,1,19,F,proximal_repeated,1,37,0,1,6,3,147,3,2253,0,6.583991e-8,6.315287,0,-1
2,1,19,F,proximal_repeated,1,37,0,1,7,4,148,4,2631,0,0.2588581,12.50054,1.157075,-1
2,1,19,F,proximal_repeated,1,37,0,1,8,4,145,1,1409,0,0.2790776,12.23442,1.276869,-1
2,1,19,F,proximal_repeated,1,38,0,1,1,4,151,3,2098,0,4.742374e-8,12.38779,0,-1
2,1,19,F,proximal_repeated,1,38,0,1,2,4,152,4,2509,0,0.09032557,12.52829,0.4063823,-1
2,1,19,F,proximal_repeated,1,38,0,1,3,3,150,2,1631,0,1.060235e-7,6.622633,0,-1
2,1,19,F,proximal_repeated,1,38,0,1,4,4,149,1,2042,0,0.0321865,12.27892,0.1480375,-1
2,1,19,F,proximal_repeated,1,38,0,1,5,3,152,4,2687,0,0.2282166,6.654954,1.890619,-1
2,1,19,F,proximal_repeated,1,38,0,1,6,3,151,3,2454,1,0.2602691,6.26894,2.251598,-1
2,1,19,F,proximal_repeated,1,38,0,1,7,4,150,2,1698,0,0.5215092,12.48283,2.349354,-1
2,1,19,F,proximal_repeated,1,38,0,1,8,3,149,1,2165,1,0.2590754,6.21843,2.316466,-1
2,1,19,F,proximal_repeated,1,39,0,1,1,4,156,4,2353,0,0.2589277,12.508,1.153857,-1
2,1,19,F,proximal_repeated,1,39,0,1,2,3,155,3,1876,0,0.22746,6.265876,1.969111,-1
2,1,19,F,proximal_repeated,1,39,0,1,3,4,154,2,3064,0,0.7923465,12.50289,3.561999,-1
2,1,19,F,proximal_repeated,1,39,0,1,4,3,153,1,1820,0,0.4849092,6.273247,4.194466,-1
2,1,19,F,proximal_repeated,1,39,0,1,5,3,156,4,3376,0,0.01942912,6.669576,0.1582588,-1
2,1,19,F,proximal_repeated,1,39,0,1,6,3,154,2,2920,0,0.3775493,6.670574,3.111749,-1
2,1,19,F,proximal_repeated,1,39,0,1,7,4,153,1,2653,1,0.9189564,12.23701,4.245701,-1
2,1,19,F,proximal_repeated,1,39,0,1,8,4,155,3,2075,0,0.07668505,12.41578,0.3471792,-1
2,1,19,F,proximal_repeated,1,40,0,1,1,4,158,2,2153,0,2.294966e-8,12.47791,0,-1
2,1,19,F,proximal_repeated,1,40,0,1,2,3,159,3,1565,0,0.02726135,6.264514,0.2390311,-1
2,1,19,F,proximal_repeated,1,40,0,1,3,3,160,4,3320,0,0.02234834,6.630246,0.183454,-1
2,1,19,F,proximal_repeated,1,40,0,1,4,4,157,1,1587,0,0.1507394,12.24737,0.6892704,-1
2,1,19,F,proximal_repeated,1,40,0,1,5,4,159,3,2198,0,0.7077689,12.41731,3.220817,-1
2,1,19,F,proximal_repeated,1,40,0,1,6,3,157,1,2687,1,0.5206051,6.206318,4.696068,-1
2,1,19,F,proximal_repeated,1,40,0,1,7,4,160,4,2620,0,2.476595e-7,12.4813,0,-1
2,1,19,F,proximal_repeated,1,40,0,1,8,3,158,2,1665,0,0.5695022,6.667955,4.698612,-1
2,1,19,F,proximal_repeated,1,41,0,1,1,1,164,4,2720,0,0.180462,6.639824,1.478829,-1
2,1,19,F,proximal_repeated,1,41,0,1,2,2,163,3,3064,2,0.8243968,12.41449,3.753063,-1
2,1,19,F,proximal_repeated,1,41,0,1,3,2,162,2,1242,0,0.7731532,12.48042,3.46074,-1
2,1,19,F,proximal_repeated,1,41,0,1,4,2,161,1,2987,0,0.01784742,12.29978,0.07912937,-1
2,1,19,F,proximal_repeated,1,41,0,1,5,2,164,4,1742,0,0.9788172,12.47893,4.337161,-1
2,1,19,F,proximal_repeated,1,41,0,1,6,1,161,1,3542,2,0.2960818,6.2775,2.640713,-1
2,1,19,F,proximal_repeated,1,41,0,1,7,1,163,3,2087,0,9.63252e-8,6.319712,0,-1
2,1,19,F,proximal_repeated,1,41,0,1,8,1,162,2,2698,0,1.361458e-7,6.669346,0,-1
2,1,19,F,proximal_repeated,1,42,0,1,1,2,168,4,1498,0,0.3582326,12.48176,1.622206,-1
2,1,19,F,proximal_repeated,1,42,0,1,2,1,166,2,1620,0,0.5048436,6.655169,4.164618,-1
2,1,19,F,proximal_repeated,1,42,0,1,3,1,167,3,1931,0,0.3390639,6.322483,2.92737,-1
2,1,19,F,proximal_repeated,1,42,0,1,4,1,165,1,1920,2,1.675259e-7,6.249411,0.01978234,-1
2,1,19,F,proximal_repeated,1,42,0,1,5,2,167,3,3742,1,0.4901953,12.42536,2.228619,-1
2,1,19,F,proximal_repeated,1,42,0,1,6,2,166,2,1598,0,0.702629,12.46835,3.148773,-1
2,1,19,F,proximal_repeated,1,42,0,1,7,1,168,4,2320,0,7.366648e-8,6.599188,0,-1
2,1,19,F,proximal_repeated,1,42,0,1,8,2,165,1,1631,0,0.5024096,12.27771,2.32153,-1
2,1,19,F,proximal_repeated,1,43,0,1,1,2,172,4,2498,0,0.3898406,12.42911,1.770562,-1
2,1,19,F,proximal_repeated,1,43,0,1,2,1,170,2,4398,1,0.1156695,6.658882,0.9507989,-1
2,1,19,F,proximal_repeated,1,43,0,1,3,1,172,4,3209,0,0.1783268,6.614711,1.487932,-1
2,1,19,F,proximal_repeated,1,43,0,1,4,2,171,3,2353,0,0.06189121,12.38957,0.2811602,-1
2,1,19,F,proximal_repeated,1,43,0,1,5,1,169,1,1964,0,0.1600475,6.267876,1.417755,-1
2,1,19,F,proximal_repeated,1,43,0,1,6,1,171,3,3276,0,4.199034e-8,6.290819,0,-1
2,1,19,F,proximal_repeated,1,43,0,1,7,2,169,1,2109,1,0.9317236,12.27206,4.333863,-1
2,1,19,F,proximal_repeated,1,43,0,1,8,2,170,2,1209,0,0.3589574,12.46216,1.60876,-1
2,1,19,F,proximal_repeated,1,44,0,1,1,2,175,3,3142,1,0.9556137,12.37577,4.365024,-1
2,1,19,F,proximal_repeated,1,44,0,1,2,1,176,4,2565,0,5.794974e-8,6.624143,0,-1
2,1,19,F,proximal_repeated,1,44,0,1,3,1,173,1,2053,1,0.3830345,6.261886,3.363306,-1
2,1,19,F,proximal_repeated,1,44,0,1,4,1,174,2,2931,1,0.4907885,6.655828,4.013614,-1
2,1,19,F,proximal_repeated,1,44,0,1,5,1,175,3,2053,0,2.253072e-8,6.292226,0,-1
2,1,19,F,proximal_repeated,1,44,0,1,6,2,173,1,4609,5,0.4866197,12.2386,2.232042,-1
2,1,19,F,proximal_repeated,1,44,0,1,7,2,174,2,1676,0,0.5065932,12.4558,2.277182,-1
2,1,19,F,proximal_repeated,1,44,0,1,8,2,176,4,2598,0,0.5500251,12.44673,2.483647,-1
2,1,19,F,proximal_repeated,1,45,0,1,1,1,179,3,2953,0,9.894068e-8,6.292887,0,-1
2,1,19,F,proximal_repeated,1,45,0,1,2,2,177,1,1309,0,0.2784108,12.28562,1.273646,-1
2,1,19,F,proximal_repeated,1,45,0,1,3,2,180,4,1420,0,0.5283988,12.44976,2.348687,-1
2,1,19,F,proximal_repeated,1,45,0,1,4,2,178,2,1309,0,0.3385357,12.46794,1.515299,-1
2,1,19,F,proximal_repeated,1,45,0,1,5,1,180,4,2109,0,0.5205477,6.622675,4.306071,-1
2,1,19,F,proximal_repeated,1,45,0,1,6,1,177,1,5587,0,4.508686e-8,6.276657,0,-1
2,1,19,F,proximal_repeated,1,45,0,1,7,1,178,2,2465,0,0.2178096,6.658452,1.793515,-1
2,1,19,F,proximal_repeated,1,45,0,1,8,2,179,3,3209,0,0.9564567,12.39901,4.359322,-1
2,1,19,F,proximal_repeated,1,46,0,1,1,1,181,1,1565,0,0.4642744,6.282782,4.010246,-1
2,1,19,F,proximal_repeated,1,46,0,1,2,1,184,4,2431,0,9.264004e-8,6.616035,0,-1
2,1,19,F,proximal_repeated,1,46,0,1,3,2,182,2,1609,0,0.2700535,12.47585,1.2091750000000001,-1
2,1,19,F,proximal_repeated,1,46,0,1,4,1,183,3,3253,0,2.541393e-8,6.286429,0,-1
2,1,19,F,proximal_repeated,1,46,0,1,5,1,182,2,1831,0,0.5633033,6.66943,4.638654,-1
2,1,19,F,proximal_repeated,1,46,0,1,6,2,184,4,2876,0,1.022644e-7,12.44522,0,-1
2,1,19,F,proximal_repeated,1,46,0,1,7,2,183,3,2176,0,0.7463555,12.3843,3.404846,-1
2,1,19,F,proximal_repeated,1,46,0,1,8,2,181,1,7142,0,0.8558488,12.28942,3.921064,-1
2,1,19,F,proximal_repeated,1,47,0,1,1,2,188,4,1576,0,0.3403103,12.45305,1.535696,-1
2,1,19,F,proximal_repeated,1,47,0,1,2,2,187,3,2154,0,9.034721e-8,12.39641,0,-1
2,1,19,F,proximal_repeated,1,47,0,1,3,2,186,2,1698,0,0.7574686,12.47216,3.393788,-1
2,1,19,F,proximal_repeated,1,47,0,1,4,1,185,1,2898,1,7.435111e-8,6.27319,0,-1
2,1,19,F,proximal_repeated,1,47,0,1,5,1,186,2,3931,1,8.457215e-8,6.663879,0,-1
2,1,19,F,proximal_repeated,1,47,0,1,6,1,188,4,3020,0,1.112705e-7,6.619575,0.01978234,-1
2,1,19,F,proximal_repeated,1,47,0,1,7,1,187,3,2587,0,0.3120058,6.295145,2.751433,-1
2,1,19,F,proximal_repeated,1,47,0,1,8,2,185,1,1709,0,1.333288e-7,12.29004,0,-1
2,1,19,F,proximal_repeated,1,48,0,1,1,1,192,4,2376,0,0.05973488,6.621821,0.4961402,-1
2,1,19,F,proximal_repeated,1,48,0,1,2,2,190,2,1420,0,0.4723545,12.47438,2.115259,-1
2,1,19,F,proximal_repeated,1,48,0,1,3,1,191,3,1542,0,6.55379e-8,6.300314,0,-1
2,1,19,F,proximal_repeated,1,48,0,1,4,1,189,1,1653,0,0.1713964,6.279224,1.49161,-1
2,1,19,F,proximal_repeated,1,48,0,1,5,2,192,4,1542,0,0.3132003,12.44904,1.424365,-1
2,1,19,F,proximal_repeated,1,48,0,1,6,1,190,2,1787,0,0.2608119,6.664702,2.147307,-1
2,1,19,F,proximal_repeated,1,48,0,1,7,2,191,3,3198,0,0.7502293,12.38952,3.421824,-1
2,1,19,F,proximal_repeated,1,48,0,1,8,2,189,1,1476,0,0.9807077,12.28319,4.558575,-1
2,1,19,F,proximal_repeated,1,49,0,1,1,1,196,4,2353,0,0.1848623,6.621377,1.540785,-1
2,1,19,F,proximal_repeated,1,49,0,1,2,1,195,3,2076,0,0.1431774,6.295053,1.262226,-1
2,1,19,F,proximal_repeated,1,49,0,1,3,2,196,4,2131,0,0.0363883,12.45303,0.1643245,-1
2,1,19,F,proximal_repeated,1,49,0,1,4,1,193,1,2242,1,0.1190024,6.275235,1.051088,-1
2,1,19,F,proximal_repeated,1,49,0,1,5,1,194,2,2409,0,0.09662422,6.657362,0.7927822,-1
2,1,19,F,proximal_repeated,1,49,0,1,6,2,193,1,1620,0,0.8253018,12.28414,3.828071,-1
2,1,19,F,proximal_repeated,1,49,0,1,7,2,195,3,2198,0,0.1552625,12.39945,0.7069291,-1
2,1,19,F,proximal_repeated,1,49,0,1,8,2,194,2,1842,0,0.4257401,12.47783,1.905981,-1
2,1,19,F,proximal_repeated,1,50,0,1,1,2,200,4,1886,0,0.05997334,12.45538,0.2697954,-1
2,1,19,F,proximal_repeated,1,50,0,1,2,1,197,1,2331,1,0.03648499,6.277758,0.3220336,-1
2,1,19,F,proximal_repeated,1,50,0,1,3,1,200,4,2209,0,4.400915e-8,6.617743,0,-1
2,1,19,F,proximal_repeated,1,50,0,1,4,2,199,3,3542,2,1.010451,12.38905,4.626223,-1
2,1,19,F,proximal_repeated,1,50,0,1,5,1,198,2,3220,0,0.5120111,6.659491,4.184463,-1
2,1,19,F,proximal_repeated,1,50,0,1,6,2,197,1,2765,2,0.9755244,12.27397,4.519781,-1
2,1,19,F,proximal_repeated,1,50,0,1,7,1,199,3,3253,0,0.1912614,6.316545,1.665892,-1
2,1,19,F,proximal_repeated,1,50,0,1,8,2,198,2,1620,0,0.03478312,12.47439,0.1557664,-1
2,1,19,F,proximal_repeated,1,51,0,1,1,2,201,1,3031,0,0.8768423,12.28299,4.076262,-1
2,1,19,F,proximal_repeated,1,51,0,1,2,2,202,2,1431,0,0.640779,12.47255,2.870308,-1
2,1,19,F,proximal_repeated,1,51,0,1,3,1,204,4,2731,0,0.04506185,6.62411,0.3711503,-1
2,1,19,F,proximal_repeated,1,51,0,1,4,1,201,1,1765,0,0.4509674,6.272887,3.958937,-1
2,1,19,F,proximal_repeated,1,51,0,1,5,2,203,3,2409,0,0.5070364,12.39553,2.310798,-1
2,1,19,F,proximal_repeated,1,51,0,1,6,1,202,2,2320,0,0.3011871,6.666395,2.479308,-1
2,1,19,F,proximal_repeated,1,51,0,1,7,2,204,4,1920,0,0.2695481,12.45321,1.209013,-1
2,1,19,F,proximal_repeated,1,51,0,1,8,1,203,3,2809,0,5.5942e-8,6.30604,0.01978234,-1
2,1,19,F,proximal_repeated,1,52,0,1,1,1,206,2,2875,0,0.2156564,6.664478,1.775309,-1
2,1,19,F,proximal_repeated,1,52,0,1,2,2,208,4,1887,0,0.1053962,12.46105,0.4714689,-1
2,1,19,F,proximal_repeated,1,52,0,1,3,1,207,3,2098,0,0.02311403,6.30799,0.2017412,-1
2,1,19,F,proximal_repeated,1,52,0,1,4,2,205,1,1165,0,1.022148,12.29305,4.726214,-1
2,1,19,F,proximal_repeated,1,52,0,1,5,2,207,3,2642,0,0.6339241,12.40936,2.876712,-1
2,1,19,F,proximal_repeated,1,52,0,1,6,1,205,1,2509,0,0.458306,6.287374,3.978329,-1
2,1,19,F,proximal_repeated,1,52,0,1,7,1,208,4,2697,0,6.996839e-8,6.627439,0,-1
2,1,19,F,proximal_repeated,1,52,0,1,8,2,206,2,1542,0,0.5019118,12.48296,2.24533,-1
2,1,19,F,proximal_repeated,1,53,0,1,1,1,212,4,2220,0,0.07214615,6.624902,0.5964329,-1
2,1,19,F,proximal_repeated,1,53,0,1,2,2,209,1,1464,0,0.4403443,12.29575,2.029315,-1
2,1,19,F,proximal_repeated,1,53,0,1,3,2,210,2,2886,3,8.586645e-8,12.48507,0,-1
2,1,19,F,proximal_repeated,1,53,0,1,4,2,212,4,2531,0,0.07139422,12.46702,0.3208161,-1
2,1,19,F,proximal_repeated,1,53,0,1,5,2,211,3,2453,0,0.684859,12.41689,3.097119,-1
2,1,19,F,proximal_repeated,1,53,0,1,6,1,209,1,2242,1,0.2148234,6.270475,1.878157,-1
2,1,19,F,proximal_repeated,1,53,0,1,7,1,210,2,2709,1,0.1803215,6.658567,1.49933,-1
2,1,19,F,proximal_repeated,1,53,0,1,8,1,211,3,2176,0,0.4214177,6.299572,3.730509,-1
2,1,19,F,proximal_repeated,1,54,0,1,1,1,214,2,4787,0,0.0158346,6.667723,0.1312212,-1
2,1,19,F,proximal_repeated,1,54,0,1,2,1,213,1,2242,0,0.03487835,6.27258,0.3064671,-1
2,1,19,F,proximal_repeated,1,54,0,1,3,1,216,4,2887,0,1.514365e-7,6.633296,0,-1
2,1,19,F,proximal_repeated,1,54,0,1,4,1,215,3,2398,0,1.441725e-8,6.322103,0,-1
2,1,19,F,proximal_repeated,1,54,0,1,5,2,214,2,1409,0,0.04646861,12.47703,0.20842,-1
2,1,19,F,proximal_repeated,1,54,0,1,6,2,213,1,1520,0,0.3179539,12.29345,1.45293,-1
2,1,19,F,proximal_repeated,1,54,0,1,7,2,215,3,2276,0,0.2227244,12.41088,1.013557,-1
2,1,19,F,proximal_repeated,1,54,0,1,8,2,216,4,1965,0,0.092398,12.46679,0.4149588,-1
2,1,19,F,proximal_repeated,1,55,0,1,1,2,217,1,1420,0,0.90303,12.28894,4.157652,-1
2,1,19,F,proximal_repeated,1,55,0,1,2,1,219,3,2331,0,2.37272e-7,6.313829,0,-1
2,1,19,F,proximal_repeated,1,55,0,1,3,2,220,4,1565,0,0.3563861,12.46481,1.584491,-1
2,1,19,F,proximal_repeated,1,55,0,1,4,1,218,2,2709,0,0.4001714,6.659835,3.273631,-1
2,1,19,F,proximal_repeated,1,55,0,1,5,1,217,1,2298,1,0.2123394,6.267509,1.884917,-1
2,1,19,F,proximal_repeated,1,55,0,1,6,2,219,3,2109,0,0.6602422,12.41112,3.005764,-1
2,1,19,F,proximal_repeated,1,55,0,1,7,1,220,4,2664,0,0.05683532,6.633857,0.4677188,-1
2,1,19,F,proximal_repeated,1,55,0,1,8,2,218,2,2065,0,0.1974775,12.48051,0.8849231,-1
2,1,19,F,proximal_repeated,1,56,0,1,1,2,223,3,2298,0,0.6830869,12.43066,3.10501,-1
2,1,19,F,proximal_repeated,1,56,0,1,2,1,224,4,2942,0,0.1574434,6.626466,1.297846,-1
2,1,19,F,proximal_repeated,1,56,0,1,3,1,222,2,3698,4,0.3888327,6.670849,3.175457,-1
2,1,19,F,proximal_repeated,1,56,0,1,4,2,221,1,1276,0,0.5821194,12.28906,2.687734,-1
2,1,19,F,proximal_repeated,1,56,0,1,5,1,223,3,1609,0,6.909136e-8,6.309935,0,-1
2,1,19,F,proximal_repeated,1,56,0,1,6,1,221,1,1487,0,0.2982614,6.268435,2.640417,-1
2,1,19,F,proximal_repeated,1,56,0,1,7,2,224,4,2632,0,0.9484112,12.45043,4.303887,-1
2,1,19,F,proximal_repeated,1,56,0,1,8,2,222,2,1876,1,0.3408583,12.47766,1.524441,-1
2,1,19,F,proximal_repeated,1,57,0,1,1,4,225,1,1154,0,0.9645858,12.29298,4.40202,-1
2,1,19,F,proximal_repeated,1,57,0,1,2,3,226,2,7588,11,0.4798264,6.637971,3.968176,-1
2,1,19,F,proximal_repeated,1,57,0,1,3,3,225,1,3009,3,1.305183e-7,6.266037,0,-1
2,1,19,F,proximal_repeated,1,57,0,1,4,4,227,3,2909,1,0.1863492,12.4084,0.8478836,-1
2,1,19,F,proximal_repeated,1,57,0,1,5,3,228,4,3053,0,0.2221781,6.629562,1.826385,-1
2,1,19,F,proximal_repeated,1,57,0,1,6,3,227,3,2198,0,0.3902896,6.257757,3.371388,-1
2,1,19,F,proximal_repeated,1,57,0,1,7,4,228,4,2276,0,0.622066,12.47043,2.81668,-1
2,1,19,F,proximal_repeated,1,57,0,1,8,4,226,2,9254,2,0.4535301,12.48315,2.065259,-1
2,1,19,F,proximal_repeated,1,58,0,1,1,4,232,4,2598,0,0.3032025,12.49567,1.365301,-1
2,1,19,F,proximal_repeated,1,58,0,1,2,4,230,2,1353,0,0.8699391,12.46964,3.899129,-1
2,1,19,F,proximal_repeated,1,58,0,1,3,4,231,3,2309,0,0.6265941,12.4128,2.826047,-1
2,1,19,F,proximal_repeated,1,58,0,1,4,3,232,4,3031,0,0.4139182,6.657336,3.371969,-1
2,1,19,F,proximal_repeated,1,58,0,1,5,3,230,2,7675,11,0.3162289,6.659634,2.610221,-1
2,1,19,F,proximal_repeated,1,58,0,1,6,3,229,1,3398,6,0.07742725,6.258572,0.6792617,-1
2,1,19,F,proximal_repeated,1,58,0,1,7,3,231,3,2298,0,0.2489529,6.25265,2.211074,-1
2,1,19,F,proximal_repeated,1,58,0,1,8,4,229,1,1598,0,0.5702328,12.29347,2.638563,-1
2,1,19,F,proximal_repeated,1,59,0,1,1,3,234,2,3276,0,0.4565228,6.640971,3.720365,-1
2,1,19,F,proximal_repeated,1,59,0,1,2,3,236,4,2442,0,0.02976283,6.662032,0.2446942,-1
2,1,19,F,proximal_repeated,1,59,0,1,3,3,235,3,2298,0,1.628869e-7,6.301677,0,-1
2,1,19,F,proximal_repeated,1,59,0,1,4,4,234,2,1831,0,0.2777061,12.47965,1.245212,-1
2,1,19,F,proximal_repeated,1,59,0,1,5,4,235,3,2198,0,0.006274947,12.38714,0.03426402,-1
2,1,19,F,proximal_repeated,1,59,0,1,6,3,233,1,1342,0,0.3607785,6.21333,3.122865,-1
2,1,19,F,proximal_repeated,1,59,0,1,7,4,236,4,2398,0,0.8258572,12.50202,3.719312,-1
2,1,19,F,proximal_repeated,1,59,0,1,8,4,233,1,1476,0,0.2023503,12.24356,0.9251386,-1
2,1,19,F,proximal_repeated,1,60,0,1,1,4,239,3,2365,0,0.8024803,12.38669,3.617795,-1
2,1,19,F,proximal_repeated,1,60,0,1,2,3,238,2,2197,1,4.350645e-8,6.666777,0,-1
2,1,19,F,proximal_repeated,1,60,0,1,3,4,237,1,1331,0,0.5227686,12.2415,2.394246,-1
2,1,19,F,proximal_repeated,1,60,0,1,4,3,240,4,3131,0,3.406439e-8,6.64408,0,-1
2,1,19,F,proximal_repeated,1,60,0,1,5,4,238,2,1675,0,5.550513e-8,12.49763,0.01978234,-1
2,1,19,F,proximal_repeated,1,60,0,1,6,3,239,3,1854,0,0.05326392,6.265507,0.464781,-1
2,1,19,F,proximal_repeated,1,60,0,1,7,3,237,1,1531,0,0.2680227,6.283678,2.334226,-1
2,1,19,F,proximal_repeated,1,60,0,1,8,4,240,4,4097,0,0.5143251,12.50551,2.314522,-1
2,1,19,F,proximal_repeated,1,61,0,1,1,2,242,2,2264,1,0.4292817,12.48509,1.926407,-1
2,1,19,F,proximal_repeated,1,61,0,1,2,2,243,3,2876,0,1.006165,12.4173,4.603599,-1
2,1,19,F,proximal_repeated,1,61,0,1,3,2,241,1,1520,0,0.466379,12.29338,2.146213,-1
2,1,19,F,proximal_repeated,1,61,0,1,4,2,244,4,1487,0,0.1673296,12.47048,0.7561465,-1
2,1,19,F,proximal_repeated,1,61,0,1,5,1,242,2,3109,2,0.1153372,6.674198,0.9462603,-1
2,1,19,F,proximal_repeated,1,61,0,1,6,1,244,4,2042,0,0.06176279,6.639593,0.5066768,-1
2,1,19,F,proximal_repeated,1,61,0,1,7,1,243,3,2920,0,0.2186084,6.3258,1.899913,-1
2,1,19,F,proximal_repeated,1,61,0,1,8,1,241,1,1509,0,0.1883076,6.287354,1.634584,-1
2,1,19,F,proximal_repeated,1,62,0,1,1,2,246,2,2998,0,1.020551,12.48821,4.650168,-1
2,1,19,F,proximal_repeated,1,62,0,1,2,1,247,3,2353,0,0.0396617,6.311899,0.3471792,-1
2,1,19,F,proximal_repeated,1,62,0,1,3,2,245,1,1187,0,0.4256151,12.29343,1.957548,-1
2,1,19,F,proximal_repeated,1,62,0,1,4,1,248,4,2209,0,0.0676857,6.642381,0.555319,-1
2,1,19,F,proximal_repeated,1,62,0,1,5,2,247,3,2843,0,0.2096783,12.40732,0.9503872,-1
2,1,19,F,proximal_repeated,1,62,0,1,6,1,246,2,1787,0,2.416969e-7,6.674998,0,-1
2,1,19,F,proximal_repeated,1,62,0,1,7,2,248,4,1587,0,0.1790583,12.46877,0.7991739,-1
2,1,19,F,proximal_repeated,1,62,0,1,8,1,245,1,2376,1,0.4621463,6.272609,4.08351,-1
2,1,19,F,proximal_repeated,2,1,0,1,1,8,4,4,3718,0,2.026671,12.44139,9.064167,-1
2,1,19,F,proximal_repeated,2,1,0,1,2,8,2,2,3853,0,4.037394,12.43767,18.86481,-1
2,1,19,F,proximal_repeated,2,1,0,1,3,5,3,3,1376,0,2.958488,6.34241,27.80483,-1
2,1,19,F,proximal_repeated,2,1,0,1,4,6,2,2,1542,0,5.244593,12.45926,24.78701,-1
2,1,19,F,proximal_repeated,2,1,0,1,5,7,4,4,1854,0,5.029279,6.626781,49.37017,-1
2,1,19,F,proximal_repeated,2,1,0,1,6,8,1,1,876,0,6.093226,12.30727,29.49804,-1
2,1,19,F,proximal_repeated,2,1,0,1,7,8,3,3,1531,0,1.784493,12.41897,8.190743,-1
2,1,19,F,proximal_repeated,2,1,0,1,8,7,1,1,1376,0,4.037405,6.279899,40.00909,-1
2,1,19,F,proximal_repeated,2,1,0,1,9,6,3,3,953,0,8.897758,12.42709,45.72306,-1
2,1,19,F,proximal_repeated,2,1,0,1,10,6,1,1,2076,0,10.00575,12.31467,54.34156,-1
2,1,19,F,proximal_repeated,2,1,0,1,11,5,4,4,1198,0,5.193005,6.632676,51.5308,-1
2,1,19,F,proximal_repeated,2,1,0,1,12,7,2,2,1176,0,3.897556,6.613916,35.96782,-1
2,1,19,F,proximal_repeated,2,1,0,1,13,7,3,3,1298,0,3.973677,6.338817,38.82029,-1
2,1,19,F,proximal_repeated,2,1,0,1,14,6,4,4,1876,0,3.775096,12.47463,17.43205,-1
2,1,19,F,proximal_repeated,2,1,0,1,15,5,2,2,2131,0,2.853606,6.613601,24.6745,-1
2,1,19,F,proximal_repeated,2,1,0,1,16,5,1,1,1853,0,3.266272,6.292763,31.2687,-1
2,1,19,F,proximal_repeated,2,2,0,1,1,6,4,4,1520,0,2.353485,12.44322,10.82391,-1
2,1,19,F,proximal_repeated,2,2,0,1,2,5,2,2,1120,0,3.205606,6.611763,28.75042,-1
2,1,19,F,proximal_repeated,2,2,0,1,3,7,4,4,1698,0,4.784841,6.637156,46.13025,-1
2,1,19,F,proximal_repeated,2,2,0,1,4,8,2,2,4209,0,3.898073,12.43241,18.19828,-1
2,1,19,F,proximal_repeated,2,2,0,1,5,8,4,4,2331,0,1.591124,12.45253,7.098709,-1
2,1,19,F,proximal_repeated,2,2,0,1,6,5,3,3,676,0,2.201641,6.345848,19.83741,-1
2,1,19,F,proximal_repeated,2,2,0,1,7,8,1,1,598,0,2.77535,12.29604,12.97219,-1
2,1,19,F,proximal_repeated,2,2,0,1,8,7,3,3,865,0,3.519243,6.344727,32.84292,-1
2,1,19,F,proximal_repeated,2,2,0,1,9,6,1,1,1265,0,7.857028,12.29517,39.71979,-1
2,1,19,F,proximal_repeated,2,2,0,1,10,5,4,4,998,0,4.119042,6.647693,37.15862,-1
2,1,19,F,proximal_repeated,2,2,0,1,11,6,2,2,1331,0,6.365367,12.43674,30.78509,-1
2,1,19,F,proximal_repeated,2,2,0,1,12,7,1,1,1842,0,2.861077,6.263575,27.17953,-1
2,1,19,F,proximal_repeated,2,2,0,1,13,8,3,3,2053,0,6.907741,12.46211,33.65034,-1
2,1,19,F,proximal_repeated,2,2,0,1,14,5,1,1,1520,0,4.739453,6.291341,48.65274,-1
2,1,19,F,proximal_repeated,2,2,0,1,15,6,3,3,1520,0,3.130392,12.422180000000001,14.56984,-1
2,1,19,F,proximal_repeated,2,2,0,1,16,7,2,2,1286,0,3.544294,6.611304,32.41827,-1
2,10,18,M,distal_repeated,1,1,0,1,1,1,3,3,2153,0,7.008815e-8,6.185014,0,-1
2,10,18,M,distal_repeated,1,1,0,1,2,1,4,4,4976,0,0.2685918,6.343131,2.33129,-1
2,10,18,M,distal_repeated,1,1,0,1,3,2,1,1,2231,0,0.002364765,12.21977,0,-1
2,10,18,M,distal_repeated,1,1,0,1,4,2,2,2,2476,0,0.1006732,12.48524,0.4511079,-1
2,10,18,M,distal_repeated,1,1,0,1,5,2,4,4,1998,0,6.320857e-8,12.36989,0,-1
2,10,18,M,distal_repeated,1,1,0,1,6,1,2,2,2153,0,0.5632402,6.571573,4.643804,-1
2,10,18,M,distal_repeated,1,1,0,1,7,1,1,1,2176,0,0.1325914,6.263188,1.147395,-1
2,10,18,M,distal_repeated,1,1,0,1,8,2,3,3,9999,0,-1,-1,-1,-1
2,10,18,M,distal_repeated,1,2,0,1,1,2,6,2,1564,0,0.5489373,12.46896,2.453916,-1
2,10,18,M,distal_repeated,1,2,0,1,2,2,8,4,3831,0,0.6794156,12.35282,3.058895,-1
2,10,18,M,distal_repeated,1,2,0,1,3,1,5,1,2431,0,0.1298808,6.262065,1.124135,-1
2,10,18,M,distal_repeated,1,2,0,1,4,1,7,3,2720,0,7.629844e-8,6.177445,0,-1
2,10,18,M,distal_repeated,1,2,0,1,5,2,5,1,2420,0,0.3298186,12.20742,1.510384,-1
2,10,18,M,distal_repeated,1,2,0,1,6,1,6,2,3298,0,0.2481896,6.566875,2.045836,-1
2,10,18,M,distal_repeated,1,2,0,1,7,1,8,4,3864,0,0.3371577,6.321326,2.917724,-1
2,10,18,M,distal_repeated,1,2,0,1,8,2,7,3,9999,0,-1,-1,-1,-1
2,10,18,M,distal_repeated,1,3,0,1,1,2,9,1,1509,0,1.475931e-7,12.1998,0,-1
2,10,18,M,distal_repeated,1,3,0,1,2,1,12,4,4253,0,0.3218327,6.322482,2.802607,-1
2,10,18,M,distal_repeated,1,3,0,1,3,2,11,3,9999,0,-1,-1,-1,-1
2,10,18,M,distal_repeated,1,3,0,1,4,2,12,4,3731,0,0.09452704,12.3465,0.4284154,-1
2,10,18,M,distal_repeated,1,3,0,1,5,2,10,2,1542,0,0.4582978,12.4611,2.051472,-1
2,10,18,M,distal_repeated,1,3,0,1,6,1,9,1,2476,0,0.05948016,6.241686,0.5185105,-1
2,10,18,M,distal_repeated,1,3,0,1,7,1,10,2,4675,0,0.3061249,6.55224,2.524837,-1
2,10,18,M,distal_repeated,1,3,0,1,8,1,11,3,7753,0,0.110968,6.16745,0.9837734,-1
2,10,18,M,distal_repeated,1,4,0,1,1,1,14,2,3487,1,0.1945815,6.550621,1.607665,-1
2,10,18,M,distal_repeated,1,4,0,1,2,1,15,3,2098,0,4.924071e-8,6.156536,0.01978234,-1
2,10,18,M,distal_repeated,1,4,0,1,3,2,14,2,1209,0,6.802379e-8,12.4579,0,-1
2,10,18,M,distal_repeated,1,4,0,1,4,2,15,3,9999,1,-1,-1,-1,-1
2,10,18,M,distal_repeated,1,4,0,1,5,1,13,1,1942,0,7.794575e-8,6.244173,0,-1
2,10,18,M,distal_repeated,1,4,0,1,6,1,16,4,3720,0,0.2245367,6.333065,1.951741,-1
2,10,18,M,distal_repeated,1,4,0,1,7,2,13,1,2198,0,0.05508987,12.20315,0.2533378,-1
2,10,18,M,distal_repeated,1,4,0,1,8,2,16,4,6831,0,0.4162308,12.35026,1.88471,-1
2,10,18,M,distal_repeated,1,5,0,1,1,1,19,3,2042,0,0.30496,6.191941,2.674447,-1
2,10,18,M,distal_repeated,1,5,0,1,2,1,18,2,1987,0,0.1455054,6.57601,1.197793,-1
2,10,18,M,distal_repeated,1,5,0,1,3,1,20,4,4142,0,0.2244032,6.333829,1.950336,-1
2,10,18,M,distal_repeated,1,5,0,1,4,2,19,3,9999,0,-1,-1,-1,-1
2,10,18,M,distal_repeated,1,5,0,1,5,2,17,1,1620,0,0.04280299,12.20572,0.1968319,-1
2,10,18,M,distal_repeated,1,5,0,1,6,2,20,4,3165,0,0.01362892,12.35083,0.06255726,-1
2,10,18,M,distal_repeated,1,5,0,1,7,1,17,1,1687,0,0.1634359,6.255587,1.417203,-1
2,10,18,M,distal_repeated,1,5,0,1,8,2,18,2,1253,0,1.344039e-7,12.47002,0,-1
2,10,18,M,distal_repeated,1,6,0,1,1,1,21,1,2109,0,0.04760809,6.254154,0.4149588,-1
2,10,18,M,distal_repeated,1,6,0,1,2,1,22,2,1753,0,0.1558242,6.565151,1.285575,-1
2,10,18,M,distal_repeated,1,6,0,1,3,1,23,3,1965,0,0.3863362,6.172604,3.407605,-1
2,10,18,M,distal_repeated,1,6,0,1,4,2,21,1,2109,0,0.1778504,12.20487,0.81781,-1
2,10,18,M,distal_repeated,1,6,0,1,5,1,24,4,4853,0,0.2499675,6.329866,2.170785,-1
2,10,18,M,distal_repeated,1,6,0,1,6,2,23,3,9999,0,-1,-1,-1,-1
2,10,18,M,distal_repeated,1,6,0,1,7,2,22,2,1376,0,0.2980191,12.47055,1.336766,-1
2,10,18,M,distal_repeated,1,6,0,1,8,2,24,4,2942,0,6.433795e-8,12.35006,0.01978234,-1
2,10,18,M,distal_repeated,1,7,0,1,1,2,26,2,1598,0,0.1715783,12.47172,0.7732905,-1
2,10,18,M,distal_repeated,1,7,0,1,2,2,28,4,3342,0,0.7743019,12.35155,3.504814,-1
2,10,18,M,distal_repeated,1,7,0,1,3,1,25,1,4653,0,0.3457019,6.250715,3.033769,-1
2,10,18,M,distal_repeated,1,7,0,1,4,1,26,2,2453,0,0.3521949,6.556565,2.893741,-1
2,10,18,M,distal_repeated,1,7,0,1,5,2,27,3,9999,0,-1,-1,-1,-1
2,10,18,M,distal_repeated,1,7,0,1,6,1,28,4,2198,0,0.413599,6.327772,3.599837,-1
2,10,18,M,distal_repeated,1,7,0,1,7,1,27,3,1664,0,0.04063548,6.175962,0.3599087,-1
2,10,18,M,distal_repeated,1,7,0,1,8,2,25,1,1476,0,0.2812371,12.20418,1.289375,-1
2,10,18,M,distal_repeated,1,8,0,1,1,2,32,4,2831,0,0.5598821,12.35662,2.565977,-1
2,10,18,M,distal_repeated,1,8,0,1,2,1,30,2,4242,0,0.2176047,6.581233,1.8312,-1
2,10,18,M,distal_repeated,1,8,0,1,3,2,31,3,9999,2,-1,-1,-1,-1
2,10,18,M,distal_repeated,1,8,0,1,4,1,29,1,1920,0,0.1796122,6.273856,1.548007,-1
2,10,18,M,distal_repeated,1,8,0,1,5,1,32,4,3542,0,0.2232769,6.341197,1.938257,-1
2,10,18,M,distal_repeated,1,8,0,1,6,2,30,2,1120,0,0.4693985,12.49005,2.095832,-1
2,10,18,M,distal_repeated,1,8,0,1,7,2,29,1,5587,0,0.6303382,12.21081,2.924158,-1
2,10,18,M,distal_repeated,1,8,0,1,8,1,31,3,5487,0,0.1938654,6.191705,1.705939,-1
2,10,18,M,distal_repeated,1,9,0,1,1,2,36,4,1498,0,0.6851921,12.37557,3.09497,-1
2,10,18,M,distal_repeated,1,9,0,1,2,2,35,3,9999,0,-1,-1,-1,-1
2,10,18,M,distal_repeated,1,9,0,1,3,1,36,4,2486,0,0.4981712,6.343165,4.32409,-1
2,10,18,M,distal_repeated,1,9,0,1,4,1,35,3,1920,0,0.1321111,6.192926,1.166172,-1
2,10,18,M,distal_repeated,1,9,0,1,5,2,34,2,1198,0,0.6417367,12.49,2.861771,-1
2,10,18,M,distal_repeated,1,9,0,1,6,2,33,1,4965,0,0.4144887,12.21539,1.913053,-1
2,10,18,M,distal_repeated,1,9,0,1,7,1,34,2,1842,0,0.442358,6.579791,3.760517,-1
2,10,18,M,distal_repeated,1,9,0,1,8,1,33,1,2431,0,6.93957e-9,6.269153,0,-1
2,10,18,M,distal_repeated,1,10,0,1,1,2,40,4,3342,0,0.2515121,12.35336,1.14603,-1
2,10,18,M,distal_repeated,1,10,0,1,2,1,39,3,1720,0,0.2894361,6.188823,2.550829,-1
2,10,18,M,distal_repeated,1,10,0,1,3,1,38,2,1587,0,0.2897816,6.575868,2.385975,-1
2,10,18,M,distal_repeated,1,10,0,1,4,1,40,4,2887,1,1.19723e-7,6.338861,0,-1
2,10,18,M,distal_repeated,1,10,0,1,5,2,37,1,2053,0,0.1637279,12.20783,0.7512136,-1
2,10,18,M,distal_repeated,1,10,0,1,6,2,38,2,1520,0,0.3981849,12.47583,1.781252,-1
2,10,18,M,distal_repeated,1,10,0,1,7,2,39,3,9999,0,-1,-1,-1,-1
2,10,18,M,distal_repeated,1,10,0,1,8,1,37,1,1720,0,0.2904815,6.255808,2.531186,-1
2,10,18,M,distal_repeated,1,11,0,1,1,2,43,3,9999,0,-1,-1,-1,-1
2,10,18,M,distal_repeated,1,11,0,1,2,2,42,2,909,0,0.1523145,12.46997,0.6835691,-1
2,10,18,M,distal_repeated,1,11,0,1,3,1,41,1,1631,0,0.05373939,6.248695,0.4710537,-1
2,10,18,M,distal_repeated,1,11,0,1,4,1,42,2,2353,0,8.66487e-8,6.578343,0,-1
2,10,18,M,distal_repeated,1,11,0,1,5,2,41,1,1865,0,1.915305e-7,12.19622,0,-1
2,10,18,M,distal_repeated,1,11,0,1,6,1,44,4,4531,0,0.294862,6.320024,2.568722,-1
2,10,18,M,distal_repeated,1,11,0,1,7,1,43,3,9999,0,-1,-1,-1,-1
2,10,18,M,distal_repeated,1,11,0,1,8,2,44,4,3420,0,1.992463e-7,12.37913,0,-1
2,10,18,M,distal_repeated,1,12,0,1,1,2,46,2,1276,0,0.1608307,12.49271,0.721179,-1
2,10,18,M,distal_repeated,1,12,0,1,2,2,45,1,1953,0,0.2503025,12.22363,1.14603,-1
2,10,18,M,distal_repeated,1,12,0,1,3,2,48,4,1387,0,0.04513695,12.37986,0.2036718,-1
2,10,18,M,distal_repeated,1,12,0,1,4,1,47,3,1820,0,5.550782e-8,6.199779,0,-1
2,10,18,M,distal_repeated,1,12,0,1,5,1,46,2,2331,0,5.042976e-8,6.594717,0,-1
2,10,18,M,distal_repeated,1,12,0,1,6,1,48,4,3431,0,0.4437323,6.349662,3.849241,-1
2,10,18,M,distal_repeated,1,12,0,1,7,1,45,1,2531,0,3.747844e-7,6.27142,0,-1
2,10,18,M,distal_repeated,1,12,0,1,8,2,47,3,6698,0,0.7406674,12.18133,3.444749,-1
2,10,18,M,distal_repeated,1,13,0,1,1,2,52,4,1886,0,0.1098967,12.37894,0.4985009,-1
2,10,18,M,distal_repeated,1,13,0,1,2,1,49,1,1931,0,0.3719378,6.291933,3.224158,-1
2,10,18,M,distal_repeated,1,13,0,1,3,1,50,2,4365,0,0.1755165,6.588568,1.443065,-1
2,10,18,M,distal_repeated,1,13,0,1,4,1,51,3,3342,0,0.2925386,6.200171,2.565748,-1
2,10,18,M,distal_repeated,1,13,0,1,5,2,50,2,1054,0,0.06141577,12.50347,0.2755364,-1
2,10,18,M,distal_repeated,1,13,0,1,6,2,49,1,1764,0,0.1003858,12.22963,0.4601268,-1
2,10,18,M,distal_repeated,1,13,0,1,7,2,51,3,9999,1,-1,-1,-1,-1
2,10,18,M,distal_repeated,1,13,0,1,8,1,52,4,2064,0,0.2449136,6.34976,2.123293,-1
2,10,18,M,distal_repeated,1,14,0,1,1,2,53,1,1776,0,0.0399926,12.23018,0.183454,-1
2,10,18,M,distal_repeated,1,14,0,1,2,1,56,4,2631,0,0.2509826,6.389315,2.139271,-1
2,10,18,M,distal_repeated,1,14,0,1,3,1,53,1,1531,0,1.051878e-7,6.279752,0,-1
2,10,18,M,distal_repeated,1,14,0,1,4,2,55,3,9999,0,-1,-1,-1,-1
2,10,18,M,distal_repeated,1,14,0,1,5,2,54,2,1253,0,9.753737e-8,12.50502,0,-1
2,10,18,M,distal_repeated,1,14,0,1,6,2,56,4,4331,0,0.2680508,12.38639,1.211923,-1
2,10,18,M,distal_repeated,1,14,0,1,7,1,55,3,1898,0,0.4473572,6.207018,3.907407,-1
2,10,18,M,distal_repeated,1,14,0,1,8,1,54,2,4031,0,0.2153394,6.591149,1.768572,-1
2,10,18,M,distal_repeated,1,15,0,1,1,1,60,4,2287,0,0.2451755,6.360945,2.099563,-1
2,10,18,M,distal_repeated,1,15,0,1,2,1,58,2,2187,0,0.1675054,6.594788,1.376293,-1
2,10,18,M,distal_repeated,1,15,0,1,3,2,57,1,1698,0,0.4255658,12.22947,1.946821,-1
2,10,18,M,distal_repeated,1,15,0,1,4,2,58,2,1298,0,0.1860425,12.506,0.8325126,-1
2,10,18,M,distal_repeated,1,15,0,1,5,1,59,3,1765,0,1.480356e-7,6.19818,0,-1
2,10,18,M,distal_repeated,1,15,0,1,6,2,60,4,6964,0,1.494678e-7,12.39591,0.01978234,-1
2,10,18,M,distal_repeated,1,15,0,1,7,2,59,3,9999,1,-1,-1,-1,-1
2,10,18,M,distal_repeated,1,15,0,1,8,1,57,1,1654,0,0.09590213,6.276588,0.829923,-1
2,10,18,M,distal_repeated,1,16,0,1,1,1,63,3,1609,0,0.06689943,6.19971,0.5908293,-1
2,10,18,M,distal_repeated,1,16,0,1,2,1,62,2,1865,0,0.2083216,6.597959,1.708575,-1
2,10,18,M,distal_repeated,1,16,0,1,3,1,61,1,1509,0,0.3538062,6.269333,3.084071,-1
2,10,18,M,distal_repeated,1,16,0,1,4,2,64,4,2153,0,0.1745814,12.39083,0.7873334,-1
2,10,18,M,distal_repeated,1,16,0,1,5,2,62,2,1109,0,0.06224892,12.51272,0.2797648,-1
2,10,18,M,distal_repeated,1,16,0,1,6,2,63,3,9999,0,-1,-1,-1,-1
2,10,18,M,distal_repeated,1,16,0,1,7,2,61,1,4453,0,0.6612989,12.23221,3.072878,-1
2,10,18,M,distal_repeated,1,16,0,1,8,1,64,4,4720,1,0.05835625,6.36264,0.5028,-1
2,10,18,M,distal_repeated,1,17,0,1,1,3,67,3,1509,0,0.1751787,6.191008,1.542181,-1
2,10,18,M,distal_repeated,1,17,0,1,2,4,65,1,4198,1,0.08203748,12.23275,0.3769049,-1
2,10,18,M,distal_repeated,1,17,0,1,3,4,66,2,898,0,0.1428864,12.50019,0.6404136,-1
2,10,18,M,distal_repeated,1,17,0,1,4,4,68,4,5153,0,0.8647904,12.41422,3.945212,-1
2,10,18,M,distal_repeated,1,17,0,1,5,3,65,1,2742,0,0.08415732,6.292299,0.7340872,-1
2,10,18,M,distal_repeated,1,17,0,1,6,3,66,2,6042,1,0.04805941,6.605171,0.3971285,-1
2,10,18,M,distal_repeated,1,17,0,1,7,3,68,4,2920,0,0.3414843,6.372175,2.930711,-1
2,10,18,M,distal_repeated,1,17,0,1,8,4,67,3,1731,0,7.758472e-8,12.21827,0,-1
2,10,18,M,distal_repeated,1,18,0,1,1,3,69,1,3909,0,0.1494436,6.295476,1.295431,-1
2,10,18,M,distal_repeated,1,18,0,1,2,3,72,4,2686,0,1.980848e-7,6.393352,0,-1
2,10,18,M,distal_repeated,1,18,0,1,3,3,71,3,2487,0,0.1540097,6.178386,1.357106,-1
2,10,18,M,distal_repeated,1,18,0,1,4,3,70,2,3642,0,0.2345008,6.627536,1.917753,-1
2,10,18,M,distal_repeated,1,18,0,1,5,4,72,4,7531,0,0.298271,12.38778,1.343775,-1
2,10,18,M,distal_repeated,1,18,0,1,6,4,69,1,3331,0,2.021844e-7,12.23895,0,-1
2,10,18,M,distal_repeated,1,18,0,1,7,4,71,3,1409,0,0.8720274,12.20593,3.996059,-1
2,10,18,M,distal_repeated,1,18,0,1,8,4,70,2,1131,0,0.2645319,12.50227,1.189597,-1
2,10,18,M,distal_repeated,1,19,0,1,1,3,75,3,1698,0,0.3453677,6.201926,3.02621,-1
2,10,18,M,distal_repeated,1,19,0,1,2,4,74,2,1376,0,0.3234135,12.5464,1.455084,-1
2,10,18,M,distal_repeated,1,19,0,1,3,4,76,4,1642,0,0.1799593,12.38363,0.8127698,-1
2,10,18,M,distal_repeated,1,19,0,1,4,4,73,1,1609,0,7.341858e-8,12.25699,0,-1
2,10,18,M,distal_repeated,1,19,0,1,5,3,76,4,2520,0,5.964055e-8,6.368006,0,-1
2,10,18,M,distal_repeated,1,19,0,1,6,3,73,1,6442,0,0.1555057,6.28358,1.355808,-1
2,10,18,M,distal_repeated,1,19,0,1,7,3,74,2,1553,0,0.08697787,6.606015,0.7154584,-1
2,10,18,M,distal_repeated,1,19,0,1,8,4,75,3,2087,0,0.3857857,12.21912,1.776301,-1
2,10,18,M,distal_repeated,1,20,0,1,1,3,77,1,3098,0,0.4897074,6.28493,4.18184,-1
2,10,18,M,distal_repeated,1,20,0,1,2,4,79,3,2764,1,0.5658876,12.21583,2.613293,-1
2,10,18,M,distal_repeated,1,20,0,1,3,4,80,4,1887,0,0.5049794,12.4061,2.267881,-1
2,10,18,M,distal_repeated,1,20,0,1,4,3,79,3,1631,0,0.016609,6.214992,0.14537,-1
2,10,18,M,distal_repeated,1,20,0,1,5,3,78,2,2365,0,8.290243e-8,6.628313,0,-1
2,10,18,M,distal_repeated,1,20,0,1,6,4,77,1,1876,0,0.3556125,12.25215,1.624135,-1
2,10,18,M,distal_repeated,1,20,0,1,7,3,80,4,2876,0,0.406987,6.372393,3.486611,-1
2,10,18,M,distal_repeated,1,20,0,1,8,4,78,2,1098,0,0.8752868,12.5018,3.925906,-1
2,10,18,M,distal_repeated,1,21,0,1,1,1,77,1,3842,0,0.1707704,6.291629,1.476313,-1
2,10,18,M,distal_repeated,1,21,0,1,2,2,79,3,9999,0,-1,-1,-1,-1
2,10,18,M,distal_repeated,1,21,0,1,3,2,80,4,2676,0,0.1692172,12.40325,0.7669383,-1
2,10,18,M,distal_repeated,1,21,0,1,4,2,77,1,1809,0,0.1430027,12.24722,0.65342,-1
2,10,18,M,distal_repeated,1,21,0,1,5,2,78,2,1165,0,0.3774901,12.52313,1.682723,-1
2,10,18,M,distal_repeated,1,21,0,1,6,1,80,4,2731,0,0.1564225,6.368022,1.335009,-1
2,10,18,M,distal_repeated,1,21,0,1,7,1,79,3,1376,0,0.1590222,6.214486,1.398158,-1
2,10,18,M,distal_repeated,1,21,0,1,8,1,78,2,1631,1,0.01861432,6.619195,0.1545051,-1
2,10,18,M,distal_repeated,1,22,0,1,1,1,84,4,2998,0,0.1337879,6.373975,1.155552,-1
2,10,18,M,distal_repeated,1,22,0,1,2,2,81,1,1998,0,0.3578033,12.25851,1.630629,-1
2,10,18,M,distal_repeated,1,22,0,1,3,2,84,4,1487,0,0.5569417,12.40911,2.495832,-1
2,10,18,M,distal_repeated,1,22,0,1,4,2,82,2,820,0,0.5111645,12.52935,2.275377,-1
2,10,18,M,distal_repeated,1,22,0,1,5,2,83,3,9999,0,-1,-1,-1,-1
2,10,18,M,distal_repeated,1,22,0,1,6,1,82,2,1609,0,0.2271112,6.610067,1.859201,-1
2,10,18,M,distal_repeated,1,22,0,1,7,1,83,3,2053,0,0.05770659,6.226113,0.509757,-1
2,10,18,M,distal_repeated,1,22,0,1,8,1,81,1,3076,0,0.5158932,6.290065,4.591585,-1
2,10,18,M,distal_repeated,1,23,0,1,1,1,86,2,1531,0,0.3203874,6.605176,2.626592,-1
2,10,18,M,distal_repeated,1,23,0,1,2,1,85,1,1387,0,0.2544785,6.280792,2.219467,-1
2,10,18,M,distal_repeated,1,23,0,1,3,2,87,3,9999,0,-1,-1,-1,-1
2,10,18,M,distal_repeated,1,23,0,1,4,1,88,4,2209,0,0.01918416,6.380085,0.1631294,-1
2,10,18,M,distal_repeated,1,23,0,1,5,1,87,3,1742,0,0.08464528,6.221151,0.7449358,-1
2,10,18,M,distal_repeated,1,23,0,1,6,2,86,2,920,0,0.1122485,12.52126,0.5039662,-1
2,10,18,M,distal_repeated,1,23,0,1,7,2,88,4,1242,0,0.8036066,12.40597,3.610427,-1
2,10,18,M,distal_repeated,1,23,0,1,8,2,85,1,3476,0,0.7999282,12.24034,3.717469,-1
2,10,18,M,distal_repeated,1,24,0,1,1,1,92,4,2842,1,0.1895174,6.391351,1.61034,-1
2,10,18,M,distal_repeated,1,24,0,1,2,1,89,1,1909,0,0.2242071,6.290754,1.938055,-1
2,10,18,M,distal_repeated,1,24,0,1,3,2,91,3,4476,1,0.7792746,12.23893,3.542929,-1
2,10,18,M,distal_repeated,1,24,0,1,4,2,90,2,1598,0,0.1239399,12.53871,0.5560232,-1
2,10,18,M,distal_repeated,1,24,0,1,5,1,91,3,1553,0,0.4532771,6.220494,4.055648,-1
2,10,18,M,distal_repeated,1,24,0,1,6,2,92,4,1331,0,0.5874406,12.42812,2.641603,-1
2,10,18,M,distal_repeated,1,24,0,1,7,2,89,1,1565,0,0.213406,12.25529,0.9797872,-1
2,10,18,M,distal_repeated,1,24,0,1,8,1,90,2,1487,0,0.1885847,6.613876,1.545097,-1
2,10,18,M,distal_repeated,1,25,0,1,1,1,96,4,1953,0,0.1209597,6.39864,1.039482,-1
2,10,18,M,distal_repeated,1,25,0,1,2,2,93,1,3709,0,0.08123794,12.25177,0.3722032,-1
2,10,18,M,distal_repeated,1,25,0,1,3,2,95,3,7153,0,0.3850973,12.28564,1.762586,-1
2,10,18,M,distal_repeated,1,25,0,1,4,1,93,1,3620,0,0.4275722,6.321198,3.73308,-1
2,10,18,M,distal_repeated,1,25,0,1,5,2,94,2,920,0,0.2245979,12.5523,1.002101,-1
2,10,18,M,distal_repeated,1,25,0,1,6,1,95,3,2331,0,0.1402097,6.222817,1.244741,-1
2,10,18,M,distal_repeated,1,25,0,1,7,2,96,4,1176,0,0.5671734,12.43678,2.549678,-1
2,10,18,M,distal_repeated,1,25,0,1,8,1,94,2,1387,0,0.06519745,6.632354,0.5344914,-1
2,10,18,M,distal_repeated,1,26,0,1,1,2,97,1,3553,0,0.1379946,12.27454,0.629007,-1
2,10,18,M,distal_repeated,1,26,0,1,2,1,98,2,1231,0,0.5064015,6.613448,4.147985,-1
2,10,18,M,distal_repeated,1,26,0,1,3,1,97,1,1598,0,0.07992411,6.300135,0.690405,-1
2,10,18,M,distal_repeated,1,26,0,1,4,2,100,4,1465,0,0.3979943,12.44713,1.782789,-1
2,10,18,M,distal_repeated,1,26,0,1,5,1,99,3,1587,0,9.224163e-8,6.265968,0,-1
2,10,18,M,distal_repeated,1,26,0,1,6,2,98,2,820,0,0.1303332,12.55801,0.5808088,-1
2,10,18,M,distal_repeated,1,26,0,1,7,2,99,3,9999,0,-1,-1,-1,-1
2,10,18,M,distal_repeated,1,26,0,1,8,1,100,4,5220,0,0.0818596,6.480512,0.6918207,-1
2,10,18,M,distal_repeated,1,27,0,1,1,1,102,2,3187,0,0.2115698,6.55092,1.746525,-1
2,10,18,M,distal_repeated,1,27,0,1,2,1,101,1,1853,0,0.01206748,6.236457,0.1046783,-1
2,10,18,M,distal_repeated,1,27,0,1,3,2,102,2,931,0,0.3503277,12.47405,1.575201,-1
2,10,18,M,distal_repeated,1,27,0,1,4,2,103,3,9999,0,-1,-1,-1,-1
2,10,18,M,distal_repeated,1,27,0,1,5,2,104,4,1720,0,0.09648046,12.34322,0.4383485,-1
2,10,18,M,distal_repeated,1,27,0,1,6,1,103,3,1720,0,0.1966871,6.166354,1.739676,-1
2,10,18,M,distal_repeated,1,27,0,1,7,2,101,1,3242,0,0.1084331,12.18427,0.4985009,-1
2,10,18,M,distal_repeated,1,27,0,1,8,1,104,4,3164,0,0.0892592,6.363405,0.7638705,-1
2,10,18,M,distal_repeated,1,28,0,1,1,2,106,2,842,0,0.06784837,12.47225,0.3045456,-1
2,10,18,M,distal_repeated,1,28,0,1,2,1,108,4,3909,0,0.1540174,6.352579,1.317004,-1
2,10,18,M,distal_repeated,1,28,0,1,3,2,105,1,1831,0,6.538531e-8,12.18819,0,-1
2,10,18,M,distal_repeated,1,28,0,1,4,1,106,2,9999,2,-1,-1,-1,-1
2,10,18,M,distal_repeated,1,28,0,1,5,2,108,4,1876,0,0.1219198,12.36407,0.5528469,-1
2,10,18,M,distal_repeated,1,28,0,1,6,1,107,3,1387,0,0.01366643,6.173395,0.1219466,-1
2,10,18,M,distal_repeated,1,28,0,1,7,1,105,1,1753,0,0.004922861,6.242536,0.03426402,-1
2,10,18,M,distal_repeated,1,28,0,1,8,2,107,3,9999,0,-1,-1,-1,-1
2,10,18,M,distal_repeated,1,29,0,1,1,2,112,4,1486,0,0.3665727,12.37409,1.652327,-1
2,10,18,M,distal_repeated,1,29,0,1,2,1,111,3,1598,0,0.2130913,6.176347,1.904748,-1
2,10,18,M,distal_repeated,1,29,0,1,3,2,109,1,1887,0,0.4050437,12.19145,1.877531,-1
2,10,18,M,distal_repeated,1,29,0,1,4,1,112,4,3176,0,0.04549143,6.372251,0.3901695,-1
2,10,18,M,distal_repeated,1,29,0,1,5,1,109,1,1398,0,0.4276944,6.234086,3.818699,-1
2,10,18,M,distal_repeated,1,29,0,1,6,2,110,2,831,0,0.3080166,12.48518,1.389171,-1
2,10,18,M,distal_repeated,1,29,0,1,7,2,111,3,9999,0,-1,-1,-1,-1
2,10,18,M,distal_repeated,1,29,0,1,8,1,110,2,4109,0,0.1821195,6.570882,1.501287,-1
2,10,18,M,distal_repeated,1,30,0,1,1,1,115,3,1664,0,8.625651e-8,6.190731,0,-1
2,10,18,M,distal_repeated,1,30,0,1,2,1,116,4,2254,0,3.493175e-7,6.353971,0,-1
2,10,18,M,distal_repeated,1,30,0,1,3,1,114,2,1375,0,0.2076081,6.567247,1.70548,-1
2,10,18,M,distal_repeated,1,30,0,1,4,2,113,1,1965,0,0.3831713,12.17947,1.776191,-1
2,10,18,M,distal_repeated,1,30,0,1,5,2,116,4,1686,0,0.03492058,12.35682,0.1570175,-1
2,10,18,M,distal_repeated,1,30,0,1,6,2,115,3,9999,0,-1,-1,-1,-1
2,10,18,M,distal_repeated,1,30,0,1,7,1,113,1,1542,0,0.1589294,6.253633,1.385786,-1
2,10,18,M,distal_repeated,1,30,0,1,8,2,114,2,920,0,0.1526274,12.47955,0.6844273,-1
2,10,18,M,distal_repeated,1,31,0,1,1,1,117,1,1531,0,3.545663e-7,6.244177,0,-1
2,10,18,M,distal_repeated,1,31,0,1,2,2,118,2,1242,0,0.4076007,12.47802,1.823597,-1
2,10,18,M,distal_repeated,1,31,0,1,3,2,120,4,1430,0,0.5739245,12.36623,2.586945,-1
2,10,18,M,distal_repeated,1,31,0,1,4,1,119,3,1998,0,0.2457934,6.17606,2.167266,-1
2,10,18,M,distal_repeated,1,31,0,1,5,1,120,4,2298,0,0.3391497,6.35806,2.913965,-1
2,10,18,M,distal_repeated,1,31,0,1,6,2,117,1,2020,0,0.3437529,12.20478,1.572839,-1
2,10,18,M,distal_repeated,1,31,0,1,7,1,118,2,3687,1,0.1249059,6.599355,1.02641,-1
2,10,18,M,distal_repeated,1,31,0,1,8,2,119,3,9999,1,-1,-1,-1,-1
2,10,18,M,distal_repeated,1,32,0,1,1,1,121,1,1498,0,0.006629705,6.274938,0.05934703,-1
2,10,18,M,distal_repeated,1,32,0,1,2,2,122,2,1153,0,0.6099286,12.50136,2.718798,-1
2,10,18,M,distal_repeated,1,32,0,1,3,1,123,3,1865,0,0.1832553,6.205983,1.612162,-1
2,10,18,M,distal_repeated,1,32,0,1,4,1,124,4,2576,0,0.2331434,6.380773,2.007499,-1
2,10,18,M,distal_repeated,1,32,0,1,5,2,121,1,1442,0,0.2301876,12.22027,1.054063,-1
2,10,18,M,distal_repeated,1,32,0,1,6,2,124,4,1253,0,1.087234e-7,12.39621,0,-1
2,10,18,M,distal_repeated,1,32,0,1,7,1,122,2,1965,0,0.3230491,6.590245,2.654243,-1
2,10,18,M,distal_repeated,1,32,0,1,8,2,123,3,9999,0,-1,-1,-1,-1
2,10,18,M,distal_repeated,1,33,0,1,1,1,125,1,2776,0,0.08124661,6.263798,0.7052664,-1
2,10,18,M,distal_repeated,1,33,0,1,2,2,126,2,898,0,0.09960289,12.5025,0.4463111,-1
2,10,18,M,distal_repeated,1,33,0,1,3,1,128,4,5387,1,0.2722415,6.37374,2.352601,-1
2,10,18,M,distal_repeated,1,33,0,1,4,1,127,3,1309,0,0.265731,6.199876,2.337494,-1
2,10,18,M,distal_repeated,1,33,0,1,5,2,128,4,1576,0,0.338884,12.39932,1.528671,-1
2,10,18,M,distal_repeated,1,33,0,1,6,2,127,3,9999,0,-1,-1,-1,-1
2,10,18,M,distal_repeated,1,33,0,1,7,2,125,1,2442,0,0.4309035,12.22821,1.966923,-1
2,10,18,M,distal_repeated,1,33,0,1,8,1,126,2,1565,0,0.4255773,6.591933,3.496872,-1
2,10,18,M,distal_repeated,1,34,0,1,1,1,132,4,1653,0,0.2572229,6.386595,2.218409,-1
2,10,18,M,distal_repeated,1,34,0,1,2,1,129,1,1387,0,0.2965194,6.261895,2.546605,-1
2,10,18,M,distal_repeated,1,34,0,1,3,2,131,3,9999,0,-1,-1,-1,-1
2,10,18,M,distal_repeated,1,34,0,1,4,2,130,2,1109,0,0.5438199,12.47423,2.433813,-1
2,10,18,M,distal_repeated,1,34,0,1,5,2,132,4,1076,0,0.8963611,12.37909,4.016784,-1
2,10,18,M,distal_repeated,1,34,0,1,6,1,130,2,3798,0,0.2873402,6.547989,2.37504,-1
2,10,18,M,distal_repeated,1,34,0,1,7,1,131,3,1487,0,1.081083e-7,6.223273,0.01978234,-1
2,10,18,M,distal_repeated,1,34,0,1,8,2,129,1,3498,0,0.7792744,12.22261,3.624878,-1
2,10,18,M,distal_repeated,1,35,0,1,1,1,136,4,2665,0,0.1839321,6.413614,1.563855,-1
2,10,18,M,distal_repeated,1,35,0,1,2,2,135,3,9999,0,-1,-1,-1,-1
2,10,18,M,distal_repeated,1,35,0,1,3,2,133,1,1687,0,0.2433951,12.25319,1.111884,-1
2,10,18,M,distal_repeated,1,35,0,1,4,1,134,2,1865,0,0.01048445,6.598302,0.08846933,-1
2,10,18,M,distal_repeated,1,35,0,1,5,1,133,1,1631,0,1.481338e-7,6.285512,0,-1
2,10,18,M,distal_repeated,1,35,0,1,6,2,134,2,1076,0,0.123076,12.52137,0.5514293,-1
2,10,18,M,distal_repeated,1,35,0,1,7,1,135,3,1609,0,0.3125942,6.223267,2.754987,-1
2,10,18,M,distal_repeated,1,35,0,1,8,2,136,4,1098,0,0.278429,12.41942,1.25445,-1
2,10,18,M,distal_repeated,1,36,0,1,1,1,138,2,1587,0,0.1263969,6.599529,1.03854,-1
2,10,18,M,distal_repeated,1,36,0,1,2,1,140,4,1998,0,2.097703e-8,6.394791,0,-1
2,10,18,M,distal_repeated,1,36,0,1,3,2,139,3,9999,0,-1,-1,-1,-1
2,10,18,M,distal_repeated,1,36,0,1,4,1,137,1,1487,0,6.020074e-8,6.291644,0.01978234,-1
2,10,18,M,distal_repeated,1,36,0,1,5,2,138,2,887,0,0.3820583,12.52143,1.703758,-1
2,10,18,M,distal_repeated,1,36,0,1,6,2,137,1,6253,0,0.1978012,12.26513,0.9026566,-1
2,10,18,M,distal_repeated,1,36,0,1,7,1,139,3,1798,0,0.1262256,6.256558,1.104113,-1
2,10,18,M,distal_repeated,1,36,0,1,8,2,140,4,1176,0,0.4446419,12.43535,2.001641,-1
2,10,18,M,distal_repeated,1,37,0,1,1,3,147,3,2542,0,9.722875e-8,6.22075,0,-1
2,10,18,M,distal_repeated,1,37,0,1,2,3,145,1,2053,0,0.2081699,6.296684,1.784983,-1
2,10,18,M,distal_repeated,1,37,0,1,3,3,148,4,2876,1,0.2443886,6.401078,2.091719,-1
2,10,18,M,distal_repeated,1,37,0,1,4,3,146,2,2365,0,1.110744e-7,6.622218,0,-1
2,10,18,M,distal_repeated,1,37,0,1,5,4,145,1,1487,0,7.778277e-8,12.27136,0,-1
2,10,18,M,distal_repeated,1,37,0,1,6,4,147,3,3642,0,0.3277367,12.2546,1.501938,-1
2,10,18,M,distal_repeated,1,37,0,1,7,4,146,2,1153,0,0.1161306,12.53656,0.5185105,-1
2,10,18,M,distal_repeated,1,37,0,1,8,4,148,4,3098,0,0.1493231,12.43898,0.6740565,-1
2,10,18,M,distal_repeated,1,38,0,1,1,3,151,3,1742,0,0.3055279,6.262583,2.657781,-1
2,10,18,M,distal_repeated,1,38,0,1,2,3,150,2,2798,0,0.06502904,6.62541,0.5337587,-1
2,10,18,M,distal_repeated,1,38,0,1,3,3,149,1,1809,0,1.739314e-7,6.304822,0,-1
2,10,18,M,distal_repeated,1,38,0,1,4,4,152,4,1287,0,0.1892036,12.44284,0.8552368,-1
2,10,18,M,distal_repeated,1,38,0,1,5,4,150,2,2820,0,0.5447043,12.55691,2.464263,-1
2,10,18,M,distal_repeated,1,38,0,1,6,3,152,4,2742,0,4.968236e-7,6.419983,0,-1
2,10,18,M,distal_repeated,1,38,0,1,7,4,151,3,2698,0,0.385236,12.26476,1.745292,-1
2,10,18,M,distal_repeated,1,38,0,1,8,4,149,1,1698,0,0.1142058,12.30991,0.5207698,-1
2,10,18,M,distal_repeated,1,39,0,1,1,4,155,3,2175,0,0.8778036,12.26077,3.961607,-1
2,10,18,M,distal_repeated,1,39,0,1,2,4,156,4,1231,0,0.564143,12.43984,2.523286,-1
2,10,18,M,distal_repeated,1,39,0,1,3,3,153,1,1998,0,0.4222529,6.316596,3.608529,-1
2,10,18,M,distal_repeated,1,39,0,1,4,3,156,4,2953,0,0.2793384,6.418724,2.373638,-1
2,10,18,M,distal_repeated,1,39,0,1,5,3,154,2,9999,0,-1,-1,-1,-1
2,10,18,M,distal_repeated,1,39,0,1,6,4,153,1,1376,0,0.4703087,12.26438,2.162475,-1
2,10,18,M,distal_repeated,1,39,0,1,7,4,154,2,2309,2,0.2849234,12.52086,1.270878,-1
2,10,18,M,distal_repeated,1,39,0,1,8,3,155,3,1453,0,0.03760071,6.257446,0.3286494,-1
2,10,18,M,distal_repeated,1,40,0,1,1,4,158,2,1276,0,0.03715116,12.56223,0.166689,-1
2,10,18,M,distal_repeated,1,40,0,1,2,3,159,3,1820,0,0.08364954,6.264253,0.7284679,-1
2,10,18,M,distal_repeated,1,40,0,1,3,3,158,2,2153,2,0.0216667,6.634052,0.1780411,-1
2,10,18,M,distal_repeated,1,40,0,1,4,4,160,4,3087,0,2.242067e-7,12.47819,0,-1
2,10,18,M,distal_repeated,1,40,0,1,5,3,157,1,1709,0,0.294528,6.30042,2.583311,-1
2,10,18,M,distal_repeated,1,40,0,1,6,3,160,4,3087,0,0.4734222,6.435252,4.02696,-1
2,10,18,M,distal_repeated,1,40,0,1,7,4,157,1,2298,0,0.261417,12.31503,1.191076,-1
2,10,18,M,distal_repeated,1,40,0,1,8,4,159,3,1642,0,0.5427876,12.29783,2.492143,-1
2,10,18,M,distal_repeated,1,41,0,1,1,2,162,2,876,0,0.1468475,12.57361,0.6564078,-1
2,10,18,M,distal_repeated,1,41,0,1,2,2,163,3,9999,0,-1,-1,-1,-1
2,10,18,M,distal_repeated,1,41,0,1,3,1,164,4,2331,0,0.4383876,6.444767,3.748574,-1
2,10,18,M,distal_repeated,1,41,0,1,4,2,161,1,2576,0,0.1389001,12.2748,0.6355062,-1
2,10,18,M,distal_repeated,1,41,0,1,5,2,164,4,2820,0,0.309345,12.47322,1.400815,-1
2,10,18,M,distal_repeated,1,41,0,1,6,1,162,2,5064,0,1.212861e-7,6.638147,0,-1
2,10,18,M,distal_repeated,1,41,0,1,7,1,163,3,1831,0,0.2927034,6.273272,2.546836,-1
2,10,18,M,distal_repeated,1,41,0,1,8,1,161,1,1231,0,0.3589706,6.308299,3.088511,-1
2,10,18,M,distal_repeated,1,42,0,1,1,1,167,3,1354,0,0.1735684,6.263649,1.515687,-1
2,10,18,M,distal_repeated,1,42,0,1,2,1,165,1,876,0,0.09455638,6.301855,0.8156537,-1
2,10,18,M,distal_repeated,1,42,0,1,3,2,168,4,1453,0,0.4677658,12.4425,2.09415,-1
2,10,18,M,distal_repeated,1,42,0,1,4,1,166,2,1709,0,0.1462659,6.614314,1.199589,-1
2,10,18,M,distal_repeated,1,42,0,1,5,2,167,3,9999,1,-1,-1,-1,-1
2,10,18,M,distal_repeated,1,42,0,1,6,2,166,2,831,0,0.5542238,12.57322,2.504053,-1
2,10,18,M,distal_repeated,1,42,0,1,7,2,165,1,1576,0,0.410651,12.27426,1.886993,-1
2,10,18,M,distal_repeated,1,42,0,1,8,1,168,4,1987,0,0.03389257,6.44122,0.2880355,-1
2,10,18,M,distal_repeated,1,43,0,1,1,1,171,3,1620,0,0.3167971,6.269507,2.751931,-1
2,10,18,M,distal_repeated,1,43,0,1,2,2,169,1,2887,0,0.2996892,12.28222,1.370022,-1
2,10,18,M,distal_repeated,1,43,0,1,3,2,172,4,2798,0,0.1329422,12.46472,0.5967609,-1
2,10,18,M,distal_repeated,1,43,0,1,4,1,170,2,1954,0,0.2178539,6.634161,1.777512,-1
2,10,18,M,distal_repeated,1,43,0,1,5,1,169,1,1442,0,0.2249373,6.308432,1.964932,-1
2,10,18,M,distal_repeated,1,43,0,1,6,1,172,4,3598,0,0.3149934,6.446088,2.664768,-1
2,10,18,M,distal_repeated,1,43,0,1,7,2,171,3,9999,0,-1,-1,-1,-1
2,10,18,M,distal_repeated,1,43,0,1,8,2,170,2,787,0,0.03874632,12.56517,0.1724585,-1
2,10,18,M,distal_repeated,1,44,0,1,1,2,175,3,9999,1,-1,-1,-1,-1
2,10,18,M,distal_repeated,1,44,0,1,2,1,173,1,2520,0,1.492848e-7,6.304039,0,-1
2,10,18,M,distal_repeated,1,44,0,1,3,1,176,4,1942,0,0.3940015,6.433735,3.345095,-1
2,10,18,M,distal_repeated,1,44,0,1,4,1,175,3,2620,0,0.1263381,6.25894,1.103404,-1
2,10,18,M,distal_repeated,1,44,0,1,5,2,176,4,3009,0,0.05877096,12.46148,0.2646699,-1
2,10,18,M,distal_repeated,1,44,0,1,6,2,174,2,942,0,3.832791e-7,12.56391,0,-1
2,10,18,M,distal_repeated,1,44,0,1,7,2,173,1,6853,1,0.549336,12.2692,2.531805,-1
2,10,18,M,distal_repeated,1,44,0,1,8,1,174,2,2242,0,0.221381,6.630298,1.807861,-1
2,10,18,M,distal_repeated,1,45,0,1,1,1,177,1,2898,0,1.795924e-7,6.317416,0,-1
2,10,18,M,distal_repeated,1,45,0,1,2,1,178,2,2364,0,0.0548771,6.646084,0.4528397,-1
2,10,18,M,distal_repeated,1,45,0,1,3,2,180,4,3476,0,5.208522e-8,12.48166,0,-1
2,10,18,M,distal_repeated,1,45,0,1,4,2,179,3,9999,0,-1,-1,-1,-1
2,10,18,M,distal_repeated,1,45,0,1,5,2,177,1,4664,0,0.591256,12.33407,2.683288,-1
2,10,18,M,distal_repeated,1,45,0,1,6,1,179,3,1309,0,0.1362008,6.305745,1.193374,-1
2,10,18,M,distal_repeated,1,45,0,1,7,1,180,4,4609,0,4.739317e-8,6.473996,0,-1
2,10,18,M,distal_repeated,1,45,0,1,8,2,178,2,820,0,0.3751217,12.6074,1.678064,-1
2,10,18,M,distal_repeated,1,46,0,1,1,2,184,4,1320,0,0.561775,12.49606,2.536053,-1
2,10,18,M,distal_repeated,1,46,0,1,2,1,181,1,3531,0,0.2956973,6.344194,2.51785,-1
2,10,18,M,distal_repeated,1,46,0,1,3,2,183,3,5964,0,0.6327331,12.31339,2.868807,-1
2,10,18,M,distal_repeated,1,46,0,1,4,2,181,1,5353,1,0.8250526,12.31561,3.822952,-1
2,10,18,M,distal_repeated,1,46,0,1,5,1,182,2,3053,0,0.01208432,6.655731,0.09891172,-1
2,10,18,M,distal_repeated,1,46,0,1,6,1,183,3,5664,1,0.05179834,6.286098,0.4515415,-1
2,10,18,M,distal_repeated,1,46,0,1,7,1,184,4,2565,0,0.2532697,6.474145,2.145575,-1
2,10,18,M,distal_repeated,1,46,0,1,8,2,182,2,831,0,0.5764298,12.61271,2.596537,-1
2,10,18,M,distal_repeated,1,47,0,1,1,1,185,1,1942,1,0.5215197,6.332346,4.471857,-1
2,10,18,M,distal_repeated,1,47,0,1,2,2,188,4,1398,0,0.2543661,12.49257,1.147054,-1
2,10,18,M,distal_repeated,1,47,0,1,3,2,186,2,854,0,0.5498018,12.59541,2.479782,-1
2,10,18,M,distal_repeated,1,47,0,1,4,1,187,3,1398,0,0.4815603,6.276553,4.157794,-1
2,10,18,M,distal_repeated,1,47,0,1,5,1,188,4,3187,2,0.4412297,6.464973,3.759788,-1
2,10,18,M,distal_repeated,1,47,0,1,6,2,185,1,1254,1,0.2831154,12.28984,1.299052,-1
2,10,18,M,distal_repeated,1,47,0,1,7,2,187,3,7531,1,0.7260214,12.18813,3.317119,-1
2,10,18,M,distal_repeated,1,47,0,1,8,1,186,2,2842,0,0.2201874,6.64993,1.796894,-1
2,10,18,M,distal_repeated,1,48,0,1,1,2,192,4,1109,0,0.01204539,12.46521,0.05233916,-1
2,10,18,M,distal_repeated,1,48,0,1,2,1,191,3,2031,0,1.531767e-7,6.268742,0,-1
2,10,18,M,distal_repeated,1,48,0,1,3,1,190,2,1220,0,0.2309374,6.653806,1.879511,-1
2,10,18,M,distal_repeated,1,48,0,1,4,2,191,3,9999,4,-1,-1,-1,-1
2,10,18,M,distal_repeated,1,48,0,1,5,1,189,1,1809,0,4.42966e-8,6.315877,0,-1
2,10,18,M,distal_repeated,1,48,0,1,6,1,192,4,1976,0,0.2304251,6.472787,1.940881,-1
2,10,18,M,distal_repeated,1,48,0,1,7,2,190,2,831,0,0.07498851,12.59954,0.3333784,-1
2,10,18,M,distal_repeated,1,48,0,1,8,2,189,1,1709,0,0.3598016,12.29712,1.637694,-1
2,10,18,M,distal_repeated,1,49,0,1,1,2,194,2,954,0,0.3917798,12.56131,1.745067,-1
2,10,18,M,distal_repeated,1,49,0,1,2,2,196,4,1842,1,0.6171211,12.45683,2.789094,-1
2,10,18,M,distal_repeated,1,49,0,1,3,2,195,3,8975,1,0.9588559,12.14079,4.426557,-1
2,10,18,M,distal_repeated,1,49,0,1,4,1,196,4,1842,0,0.2644118,6.462556,2.220966,-1
2,10,18,M,distal_repeated,1,49,0,1,5,1,193,1,2676,0,0.1380049,6.289622,1.199426,-1
2,10,18,M,distal_repeated,1,49,0,1,6,1,194,2,1565,0,0.4570245,6.606714,3.746536,-1
2,10,18,M,distal_repeated,1,49,0,1,7,1,195,3,1309,0,0.07801667,6.286255,0.6798376,-1
2,10,18,M,distal_repeated,1,49,0,1,8,2,193,1,1709,0,0.3953255,12.27857,1.79918,-1
2,10,18,M,distal_repeated,1,50,0,1,1,2,198,2,876,0,0.9658734,12.55507,4.279838,-1
2,10,18,M,distal_repeated,1,50,0,1,2,2,199,3,9364,3,0.4226461,12.32162,1.905056,-1
2,10,18,M,distal_repeated,1,50,0,1,3,2,200,4,3520,0,0.2600901,12.46282,1.173532,-1
2,10,18,M,distal_repeated,1,50,0,1,4,1,199,3,7842,1,0.06784968,6.260731,0.5934729,-1
2,10,18,M,distal_repeated,1,50,0,1,5,1,197,1,1898,0,0.2366619,6.296767,2.068384,-1
2,10,18,M,distal_repeated,1,50,0,1,6,1,198,2,2765,0,9.795524e-8,6.613297,0,-1
2,10,18,M,distal_repeated,1,50,0,1,7,1,200,4,1698,0,2.514867e-7,6.452833,0,-1
2,10,18,M,distal_repeated,1,50,0,1,8,2,197,1,3531,0,0.5300103,12.26161,2.443685,-1
2,10,18,M,distal_repeated,1,51,0,1,1,1,203,3,1298,0,0.1334398,6.27862,1.162138,-1
2,10,18,M,distal_repeated,1,51,0,1,2,1,201,1,998,0,6.437455e-8,6.30025,0,-1
2,10,18,M,distal_repeated,1,51,0,1,3,1,204,4,2098,0,1.787146e-7,6.449439,0,-1
2,10,18,M,distal_repeated,1,51,0,1,4,2,201,1,1165,0,0.4793313,12.284,2.189369,-1
2,10,18,M,distal_repeated,1,51,0,1,5,2,203,3,8209,1,0.5481392,12.27945,2.474092,-1
2,10,18,M,distal_repeated,1,51,0,1,6,1,202,2,4531,0,0.1998206,6.610928,1.636977,-1
2,10,18,M,distal_repeated,1,51,0,1,7,2,204,4,1065,0,0.1013193,12.45783,0.4571402,-1
2,10,18,M,distal_repeated,1,51,0,1,8,2,202,2,842,0,0.7298303,12.55784,3.240813,-1
2,10,18,M,distal_repeated,1,52,0,1,1,1,208,4,1909,0,0.03818843,6.446338,0.3226406,-1
2,10,18,M,distal_repeated,1,52,0,1,2,2,207,3,5965,0,0.7216372,12.27889,3.253775,-1
2,10,18,M,distal_repeated,1,52,0,1,3,2,206,2,787,0,0.2194296,12.56023,0.9773876,-1
2,10,18,M,distal_repeated,1,52,0,1,4,1,205,1,4542,0,0.09651794,6.282568,0.8420942,-1
2,10,18,M,distal_repeated,1,52,0,1,5,1,207,3,1453,0,0.1089015,6.265636,0.9507989,-1
2,10,18,M,distal_repeated,1,52,0,1,6,2,205,1,1942,0,6.607283e-8,12.28112,0,-1
2,10,18,M,distal_repeated,1,52,0,1,7,1,206,2,2376,0,0.4917285,6.614445,3.993608,-1
2,10,18,M,distal_repeated,1,52,0,1,8,2,208,4,1231,0,0.7738295,12.45122,3.454624,-1
2,10,18,M,distal_repeated,1,53,0,1,1,2,209,1,4320,1,0.0190055,12.27775,0.08622923,-1
2,10,18,M,distal_repeated,1,53,0,1,2,1,211,3,1542,0,0.04874964,6.266985,0.427501,-1
2,10,18,M,distal_repeated,1,53,0,1,3,1,209,1,1709,0,0.1515274,6.30617,1.332367,-1
2,10,18,M,distal_repeated,1,53,0,1,4,2,212,4,1187,0,0.4581394,12.4648,2.073016,-1
2,10,18,M,distal_repeated,1,53,0,1,5,1,210,2,1987,1,0.01941819,6.681246,0.1570175,-1
2,10,18,M,distal_repeated,1,53,0,1,6,1,212,4,3365,0,0.1145814,6.501074,0.9661109,-1
2,10,18,M,distal_repeated,1,53,0,1,7,2,211,3,3709,0,0.2507533,12.31059,1.134704,-1
2,10,18,M,distal_repeated,1,53,0,1,8,2,210,2,965,0,0.295442,12.57747,1.317747,-1
2,10,18,M,distal_repeated,1,54,0,1,1,2,216,4,1353,0,0.1549575,12.49318,0.6935157,-1
2,10,18,M,distal_repeated,1,54,0,1,2,2,214,2,1109,0,1.662498e-7,12.59323,0,-1
2,10,18,M,distal_repeated,1,54,0,1,3,2,213,1,4742,0,0.7427201,12.30455,3.37133,-1
2,10,18,M,distal_repeated,1,54,0,1,4,1,215,3,1342,0,0.1159631,6.310714,1.00561,-1
2,10,18,M,distal_repeated,1,54,0,1,5,1,216,4,3898,0,0.1190248,6.472804,1.006388,-1
2,10,18,M,distal_repeated,1,54,0,1,6,2,215,3,7731,1,0.7823316,12.3129,3.518363,-1
2,10,18,M,distal_repeated,1,54,0,1,7,1,213,1,2409,0,7.062845e-8,6.307237,0,-1
2,10,18,M,distal_repeated,1,54,0,1,8,1,214,2,3309,0,1.676557e-7,6.641328,0,-1
2,10,18,M,distal_repeated,1,55,0,1,1,1,220,4,1831,0,0.30568,6.474775,2.601357,-1
2,10,18,M,distal_repeated,1,55,0,1,2,1,218,2,3376,0,0.05252108,6.622671,0.4311472,-1
2,10,18,M,distal_repeated,1,55,0,1,3,1,217,1,1542,0,0.4764929,6.258996,4.252201,-1
2,10,18,M,distal_repeated,1,55,0,1,4,2,218,2,865,0,0.09249035,12.57134,0.4140146,-1
2,10,18,M,distal_repeated,1,55,0,1,5,1,219,3,1898,0,0.3404852,6.278828,2.951677,-1
2,10,18,M,distal_repeated,1,55,0,1,6,2,220,4,2009,0,0.2656624,12.47105,1.188938,-1
2,10,18,M,distal_repeated,1,55,0,1,7,2,219,3,6720,0,0.3322913,12.28156,1.505062,-1
2,10,18,M,distal_repeated,1,55,0,1,8,2,217,1,1265,0,0.4492211,12.28278,2.068195,-1
2,10,18,M,distal_repeated,1,56,0,1,1,1,224,4,2020,0,2.921804e-7,6.461662,0,-1
2,10,18,M,distal_repeated,1,56,0,1,2,1,223,3,1565,0,0.263405,6.266614,2.338499,-1
2,10,18,M,distal_repeated,1,56,0,1,3,2,222,2,742,0,0.4555857,12.57049,2.023811,-1
2,10,18,M,distal_repeated,1,56,0,1,4,2,223,3,5598,0,0.2537744,12.27665,1.159441,-1
2,10,18,M,distal_repeated,1,56,0,1,5,1,221,1,3454,0,0.1044801,6.307009,0.9002688,-1
2,10,18,M,distal_repeated,1,56,0,1,6,1,222,2,1865,1,0.554476,6.623358,4.536219,-1
2,10,18,M,distal_repeated,1,56,0,1,7,2,221,1,1276,0,0.1784681,12.27872,0.8168523,-1
2,10,18,M,distal_repeated,1,56,0,1,8,2,224,4,1165,0,0.5764471,12.46945,2.570169,-1
2,10,18,M,distal_repeated,1,57,0,1,1,3,227,3,1354,0,0.08476546,6.245703,0.741777,-1
2,10,18,M,distal_repeated,1,57,0,1,2,4,226,2,2109,0,0.7421145,12.57993,3.289738,-1
2,10,18,M,distal_repeated,1,57,0,1,3,4,228,4,5131,0,0.4743403,12.46199,2.119418,-1
2,10,18,M,distal_repeated,1,57,0,1,4,4,227,3,3653,2,1.003663,12.27279,4.634007,-1
2,10,18,M,distal_repeated,1,57,0,1,5,3,225,1,1976,0,0.07022669,6.307472,0.6071628,-1
2,10,18,M,distal_repeated,1,57,0,1,6,3,228,4,2509,0,0.4775469,6.415755,4.101073,-1
2,10,18,M,distal_repeated,1,57,0,1,7,3,226,2,4631,3,0.237524,6.626234,1.939267,-1
2,10,18,M,distal_repeated,1,57,0,1,8,4,225,1,1420,0,0.3760857,12.30548,1.731445,-1
2,10,18,M,distal_repeated,1,58,0,1,1,3,230,2,6264,2,0.1382003,6.615199,1.134014,-1
2,10,18,M,distal_repeated,1,58,0,1,2,3,231,3,2342,0,0.2757276,6.258387,2.414759,-1
2,10,18,M,distal_repeated,1,58,0,1,3,4,230,2,1053,0,0.3951767,12.59484,1.754908,-1
2,10,18,M,distal_repeated,1,58,0,1,4,4,232,4,3120,0,0.7530323,12.4768,3.42108,-1
2,10,18,M,distal_repeated,1,58,0,1,5,4,229,1,2020,0,0.4796145,12.29358,2.213551,-1
2,10,18,M,distal_repeated,1,58,0,1,6,4,231,3,6309,0,1.901102e-7,12.26712,0,-1
2,10,18,M,distal_repeated,1,58,0,1,7,3,232,4,4176,3,0.3015612,6.478681,2.543144,-1
2,10,18,M,distal_repeated,1,58,0,1,8,3,229,1,4387,2,0.04757772,6.261553,0.4173099,-1
2,10,18,M,distal_repeated,1,59,0,1,1,4,235,3,2231,1,0.9907377,12.28691,4.567246,-1
2,10,18,M,distal_repeated,1,59,0,1,2,4,233,1,1687,0,0.4024127,12.27771,1.849491,-1
2,10,18,M,distal_repeated,1,59,0,1,3,3,234,2,5953,0,0.216618,6.623635,1.769678,-1
2,10,18,M,distal_repeated,1,59,0,1,4,4,236,4,1242,0,0.4133716,12.43709,1.850549,-1
2,10,18,M,distal_repeated,1,59,0,1,5,4,234,2,987,0,0.769295,12.54323,3.40996,-1
2,10,18,M,distal_repeated,1,59,0,1,6,3,236,4,3309,0,0.4540372,6.458766,3.871762,-1
2,10,18,M,distal_repeated,1,59,0,1,7,3,233,1,1487,0,0.08295232,6.287983,0.7225344,-1
2,10,18,M,distal_repeated,1,59,0,1,8,3,235,3,1931,0,0.08920566,6.257105,0.7848442,-1
2,10,18,M,distal_repeated,1,60,0,1,1,3,238,2,998,0,0.3809009,6.621779,3.116401,-1
2,10,18,M,distal_repeated,1,60,0,1,2,4,239,3,4576,0,0.1811114,12.29413,0.8275619,-1
2,10,18,M,distal_repeated,1,60,0,1,3,4,237,1,1409,0,0.2287556,12.27823,1.049598,-1
2,10,18,M,distal_repeated,1,60,0,1,4,3,239,3,1309,0,1.559886e-7,6.237398,0,-1
2,10,18,M,distal_repeated,1,60,0,1,5,3,237,1,1309,0,5.498596e-9,6.309639,0,-1
2,10,18,M,distal_repeated,1,60,0,1,6,3,240,4,1465,0,0.2604136,6.454964,2.207176,-1
2,10,18,M,distal_repeated,1,60,0,1,7,4,238,2,798,0,0.5143453,12.55778,2.305371,-1
2,10,18,M,distal_repeated,1,60,0,1,8,4,240,4,1709,0,0.7252563,12.46226,3.232708,-1
2,10,18,M,distal_repeated,1,61,0,1,1,1,243,3,1353,0,0.2792203,6.270845,2.434778,-1
2,10,18,M,distal_repeated,1,61,0,1,2,1,244,4,2798,0,0.009298993,6.486847,0.07912937,-1
2,10,18,M,distal_repeated,1,61,0,1,3,2,241,1,1709,0,0.2404286,12.27663,1.101096,-1
2,10,18,M,distal_repeated,1,61,0,1,4,2,244,4,1276,0,1.094836e-7,12.47599,0,-1
2,10,18,M,distal_repeated,1,61,0,1,5,1,242,2,1587,0,0.5172896,6.632977,4.187363,-1
2,10,18,M,distal_repeated,1,61,0,1,6,1,241,1,1176,0,0.008995397,6.307576,0.07661668,-1
2,10,18,M,distal_repeated,1,61,0,1,7,2,242,2,676,0,0.4097178,12.57191,1.821127,-1
2,10,18,M,distal_repeated,1,61,0,1,8,2,243,3,7520,0,0.5838156,12.26525,2.658664,-1
2,10,18,M,distal_repeated,1,62,0,1,1,2,248,4,1098,0,0.5630561,12.46937,2.513416,-1
2,10,18,M,distal_repeated,1,62,0,1,2,2,246,2,2731,3,0.8733811,12.56424,3.866954,-1
2,10,18,M,distal_repeated,1,62,0,1,3,1,245,1,2376,0,9.592862e-4,6.303156,0,-1
2,10,18,M,distal_repeated,1,62,0,1,4,1,247,3,1353,0,0.05897514,6.267148,0.5154827,-1
2,10,18,M,distal_repeated,1,62,0,1,5,1,248,4,3953,0,0.06232248,6.449232,0.5286014,-1
2,10,18,M,distal_repeated,1,62,0,1,6,2,245,1,2375,0,0.5764061,12.25664,2.665062,-1
2,10,18,M,distal_repeated,1,62,0,1,7,2,247,3,6264,0,0.9710114,12.26455,4.416545,-1
2,10,18,M,distal_repeated,1,62,0,1,8,1,246,2,2342,0,0.3376293,6.630567,2.745878,-1
2,10,18,M,distal_repeated,2,1,0,1,1,7,1,1,8363,0,6.077148,6.371116,72.52712,-1
2,10,18,M,distal_repeated,2,1,0,1,2,5,4,4,8820,0,5.424535,6.467374,57.00877,-1
2,10,18,M,distal_repeated,2,1,0,1,3,8,3,3,5875,0,5.210428,12.26815,24.87128,-1
2,10,18,M,distal_repeated,2,1,0,1,4,8,2,2,7831,0,3.006555,12.57836,13.78669,-1
2,10,18,M,distal_repeated,2,1,0,1,5,6,1,1,4863,0,6.396921,12.32716,31.26044,-1
2,10,18,M,distal_repeated,2,1,0,1,6,6,2,2,4864,0,3.558682,12.54235,16.43626,-1
2,10,18,M,distal_repeated,2,1,0,1,7,5,3,3,4442,0,2.718413,6.312507,25.50814,-1
2,10,18,M,distal_repeated,2,1,0,1,8,5,1,1,4409,0,5.875632,6.352234,67.66396,-1
2,10,18,M,distal_repeated,2,1,0,1,9,7,3,3,4664,0,3.182255,6.28126,30.43941,-1
2,10,18,M,distal_repeated,2,1,0,1,10,8,4,4,5787,0,4.2632,12.45378,19.99707,-1
2,10,18,M,distal_repeated,2,1,0,1,11,5,2,2,3320,0,4.003005,6.608128,37.28426,-1
2,10,18,M,distal_repeated,2,1,0,1,12,8,1,1,8575,0,5.367488,12.33174,25.8017,-1
2,10,18,M,distal_repeated,2,1,0,1,13,7,4,4,4053,0,3.432769,6.477826,30.48227,-1
2,10,18,M,distal_repeated,2,1,0,1,14,6,3,3,3653,0,1.027827,12.27265,4.644815,-1
2,10,18,M,distal_repeated,2,1,0,1,15,6,4,4,4876,0,4.58953,12.44294,21.52749,-1
2,10,18,M,distal_repeated,2,1,0,1,16,7,2,2,2809,0,3.887546,6.623864,35.93733,-1
2,10,18,M,distal_repeated,2,2,0,1,1,7,4,4,4042,0,5.726631,6.480486,62.08866,-1
2,10,18,M,distal_repeated,2,2,0,1,2,7,1,1,2620,0,2.782571,6.344092,26.01512,-1
2,10,18,M,distal_repeated,2,2,0,1,3,5,2,2,3487,0,3.678166,6.623225,33.42866,-1
2,10,18,M,distal_repeated,2,2,0,1,4,7,3,3,2531,0,3.049007,6.292616,28.41073,-1
2,10,18,M,distal_repeated,2,2,0,1,5,7,2,2,1953,0,2.783228,6.617776,23.40995,-1
2,10,18,M,distal_repeated,2,2,0,1,6,8,4,4,4331,0,5.559024,12.4382,26.54699,-1
2,10,18,M,distal_repeated,2,2,0,1,7,8,2,2,2009,0,3.347203,12.58144,15.38304,-1
2,10,18,M,distal_repeated,2,2,0,1,8,5,4,4,3164,0,1.370826,6.467328,11.75822,-1
2,10,18,M,distal_repeated,2,2,0,1,9,6,3,3,2487,0,7.537235,12.31947,37.66696,-1
2,10,18,M,distal_repeated,2,2,0,1,10,6,1,1,1598,0,3.993453,12.31358,18.92395,-1
2,10,18,M,distal_repeated,2,2,0,1,11,6,4,4,2876,0,6.754678,12.46104,32.82425,-1
2,10,18,M,distal_repeated,2,2,0,1,12,8,3,3,1598,0,4.142646,12.31865,19.65104,-1
2,10,18,M,distal_repeated,2,2,0,1,13,5,1,1,3120,0,5.841156,6.360709,66.68146,-1
2,10,18,M,distal_repeated,2,2,0,1,14,6,2,2,4020,0,3.536983,12.56855,16.29913,-1
2,10,18,M,distal_repeated,2,2,0,1,15,8,1,1,1531,0,2.823256,12.32922,13.15673,-1
2,10,18,M,distal_repeated,2,2,0,1,16,5,3,3,5187,0,2.684468,6.331536,25.08635,-1
2,11,18,F,proximal_repeated,1,1,0,1,1,2,3,3,2298,0,0.6335364,12.15648,2.917255,-1
2,11,18,F,proximal_repeated,1,1,0,1,2,1,2,2,4309,0,9.201729e-4,6.511121,0,-1
2,11,18,F,proximal_repeated,1,1,0,1,3,1,3,3,2509,0,0.07075245,6.134343,0.633656,-1
2,11,18,F,proximal_repeated,1,1,0,1,4,1,1,1,2854,0,0.0383487,6.112604,0.3466151,-1
2,11,18,F,proximal_repeated,1,1,0,1,5,1,4,4,4131,0,0.2262998,6.413431,1.957448,-1
2,11,18,F,proximal_repeated,1,1,0,1,6,2,2,2,2220,0,0.1411841,12.25816,0.6443735,-1
2,11,18,F,proximal_repeated,1,1,0,1,7,2,4,4,1831,0,0.08614206,12.32576,0.3921704,-1
2,11,18,F,proximal_repeated,1,1,0,1,8,2,1,1,1809,0,0.1460069,12.16823,0.6760855,-1
2,11,18,F,proximal_repeated,1,2,0,1,1,2,7,3,9753,1,1.98552e-7,12.11184,0,-1
2,11,18,F,proximal_repeated,1,2,0,1,2,2,6,2,2342,0,0.6652686,12.27681,3.060302,-1
2,11,18,F,proximal_repeated,1,2,0,1,3,1,5,1,5253,1,0.3662582,6.141609,3.363539,-1
2,11,18,F,proximal_repeated,1,2,0,1,4,2,8,4,8176,1,0.4755711,12.30213,2.168891,-1
2,11,18,F,proximal_repeated,1,2,0,1,5,1,6,2,2898,0,2.064098e-7,6.519496,0,-1
2,11,18,F,proximal_repeated,1,2,0,1,6,1,7,3,3665,0,0.0109293,6.111658,0.09891172,-1
2,11,18,F,proximal_repeated,1,2,0,1,7,2,5,1,3576,0,0.3278945,12.1735,1.521743,-1
2,11,18,F,proximal_repeated,1,2,0,1,8,1,8,4,2120,0,0.09328261,6.400869,0.8076981,-1
2,11,18,F,proximal_repeated,1,3,0,1,1,2,9,1,2098,0,0.05890559,12.18159,0.2712421,-1
2,11,18,F,proximal_repeated,1,3,0,1,2,1,12,4,2598,0,0.4206501,6.391214,3.65243,-1
2,11,18,F,proximal_repeated,1,3,0,1,3,2,11,3,2153,0,0.490665,12.15908,2.253162,-1
2,11,18,F,proximal_repeated,1,3,0,1,4,2,12,4,2042,0,0.155432,12.3305,0.707759,-1
2,11,18,F,proximal_repeated,1,3,0,1,5,1,11,3,2065,0,0.1117874,6.135899,1.000147,-1
2,11,18,F,proximal_repeated,1,3,0,1,6,2,10,2,1364,0,0.4795718,12.27289,2.183102,-1
2,11,18,F,proximal_repeated,1,3,0,1,7,1,9,1,1698,0,0.04406218,6.137409,0.3966355,-1
2,11,18,F,proximal_repeated,1,3,0,1,8,1,10,2,1620,0,0.08175781,6.534247,0.6847132,-1
2,11,18,F,proximal_repeated,1,4,0,1,1,2,13,1,1720,0,0.6516716,12.19895,3.030217,-1
2,11,18,F,proximal_repeated,1,4,0,1,2,1,15,3,3342,0,7.502414e-8,6.134763,0,-1
2,11,18,F,proximal_repeated,1,4,0,1,3,1,13,1,1487,0,0.02983854,6.141469,0.268341,-1
2,11,18,F,proximal_repeated,1,4,0,1,4,2,14,2,1876,0,0.2253027,12.27752,1.025266,-1
2,11,18,F,proximal_repeated,1,4,0,1,5,1,16,4,2231,0,2.647595e-7,6.407427,0,-1
2,11,18,F,proximal_repeated,1,4,0,1,6,1,14,2,1809,0,1.013967e-7,6.531648,0,-1
2,11,18,F,proximal_repeated,1,4,0,1,7,2,15,3,5676,0,0.5514984,12.16541,2.543298,-1
2,11,18,F,proximal_repeated,1,4,0,1,8,2,16,4,2187,0,0.1372688,12.3394,0.6243232,-1
2,11,18,F,proximal_repeated,1,5,0,1,1,2,17,1,1875,0,0.5258122,12.19706,2.445046,-1
2,11,18,F,proximal_repeated,1,5,0,1,2,2,18,2,2142,0,0.7209341,12.28554,3.308905,-1
2,11,18,F,proximal_repeated,1,5,0,1,3,1,20,4,2387,0,0.2387809,6.411898,2.065828,-1
2,11,18,F,proximal_repeated,1,5,0,1,4,2,19,3,2464,0,0.3982995,12.17399,1.824884,-1
2,11,18,F,proximal_repeated,1,5,0,1,5,1,17,1,4376,0,0.3957657,6.154041,3.567382,-1
2,11,18,F,proximal_repeated,1,5,0,1,6,1,19,3,3820,0,1.965227e-7,6.138432,0,-1
2,11,18,F,proximal_repeated,1,5,0,1,7,2,20,4,2842,0,0.6500432,12.35673,2.988324,-1
2,11,18,F,proximal_repeated,1,5,0,1,8,1,18,2,1742,0,0.08035837,6.547217,0.6769533,-1
2,11,18,F,proximal_repeated,1,6,0,1,1,1,21,1,1642,0,0.2226861,6.15117,2.007596,-1
2,11,18,F,proximal_repeated,1,6,0,1,2,1,24,4,2642,0,0.3650256,6.415278,3.156845,-1
2,11,18,F,proximal_repeated,1,6,0,1,3,2,22,2,2030,0,0.3949419,12.3028,1.815746,-1
2,11,18,F,proximal_repeated,1,6,0,1,4,1,23,3,3253,0,0.1304544,6.143311,1.157583,-1
2,11,18,F,proximal_repeated,1,6,0,1,5,2,24,4,1964,0,0.5331261,12.35435,2.426564,-1
2,11,18,F,proximal_repeated,1,6,0,1,6,2,21,1,2542,0,0.1343312,12.21186,0.6211812,-1
2,11,18,F,proximal_repeated,1,6,0,1,7,2,23,3,3964,0,0.822337,12.1655,3.849088,-1
2,11,18,F,proximal_repeated,1,6,0,1,8,1,22,2,5698,0,0.2265665,6.4174620000000004,1.928032,-1
2,11,18,F,proximal_repeated,1,7,0,1,1,1,27,3,2609,0,0.3909231,6.135484,3.468877,-1
2,11,18,F,proximal_repeated,1,7,0,1,2,1,28,4,4909,0,0.5351709,6.412241,4.634218,-1
2,11,18,F,proximal_repeated,1,7,0,1,3,1,25,1,4353,0,0.0369307,6.149068,0.3310224,-1
2,11,18,F,proximal_repeated,1,7,0,1,4,2,26,2,2398,0,0.4729083,12.28472,2.177717,-1
2,11,18,F,proximal_repeated,1,7,0,1,5,2,27,3,3442,0,0.4781666,12.17981,2.201582,-1
2,11,18,F,proximal_repeated,1,7,0,1,6,2,25,1,2509,0,0.7251933,12.1938,3.374,-1
2,11,18,F,proximal_repeated,1,7,0,1,7,1,26,2,4420,0,0.2723329,6.548377,2.27787,-1
2,11,18,F,proximal_repeated,1,7,0,1,8,2,28,4,1609,0,0.7027591,12.35444,3.209491,-1
2,11,18,F,proximal_repeated,1,8,0,1,1,1,31,3,3353,0,0.253759,6.163209,2.261832,-1
2,11,18,F,proximal_repeated,1,8,0,1,2,1,29,1,2187,0,4.518158e-8,6.153399,0,-1
2,11,18,F,proximal_repeated,1,8,0,1,3,2,30,2,1887,0,0.1836269,12.28554,0.8411642,-1
2,11,18,F,proximal_repeated,1,8,0,1,4,2,32,4,9999,0,-1,-1,-1,-1
2,11,18,F,proximal_repeated,1,8,0,1,5,2,29,1,2187,0,0.5693642,12.2036,2.646341,-1
2,11,18,F,proximal_repeated,1,8,0,1,6,1,30,2,1297,0,0.04986102,6.546404,0.4201138,-1
2,11,18,F,proximal_repeated,1,8,0,1,7,1,32,4,3009,0,0.2950962,6.441031,2.541835,-1
2,11,18,F,proximal_repeated,1,8,0,1,8,2,31,3,2731,0,0.97613,12.17173,4.539715,-1
2,11,18,F,proximal_repeated,1,9,0,1,1,2,36,4,1309,0,0.7585872,12.35236,3.440085,-1
2,11,18,F,proximal_repeated,1,9,0,1,2,1,34,2,3687,0,0.2768276,6.530432,2.317649,-1
2,11,18,F,proximal_repeated,1,9,0,1,3,1,36,4,4365,0,0.1339938,6.449795,1.150461,-1
2,11,18,F,proximal_repeated,1,9,0,1,4,2,35,3,6098,1,0.4599374,12.12553,2.119972,-1
2,11,18,F,proximal_repeated,1,9,0,1,5,1,33,1,4642,0,0.0134725,6.139946,0.1203313,-1
2,11,18,F,proximal_repeated,1,9,0,1,6,2,34,2,1609,0,0.3605129,12.29149,1.639128,-1
2,11,18,F,proximal_repeated,1,9,0,1,7,1,35,3,2553,0,1.8898510000000001e-007,6.168625,0,-1
2,11,18,F,proximal_repeated,1,9,0,1,8,2,33,1,1664,0,0.2929059,12.20206,1.361569,-1
2,11,18,F,proximal_repeated,1,10,0,1,1,2,38,2,1898,0,0.6897963,12.28532,3.184015,-1
2,11,18,F,proximal_repeated,1,10,0,1,2,2,37,1,1842,0,7.393741e-8,12.20284,0,-1
2,11,18,F,proximal_repeated,1,10,0,1,3,1,38,2,4120,0,0.279273,6.58212,2.324142,-1
2,11,18,F,proximal_repeated,1,10,0,1,4,2,40,4,5987,0,0.3361285,12.34843,1.537479,-1
2,11,18,F,proximal_repeated,1,10,0,1,5,1,37,1,5031,0,0.1750495,6.139385,1.591393,-1
2,11,18,F,proximal_repeated,1,10,0,1,6,2,39,3,3209,0,0.1010443,12.20005,0.4660423,-1
2,11,18,F,proximal_repeated,1,10,0,1,7,1,40,4,4976,2,2.607513e-7,6.434011,0,-1
2,11,18,F,proximal_repeated,1,10,0,1,8,1,39,3,3665,0,0.2165991,6.177908,1.921016,-1
2,11,18,F,proximal_repeated,1,11,0,1,1,1,42,2,4342,0,0.5641431,6.590601,4.684542,-1
2,11,18,F,proximal_repeated,1,11,0,1,2,2,43,3,3897,1,0.8829103,12.19512,4.046511,-1
2,11,18,F,proximal_repeated,1,11,0,1,3,1,44,4,4542,0,0.282966,6.431325,2.405257,-1
2,11,18,F,proximal_repeated,1,11,0,1,4,2,42,2,1787,0,0.3431041,12.31461,1.575822,-1
2,11,18,F,proximal_repeated,1,11,0,1,5,1,41,1,2076,0,0.04804374,6.164798,0.429328,-1
2,11,18,F,proximal_repeated,1,11,0,1,6,1,43,3,4164,0,0.3429917,6.168391,3.055053,-1
2,11,18,F,proximal_repeated,1,11,0,1,7,2,41,1,1531,0,0.8815089,12.21584,4.105893,-1
2,11,18,F,proximal_repeated,1,11,0,1,8,2,44,4,1220,0,0.112687,12.36077,0.5116726,-1
2,11,18,F,proximal_repeated,1,12,0,1,1,1,46,2,1431,0,0.5480862,6.550099,4.563642,-1
2,11,18,F,proximal_repeated,1,12,0,1,2,1,45,1,2764,0,0.2407653,6.174593,2.177986,-1
2,11,18,F,proximal_repeated,1,12,0,1,3,2,48,4,1920,0,0.4793906,12.36529,2.172588,-1
2,11,18,F,proximal_repeated,1,12,0,1,4,2,46,2,1198,0,0.4595891,12.30933,2.112296,-1
2,11,18,F,proximal_repeated,1,12,0,1,5,2,45,1,1575,0,0.2953394,12.21774,1.362,-1
2,11,18,F,proximal_repeated,1,12,0,1,6,1,47,3,3464,0,0.2433866,6.171361,2.160754,-1
2,11,18,F,proximal_repeated,1,12,0,1,7,1,48,4,2531,0,0.5351022,6.435094,4.61677,-1
2,11,18,F,proximal_repeated,1,12,0,1,8,2,47,3,4387,0,6.864301e-8,12.17252,0,-1
2,11,18,F,proximal_repeated,1,13,0,1,1,2,50,2,1276,0,0.008894036,12.30637,0.03426402,-1
2,11,18,F,proximal_repeated,1,13,0,1,2,2,51,3,1787,0,1.031896,12.20038,4.731102,-1
2,11,18,F,proximal_repeated,1,13,0,1,3,2,52,4,3765,0,0.4231499,12.2709,1.933506,-1
2,11,18,F,proximal_repeated,1,13,0,1,4,2,49,1,1720,0,0.1417397,12.19337,0.6564078,-1
2,11,18,F,proximal_repeated,1,13,0,1,5,1,52,4,5665,2,0.213104,6.447006,1.804176,-1
2,11,18,F,proximal_repeated,1,13,0,1,6,1,49,1,2043,0,1.125657e-7,6.166064,0,-1
2,11,18,F,proximal_repeated,1,13,0,1,7,1,50,2,1743,0,0.1370197,6.532263,1.161464,-1
2,11,18,F,proximal_repeated,1,13,0,1,8,1,51,3,3076,0,5.635662e-8,6.168018,0,-1
2,11,18,F,proximal_repeated,1,14,0,1,1,2,53,1,1853,0,0.2652288,12.20233,1.232259,-1
2,11,18,F,proximal_repeated,1,14,0,1,2,1,54,2,1354,0,6.645249e-8,6.545318,0,-1
2,11,18,F,proximal_repeated,1,14,0,1,3,1,55,3,2987,0,0.1650384,6.176412,1.465403,-1
2,11,18,F,proximal_repeated,1,14,0,1,4,1,53,1,1675,0,0.06474027,6.152181,0.5824909,-1
2,11,18,F,proximal_repeated,1,14,0,1,5,2,54,2,1131,0,0.7734076,12.29542,3.573031,-1
2,11,18,F,proximal_repeated,1,14,0,1,6,1,56,4,3309,0,0.2414157,6.451843,2.054142,-1
2,11,18,F,proximal_repeated,1,14,0,1,7,2,55,3,2098,0,0.5964621,12.18966,2.773893,-1
2,11,18,F,proximal_repeated,1,14,0,1,8,2,56,4,3398,0,0.3712794,12.36297,1.696621,-1
2,11,18,F,proximal_repeated,1,15,0,1,1,1,57,1,3309,0,0.1483947,6.148735,1.344066,-1
2,11,18,F,proximal_repeated,1,15,0,1,2,2,60,4,2131,0,0.3913783,12.36994,1.78246,-1
2,11,18,F,proximal_repeated,1,15,0,1,3,2,58,2,1987,0,0.927465,12.31164,4.264618,-1
2,11,18,F,proximal_repeated,1,15,0,1,4,2,59,3,3220,0,0.08817265,12.19564,0.4063823,-1
2,11,18,F,proximal_repeated,1,15,0,1,5,1,60,4,3620,0,0.3669249,6.445617,3.114076,-1
2,11,18,F,proximal_repeated,1,15,0,1,6,1,58,2,1375,0,0.2486593,6.556396,2.097325,-1
2,11,18,F,proximal_repeated,1,15,0,1,7,1,59,3,1665,0,0.1120866,6.181126,0.9954398,-1
2,11,18,F,proximal_repeated,1,15,0,1,8,2,57,1,1275,0,0.9059456,12.22621,4.210497,-1
2,11,18,F,proximal_repeated,1,16,0,1,1,2,63,3,2142,0,0.8005781,12.20808,3.666662,-1
2,11,18,F,proximal_repeated,1,16,0,1,2,2,61,1,2009,0,0.9317558,12.21746,4.257724,-1
2,11,18,F,proximal_repeated,1,16,0,1,3,2,64,4,1142,0,0.2822762,12.37566,1.279013,-1
2,11,18,F,proximal_repeated,1,16,0,1,4,1,62,2,2009,0,0.2434711,6.5529,2.041718,-1
2,11,18,F,proximal_repeated,1,16,0,1,5,1,64,4,3020,0,0.1267202,6.458309,1.077018,-1
2,11,18,F,proximal_repeated,1,16,0,1,6,2,62,2,1676,0,0.7888846,12.30482,3.639164,-1
2,11,18,F,proximal_repeated,1,16,0,1,7,1,61,1,2031,0,0.2012463,6.163711,1.801245,-1
2,11,18,F,proximal_repeated,1,16,0,1,8,1,63,3,1331,0,0.2912457,6.186722,2.586491,-1
2,11,18,F,proximal_repeated,1,17,0,1,1,3,66,2,1642,0,0.304697,6.55074,2.54476,-1
2,11,18,F,proximal_repeated,1,17,0,1,2,4,68,4,1031,0,0.919104,12.36849,4.155767,-1
2,11,18,F,proximal_repeated,1,17,0,1,3,3,67,3,2920,0,0.3163783,6.126843,2.79197,-1
2,11,18,F,proximal_repeated,1,17,0,1,4,3,68,4,2098,0,0.1979628,6.469861,1.673744,-1
2,11,18,F,proximal_repeated,1,17,0,1,5,3,65,1,5942,0,0.2496017,6.112419,2.219644,-1
2,11,18,F,proximal_repeated,1,17,0,1,6,4,67,3,2309,0,0.9396202,12.15522,4.342531,-1
2,11,18,F,proximal_repeated,1,17,0,1,7,4,65,1,4342,0,0.5871524,12.20315,2.729433,-1
2,11,18,F,proximal_repeated,1,17,0,1,8,4,66,2,3209,1,0.7332022,12.29208,3.375509,-1
2,11,18,F,proximal_repeated,1,18,0,1,1,4,69,1,1465,0,0.3722097,12.22279,1.728164,-1
2,11,18,F,proximal_repeated,1,18,0,1,2,3,71,3,1942,0,0.4461623,6.189502,3.956809,-1
2,11,18,F,proximal_repeated,1,18,0,1,3,3,70,2,1553,0,5.931164e-8,6.504803,0,-1
2,11,18,F,proximal_repeated,1,18,0,1,4,4,72,4,2486,0,0.1393804,12.37967,0.6321102,-1
2,11,18,F,proximal_repeated,1,18,0,1,5,3,69,1,2064,0,6.869644e-8,6.159702,0,-1
2,11,18,F,proximal_repeated,1,18,0,1,6,4,71,3,2598,0,7.98623e-8,12.2126,0,-1
2,11,18,F,proximal_repeated,1,18,0,1,7,3,72,4,3054,0,0.0476477,6.477557,0.4044518,-1
2,11,18,F,proximal_repeated,1,18,0,1,8,4,70,2,3698,1,1.204618e-7,12.36085,0,-1
2,11,18,F,proximal_repeated,1,19,0,1,1,3,76,4,3931,0,0.1150257,6.458083,0.9835745,-1
2,11,18,F,proximal_repeated,1,19,0,1,2,4,75,3,2387,0,0.01303416,12.13962,0.06255726,-1
2,11,18,F,proximal_repeated,1,19,0,1,3,4,73,1,1931,0,0.6454886,12.20579,3.0042,-1
2,11,18,F,proximal_repeated,1,19,0,1,4,4,74,2,2420,0,2.172624e-7,12.35394,0.01978234,-1
2,11,18,F,proximal_repeated,1,19,0,1,5,3,75,3,1520,0,0.4210468,6.134872,3.692206,-1
2,11,18,F,proximal_repeated,1,19,0,1,6,3,73,1,4309,0,8.236091e-8,6.103374,0,-1
2,11,18,F,proximal_repeated,1,19,0,1,7,3,74,2,1998,0,2.122397e-8,6.541089,0,-1
2,11,18,F,proximal_repeated,1,19,0,1,8,4,76,4,8276,6,3.489455e-7,12.31575,0,-1
2,11,18,F,proximal_repeated,1,20,0,1,1,4,77,1,1942,0,0.4968894,12.22739,2.305881,-1
2,11,18,F,proximal_repeated,1,20,0,1,2,3,80,4,3065,0,1.600219e-7,6.431446,0,-1
2,11,18,F,proximal_repeated,1,20,0,1,3,3,78,2,1853,0,0.0323578,6.555214,0.2712421,-1
2,11,18,F,proximal_repeated,1,20,0,1,4,4,79,3,1953,0,0.5036541,12.1914,2.341426,-1
2,11,18,F,proximal_repeated,1,20,0,1,5,4,78,2,1587,0,0.6068484,12.35626,2.781434,-1
2,11,18,F,proximal_repeated,1,20,0,1,6,4,80,4,9999,0,-1,-1,-1,-1
2,11,18,F,proximal_repeated,1,20,0,1,7,3,79,3,3554,0,0.1186508,6.216712,1.057214,-1
2,11,18,F,proximal_repeated,1,20,0,1,8,3,77,1,3176,1,0.1126545,6.105157,1.014907,-1
2,11,18,F,proximal_repeated,1,21,0,1,1,1,80,4,3187,0,3.248695e-7,6.491794,0,-1
2,11,18,F,proximal_repeated,1,21,0,1,2,2,78,2,1397,0,0.2475923,12.31076,1.119775,-1
2,11,18,F,proximal_repeated,1,21,0,1,3,2,79,3,2875,0,0.3887534,12.22786,1.793515,-1
2,11,18,F,proximal_repeated,1,21,0,1,4,1,78,2,1520,0,1.098655e-7,6.558976,0,-1
2,11,18,F,proximal_repeated,1,21,0,1,5,1,77,1,3153,0,0.4252162,6.176172,3.881915,-1
2,11,18,F,proximal_repeated,1,21,0,1,6,2,80,4,1353,0,0.003230581,12.38606,0,-1
