Age, Gender, Awareness Type, Session, Block, Trial, Set, Pattern, Quadrant, Response Time, Num Mistakes, Distance From Target, Camera Distance From Target, Angle Error (Degrees), FC Response
24,F,1,1,1,1,4,2,2,7087,1,0.214871,10.36179,1.156737,-1
24,F,1,1,1,2,2,1,1,1998,0,0.2914493,10.08285,1.608881,-1
24,F,1,1,1,3,2,4,4,6387,0,0.01894517,10.3128,0.1027921,-1
24,F,1,1,1,4,2,2,2,1609,0,0.7938594,10.38129,4.264251,-1
24,F,1,1,1,5,2,3,3,7553,0,0.5205083,10.12654,2.837591,-1
24,F,1,1,1,6,1,1,1,3864,0,0.1215839,6.250075,1.065694,-1
24,F,1,1,1,7,3,2,2,3898,0,0.4419478,6.379242,3.815005,-1
24,F,1,1,1,8,3,3,3,9999,3,-1,-1,-1,-1
24,F,1,1,1,9,4,4,4,9999,0,-1,-1,-1,-1
24,F,1,1,1,10,4,1,1,3731,2,0.6186268,10.075,3.402603,-1
24,F,1,1,1,11,4,3,3,8776,1,0.4280664,10.15114,2.327929,-1
24,F,1,1,1,12,1,4,4,9999,8,-1,-1,-1,-1
24,F,1,1,1,13,1,2,2,3953,1,0.3376841,6.355665,2.890221,-1
24,F,1,1,1,14,3,1,1,2542,0,0.1287791,6.210283,1.125701,-1
24,F,1,1,1,15,3,4,4,9999,7,-1,-1,-1,-1
24,F,1,1,1,16,1,3,3,9999,7,-1,-1,-1,-1
24,F,1,1,2,1,2,8,4,4275,1,0.08223806,10.3206,0.4436728,-1
24,F,1,1,2,2,4,5,1,3020,1,0.7617024,10.07672,4.289665,-1
24,F,1,1,2,3,4,8,4,9999,5,-1,-1,-1,-1
24,F,1,1,2,4,1,5,1,2131,0,0.05540641,6.26491,0.4853748,-1
24,F,1,1,2,5,2,7,3,8475,2,0.3470899,10.14154,1.887719,-1
24,F,1,1,2,6,3,6,2,4264,2,0.5272924,6.471127,4.400507,-1
24,F,1,1,2,7,1,7,3,9999,8,-1,-1,-1,-1
24,F,1,1,2,8,1,6,2,3576,1,0.3742,6.442253,3.191385,-1
24,F,1,1,2,9,2,5,1,2253,0,0.8189585,10.17557,4.463395,-1
24,F,1,1,2,10,4,7,3,4264,2,0.7044092,10.40001,3.786876,-1
24,F,1,1,2,11,3,8,4,4576,1,0.2775557,6.839793,2.248902,-1
24,F,1,1,2,12,3,7,3,5742,2,0.4614453,6.656884,3.850716,-1
24,F,1,1,2,13,4,6,2,5120,1,0.5879781,10.48154,3.122927,-1
24,F,1,1,2,14,3,5,1,2709,1,0.5355131,6.401963,4.597766,-1
24,F,1,1,2,15,1,8,4,3798,1,0.4464674,6.863077,3.547789,-1
24,F,1,1,2,16,2,6,2,6842,2,0.05532149,10.48946,0.2947506,-1
24,F,1,1,3,1,1,12,4,2720,0,0.565497,6.603458,4.687593,-1
24,F,1,1,3,2,2,11,3,2165,0,0.004984513,10.26221,0.01978234,-1
24,F,1,1,3,3,4,10,2,2409,2,0.7051861,10.58835,3.698617,-1
24,F,1,1,3,4,3,12,4,2998,1,0.4092852,6.841917,3.318063,-1
24,F,1,1,3,5,3,10,2,5264,5,0.08168085,6.641037,0.6726035,-1
24,F,1,1,3,6,1,11,3,3298,1,0.1272303,6.59346,1.067529,-1
24,F,1,1,3,7,4,12,4,7909,3,0.6353001,10.61089,3.325784,-1
24,F,1,1,3,8,2,9,1,1109,0,0.4843415,10.24253,2.623012,-1
24,F,1,1,3,9,2,12,4,3409,0,0.02016992,10.43576,0.1083524,-1
24,F,1,1,3,10,3,9,1,2365,1,0.2489873,6.508995,2.110627,-1
24,F,1,1,3,11,2,10,2,4553,3,0.8246979,10.61585,4.331105,-1
24,F,1,1,3,12,4,11,3,2420,1,0.833667,10.4083,4.424742,-1
24,F,1,1,3,13,4,9,1,1809,0,0.7568365,10.27192,4.174998,-1
24,F,1,1,3,14,1,10,2,3131,1,0.4259953,6.647391,3.527255,-1
24,F,1,1,3,15,3,11,3,7275,5,0.3775114,6.634979,3.149643,-1
24,F,1,1,3,16,1,9,1,2520,1,0.4765707,6.387695,4.099067,-1
24,F,1,1,4,1,1,16,4,5220,2,0.3670324,6.872889,2.911478,-1
24,F,1,1,4,2,3,15,3,9999,9,-1,-1,-1,-1
24,F,1,1,4,3,2,16,4,4209,0,0.8786159,10.45783,4.696444,-1
24,F,1,1,4,4,2,15,3,5564,2,0.7007005,10.40474,3.798493,-1
24,F,1,1,4,5,4,16,4,3842,2,0.297247,10.62023,1.554441,-1
24,F,1,1,4,6,3,14,2,4353,1,5.701998E-08,6.697494,0.01978234,-1
24,F,1,1,4,7,1,13,1,6220,3,0.5051066,6.546663,4.241224,-1
24,F,1,1,4,8,4,14,2,3287,2,0.448835,10.57199,2.363971,-1
24,F,1,1,4,9,2,13,1,2542,0,0.09935504,10.19579,0.5457222,-1
24,F,1,1,4,10,1,14,2,3031,2,0.4664225,6.475108,3.891789,-1
24,F,1,1,4,11,1,15,3,7764,9,0.3172489,6.593801,2.670418,-1
24,F,1,1,4,12,3,13,1,1442,0,0.1386776,6.2795,1.20788,-1
24,F,1,1,4,13,3,16,4,4176,2,0.4085588,6.608727,3.398112,-1
24,F,1,1,4,14,4,13,1,5776,0,0.8273368,10.17613,4.59039,-1
24,F,1,1,4,15,2,14,2,3620,2,0.02209932,10.46496,0.1186941,-1
24,F,1,1,4,16,4,15,3,2187,0,0.2310132,10.29152,1.248508,-1
24,F,1,1,5,1,3,20,4,5775,2,0.1226185,6.586405,1.015293,-1
24,F,1,1,5,2,4,19,3,2909,0,0.2970018,10.24966,1.614952,-1
24,F,1,1,5,3,2,17,1,4720,5,0.4955451,10.14003,2.759105,-1
24,F,1,1,5,4,3,18,2,1742,0,0.5417867,6.386201,4.629863,-1
24,F,1,1,5,5,1,19,3,3520,0,0.4714529,6.380412,4.088447,-1
24,F,1,1,5,6,1,20,4,3476,1,0.447577,6.600945,3.71146,-1
24,F,1,1,5,7,4,17,1,1731,0,0.7224307,10.12639,3.994932,-1
24,F,1,1,5,8,4,18,2,6009,0,0.2791244,10.40854,1.490034,-1
24,F,1,1,5,9,2,20,4,4131,2,0.8004305,10.42887,4.323999,-1
24,F,1,1,5,10,1,18,2,3665,0,0.1261794,6.380486,1.085344,-1
24,F,1,1,5,11,3,17,1,1753,0,0.5090721,6.280876,4.502848,-1
24,F,1,1,5,12,2,18,2,6720,0,0.5572293,10.44852,2.965175,-1
24,F,1,1,5,13,2,19,3,2087,0,0.3674199,10.23715,1.980112,-1
24,F,1,1,5,14,1,17,1,3276,1,0.2968667,6.292453,2.58755,-1
24,F,1,1,5,15,4,20,4,2587,0,0.4624709,10.42198,2.475832,-1
24,F,1,1,5,16,3,19,3,2987,0,0.5222749,6.345674,4.532461,-1
24,F,1,1,6,1,2,21,1,1631,0,0.7617894,10.15688,4.265812,-1
24,F,1,1,6,2,3,22,2,2776,0,0.3211536,6.409255,2.742811,-1
24,F,1,1,6,3,4,21,1,1387,0,0.3384697,10.13228,1.874924,-1
24,F,1,1,6,4,3,24,4,4465,2,0.05795353,6.57141,0.4809199,-1
24,F,1,1,6,5,1,22,2,1542,0,0.06605799,6.391104,0.5657911,-1
24,F,1,1,6,6,1,24,4,2242,1,0.1465566,6.597176,1.222373,-1
24,F,1,1,6,7,4,23,3,2820,0,0.2272548,10.23654,1.236222,-1
24,F,1,1,6,8,2,22,2,1253,0,0.4736857,10.4538,2.525612,-1
24,F,1,1,6,9,1,23,3,2698,0,0.1369111,6.388652,1.188774,-1
24,F,1,1,6,10,1,21,1,1742,0,0.3428293,6.28728,2.997807,-1
24,F,1,1,6,11,4,22,2,1731,0,0.8623722,10.45404,4.592267,-1
24,F,1,1,6,12,2,23,3,1842,1,0.7513911,10.24964,4.040942,-1
24,F,1,1,6,13,4,24,4,3220,1,0.7088748,10.381,3.781754,-1
24,F,1,1,6,14,3,23,3,4609,0,0.2863164,6.37303,2.489157,-1
24,F,1,1,6,15,2,24,4,2342,0,0.2044918,10.43246,1.088045,-1
24,F,1,1,6,16,3,21,1,2187,0,0.3871422,6.236861,3.372027,-1
24,F,1,1,7,1,4,26,2,2576,0,0.5428905,10.44348,2.897662,-1
24,F,1,1,7,2,1,25,1,3931,0,0.2817027,6.284265,2.458299,-1
24,F,1,1,7,3,3,27,3,1887,0,0.3554273,6.347024,3.082102,-1
24,F,1,1,7,4,2,26,2,2387,2,0.3344154,10.4499,1.806669,-1
24,F,1,1,7,5,4,27,3,1276,0,0.3474641,10.25999,1.903103,-1
24,F,1,1,7,6,3,25,1,2931,1,0.06718305,6.233095,0.587175,-1
24,F,1,1,7,7,3,28,4,2476,1,0.2480305,6.598995,2.092467,-1
24,F,1,1,7,8,1,26,2,1765,1,0.1604958,6.385522,1.358403,-1
24,F,1,1,7,9,2,25,1,1898,0,0.0103411,10.15552,0.05934703,-1
24,F,1,1,7,10,2,28,4,2509,0,0.286211,10.4355,1.536842,-1
24,F,1,1,7,11,1,27,3,4498,0,0.3869036,6.368978,3.361501,-1
24,F,1,1,7,12,4,25,1,1553,0,9.042436E-08,10.16592,0,-1
24,F,1,1,7,13,4,28,4,2598,2,0.2300157,10.41872,1.240016,-1
24,F,1,1,7,14,3,26,2,2220,1,1.132876E-07,6.415639,0,-1
24,F,1,1,7,15,2,27,3,1098,0,0.7207554,10.225,3.881965,-1
24,F,1,1,7,16,1,28,4,3053,0,0.364923,6.570019,3.083626,-1
24,F,1,1,8,1,3,31,3,2965,0,7.514156E-08,6.329197,0,-1
24,F,1,1,8,2,4,29,1,2009,0,0.3585735,10.17034,1.963936,-1
24,F,1,1,8,3,2,30,2,8475,0,0.2689864,10.43831,1.435178,-1
24,F,1,1,8,4,4,32,4,1631,0,0.6360543,10.36555,3.41346,-1
24,F,1,1,8,5,4,30,2,1453,1,0.6465253,10.41196,3.442759,-1
24,F,1,1,8,6,2,31,3,3420,4,0.5132595,10.18376,2.836142,-1
24,F,1,1,8,7,1,32,4,2620,0,0.2777568,6.558096,2.351103,-1
24,F,1,1,8,8,1,30,2,1609,0,0.1220582,6.377573,1.034197,-1
24,F,1,1,8,9,3,32,4,5031,0,0.5150056,6.562444,4.372197,-1
24,F,1,1,8,10,1,29,1,2842,0,0.246909,6.268725,2.160664,-1
24,F,1,1,8,11,1,31,3,3542,0,0.3926076,6.334668,3.431309,-1
24,F,1,1,8,12,3,29,1,2598,0,0.4814368,6.263547,4.289072,-1
24,F,1,1,8,13,2,32,4,7209,0,0.7846035,10.38162,4.223223,-1
24,F,1,1,8,14,2,29,1,1631,0,0.05728007,10.12532,0.315899,-1
24,F,1,1,8,15,3,30,2,3464,1,1.586033E-07,6.397643,0.01978234,-1
24,F,1,1,8,16,4,31,3,1942,1,0.5936052,10.19707,3.204974,-1
24,F,1,1,9,1,2,33,1,1909,0,0.4690956,10.12471,2.614117,-1
24,F,1,1,9,2,3,35,3,2976,1,0.4387839,6.298612,3.868271,-1
24,F,1,1,9,3,4,33,1,2787,2,0.2827109,10.0947,1.576195,-1
24,F,1,1,9,4,2,34,2,1320,0,0.3615988,10.41849,1.931987,-1
24,F,1,1,9,5,4,36,4,1676,0,0.4160526,10.35332,2.235459,-1
24,F,1,1,9,6,3,34,2,1987,1,0.2138767,6.39294,1.856989,-1
24,F,1,1,9,7,3,36,4,3998,0,0.08752866,6.529037,0.7386047,-1
24,F,1,1,9,8,1,34,2,1609,0,1.031529E-07,6.380273,0,-1
24,F,1,1,9,9,2,35,3,1265,0,0.2849967,10.18888,1.553938,-1
24,F,1,1,9,10,1,33,1,1998,1,0.4017983,6.255209,3.562659,-1
24,F,1,1,9,11,1,36,4,2276,0,0.53319,6.559374,4.508456,-1
24,F,1,1,9,12,1,35,3,2354,0,1.638408E-07,6.339458,0,-1
24,F,1,1,9,13,2,36,4,3698,0,0.7314649,10.38468,3.93557,-1
24,F,1,1,9,14,3,33,1,1242,0,0.07953128,6.270744,0.7010924,-1
24,F,1,1,9,15,4,34,2,6042,1,0.4862798,10.37424,2.590045,-1
24,F,1,1,9,16,4,35,3,2442,0,0.4906107,10.20948,2.658002,-1
24,F,1,1,10,1,3,38,2,1320,0,4.234342E-07,6.364112,0,-1
24,F,1,1,10,2,1,39,3,1676,0,0.02539357,6.335441,0.220287,-1
24,F,1,1,10,3,3,40,4,2365,0,0.4267781,6.5531,3.62693,-1
24,F,1,1,10,4,2,39,3,1453,0,0.05661578,10.19831,0.309643,-1
24,F,1,1,10,5,1,37,1,1864,0,0.4312003,6.267832,3.770657,-1
24,F,1,1,10,6,4,39,3,2376,2,8.710062E-08,10.18694,0,-1
24,F,1,1,10,7,2,38,2,4942,0,4.221183E-08,10.42364,0,-1
24,F,1,1,10,8,2,37,1,1898,0,0.2272003,10.11897,1.250231,-1
24,F,1,1,10,9,3,39,3,3087,2,0.03586765,6.302206,0.3121605,-1
24,F,1,1,10,10,1,40,4,3953,3,0.4635627,6.540614,3.869789,-1
24,F,1,1,10,11,4,37,1,1265,0,1.497449E-07,10.14284,0.01978234,-1
24,F,1,1,10,12,4,38,2,1387,0,0.6698005,10.42765,3.581187,-1
24,F,1,1,10,13,2,40,4,4120,3,0.3948886,10.36207,2.127989,-1
24,F,1,1,10,14,3,37,1,1654,0,0.2247718,6.235603,1.98416,-1
24,F,1,1,10,15,4,40,4,1576,0,0.7225642,10.37191,3.882167,-1
24,F,1,1,10,16,1,38,2,2231,0,0.1185344,6.374991,1.005026,-1
24,F,1,1,11,1,2,44,4,2120,0,0.605405,10.37828,3.258405,-1
24,F,1,1,11,2,4,42,2,1531,0,0.6331053,10.39785,3.379103,-1
24,F,1,1,11,3,1,44,4,2253,0,0.4852644,6.54963,4.115136,-1
24,F,1,1,11,4,4,41,1,1431,0,0.2092327,10.12234,1.151481,-1
24,F,1,1,11,5,2,43,3,1842,1,0.8347613,10.19223,4.556984,-1
24,F,1,1,11,6,3,44,4,1887,0,0.1791959,6.535606,1.518653,-1
24,F,1,1,11,7,1,41,1,1442,0,0.2580446,6.265024,2.259321,-1
24,F,1,1,11,8,4,44,4,5220,2,0.3642624,10.37389,1.958647,-1
24,F,1,1,11,9,1,43,3,1964,0,0.499955,6.326545,4.377032,-1
24,F,1,1,11,10,1,42,2,1587,0,0.1057455,6.370038,0.9059024,-1
24,F,1,1,11,11,3,43,3,2742,0,0.503942,6.341057,4.411265,-1
24,F,1,1,11,12,2,41,1,1687,1,9.678019E-08,10.11641,0,-1
24,F,1,1,11,13,2,42,2,1020,0,0.5829232,10.4162,3.119603,-1
24,F,1,1,11,14,4,43,3,4886,1,0.7242821,10.23546,4.016004,-1
24,F,1,1,11,15,3,41,1,1887,0,2.249856E-07,6.213615,0,-1
24,F,1,1,11,16,3,42,2,1620,0,0.2730133,6.391095,2.322289,-1
24,F,1,1,12,1,4,47,3,1265,0,0.3784097,10.19873,2.045262,-1
24,F,1,1,12,2,3,46,2,1464,0,0.2966608,6.362364,2.542836,-1
24,F,1,1,12,3,3,48,4,2476,2,0.1817666,6.544187,1.498677,-1
24,F,1,1,12,4,3,45,1,1620,0,0.4444367,6.27211,3.932036,-1
24,F,1,1,12,5,2,46,2,9999,1,-1,-1,-1,-1
24,F,1,1,12,6,2,47,3,1387,1,0.753036,10.19176,4.070829,-1
24,F,1,1,12,7,1,45,1,1298,0,0.1178918,6.262367,1.040423,-1
24,F,1,1,12,8,1,48,4,3998,2,0.4554946,6.546154,3.825819,-1
24,F,1,1,12,9,1,47,3,2820,1,0.4830308,6.315423,4.23258,-1
24,F,1,1,12,10,1,46,2,1709,0,0.1177663,6.365037,1.015293,-1
24,F,1,1,12,11,4,45,1,2542,0,0.8632467,10.2081,4.729115,-1
24,F,1,1,12,12,2,48,4,7765,0,0.298709,10.4219,1.590286,-1
24,F,1,1,12,13,4,46,2,942,0,0.686843,10.46942,3.652216,-1
24,F,1,1,12,14,2,45,1,1453,0,0.2480415,10.16593,1.364584,-1
24,F,1,1,12,15,3,47,3,3965,1,0.2719302,6.328566,2.3619,-1
24,F,1,1,12,16,4,48,4,2087,1,0.7285606,10.42797,3.903897,-1
24,F,1,1,13,1,2,50,2,1187,0,6.334151E-08,10.45602,0,-1
24,F,1,1,13,2,3,49,1,1342,0,0.2378951,6.244341,2.06933,-1
24,F,1,1,13,3,3,50,2,2720,0,0.2939148,6.415132,2.530567,-1
24,F,1,1,13,4,4,49,1,3087,0,0.1588953,10.12684,0.8807117,-1
24,F,1,1,13,5,4,52,4,1531,1,0.7694749,10.40432,4.132707,-1
24,F,1,1,13,6,1,49,1,3076,2,0.279581,6.272283,2.472668,-1
24,F,1,1,13,7,3,52,4,3453,1,0.360575,6.530813,3.059343,-1
24,F,1,1,13,8,3,51,3,2898,0,0.3690962,6.302168,3.215098,-1
24,F,1,1,13,9,4,50,2,2442,1,0.451908,10.40312,2.451282,-1
24,F,1,1,13,10,2,51,3,1387,0,0.6453258,10.19766,3.495304,-1
24,F,1,1,13,11,2,52,4,2831,0,0.8842862,10.38371,4.755511,-1
24,F,1,1,13,12,4,51,3,2965,2,0.4644537,10.26094,2.529407,-1
24,F,1,1,13,13,2,49,1,2387,0,0.6944357,10.20178,3.854071,-1
24,F,1,1,13,14,1,52,4,3287,0,0.2129113,6.580626,1.79526,-1
24,F,1,1,13,15,1,51,3,1987,0,0.4563683,6.361245,3.97296,-1
24,F,1,1,13,16,1,50,2,1509,0,0.1419733,6.434445,1.198447,-1
24,F,1,1,14,1,3,55,3,4253,6,0.5284286,6.307022,4.60496,-1
24,F,1,1,14,2,2,56,4,2931,0,0.5971715,10.40332,3.202346,-1
24,F,1,1,14,3,1,54,2,1387,0,0.3717767,6.399089,3.178907,-1
24,F,1,1,14,4,3,56,4,1920,0,0.3600518,6.566613,2.987013,-1
24,F,1,1,14,5,4,55,3,1653,0,0.4691002,10.26363,2.540988,-1
24,F,1,1,14,6,4,53,1,1109,0,0.3056829,10.17097,1.703183,-1
24,F,1,1,14,7,4,54,2,2843,0,0.5460875,10.40686,2.898135,-1
24,F,1,1,14,8,2,53,1,1731,0,0.09653478,10.14825,0.5319225,-1
24,F,1,1,14,9,1,55,3,1409,0,0.2076727,6.351553,1.814991,-1
24,F,1,1,14,10,3,54,2,1165,0,0.0798798,6.395421,0.6760855,-1
24,F,1,1,14,11,4,56,4,1420,0,0.3055937,10.4006,1.636379,-1
24,F,1,1,14,12,2,55,3,1576,0,0.4160542,10.21456,2.29891,-1
24,F,1,1,14,13,1,56,4,2553,0,0.2514424,6.570318,2.102265,-1
24,F,1,1,14,14,1,53,1,1376,0,3.157898E-08,6.300397,0,-1
24,F,1,1,14,15,2,54,2,2720,0,0.7272621,10.45173,3.885494,-1
24,F,1,1,14,16,3,53,1,1576,0,0.08228213,6.268168,0.7170975,-1
24,F,1,1,15,1,4,58,2,865,0,0.5644054,10.44559,3.012009,-1
24,F,1,1,15,2,1,60,4,1787,1,3.339468E-08,6.566094,0,-1
24,F,1,1,15,3,1,58,2,1409,0,0.3222492,6.408436,2.761375,-1
24,F,1,1,15,4,1,59,3,2798,0,0.3918798,6.332625,3.422568,-1
24,F,1,1,15,5,2,58,2,1098,0,0.3890982,10.45848,2.099004,-1
24,F,1,1,15,6,4,57,1,4842,0,0.3287542,10.15111,1.825099,-1
24,F,1,1,15,7,4,59,3,1020,0,0.3331887,10.23489,1.802114,-1
24,F,1,1,15,8,4,60,4,1809,0,0.5925346,10.39794,3.174902,-1
24,F,1,1,15,9,2,57,1,1053,0,0.3077599,10.14852,1.686556,-1
24,F,1,1,15,10,2,59,3,1576,1,0.2167786,10.21418,1.175531,-1
24,F,1,1,15,11,3,58,2,1676,1,1.492339E-07,6.391578,0,-1
24,F,1,1,15,12,3,60,4,1176,0,0.4783331,6.562989,4.039294,-1
24,F,1,1,15,13,3,59,3,2764,0,0.3243731,6.305581,2.822304,-1
24,F,1,1,15,14,3,57,1,1365,0,6.377935E-08,6.291995,0,-1
24,F,1,1,15,15,2,60,4,1542,0,0.4600518,10.39758,2.471084,-1
24,F,1,1,15,16,1,57,1,1742,0,0.2629416,6.292572,2.28944,-1
24,F,1,1,16,1,1,62,2,3176,0,4.839147E-07,6.397313,0,-1
24,F,1,1,16,2,2,61,1,1254,0,8.609653E-08,10.14717,0,-1
24,F,1,1,16,3,4,62,2,4053,2,0.8346906,10.42185,4.517483,-1
24,F,1,1,16,4,4,64,4,1642,1,0.4335096,10.39018,2.327508,-1
24,F,1,1,16,5,3,61,1,1209,0,0.2411972,6.241266,2.125964,-1
24,F,1,1,16,6,2,63,3,2531,3,0.4969154,10.20231,2.689554,-1
24,F,1,1,16,7,2,62,2,1020,0,0.268032,10.44361,1.437086,-1
24,F,1,1,16,8,2,64,4,2809,2,0.2938227,10.3884,1.569102,-1
24,F,1,1,16,9,4,63,3,3020,0,0.5921025,10.24861,3.220877,-1
24,F,1,1,16,10,4,61,1,1765,0,0.1136486,10.15886,0.6274496,-1
24,F,1,1,16,11,3,63,3,3564,3,0.3541183,6.332892,3.082991,-1
24,F,1,1,16,12,3,62,2,1754,0,2.441273E-07,6.382142,0,-1
24,F,1,1,16,13,1,63,3,1853,0,0.2632717,6.336702,2.302228,-1
24,F,1,1,16,14,3,64,4,4020,2,0.1003418,6.552965,0.8476528,-1
24,F,1,1,16,15,1,61,1,1409,0,1.348044E-07,6.287705,0,-1
24,F,1,1,16,16,1,64,4,2120,1,0.3667592,6.556417,3.078861,-1
24,F,1,1,17,1,4,67,3,1809,0,0.1263287,10.19972,0.6901216,-1
24,F,1,1,17,2,3,66,2,1654,0,0.2197246,6.416327,1.884502,-1
24,F,1,1,17,3,1,67,3,1453,0,0.1723779,6.330292,1.509088,-1
24,F,1,1,17,4,2,65,1,1165,0,0.4564374,10.13718,2.539601,-1
24,F,1,1,17,5,1,66,2,1498,0,0.08687179,6.393754,0.7457234,-1
24,F,1,1,17,6,1,68,4,2454,2,0.2310587,6.549073,1.920812,-1
24,F,1,1,17,7,3,67,3,2720,0,0.5276802,6.335247,4.61346,-1
24,F,1,1,17,8,1,65,1,1687,0,0.356003,6.28797,3.106775,-1
24,F,1,1,17,9,2,68,4,1353,0,0.2882753,10.38639,1.549776,-1
24,F,1,1,17,10,3,65,1,1631,0,0.2959183,6.291876,2.590801,-1
24,F,1,1,17,11,3,68,4,2431,2,0.1066019,6.552706,0.8838168,-1
24,F,1,1,17,12,4,65,1,1542,1,0.0390491,10.16628,0.2158,-1
24,F,1,1,17,13,2,67,3,1498,1,0.08786351,10.18968,0.4796977,-1
24,F,1,1,17,14,4,66,2,831,0,0.8613654,10.41953,4.5836,-1
24,F,1,1,17,15,4,68,4,4231,3,0.8402622,10.35471,4.502978,-1
24,F,1,1,17,16,2,66,2,920,0,0.2756059,10.43408,1.471932,-1
24,F,1,1,18,1,4,72,4,1587,1,0.255337,10.34937,1.371593,-1
24,F,1,1,18,2,3,69,1,1387,0,0.2237544,6.257324,1.955347,-1
24,F,1,1,18,3,3,71,3,5353,8,0.2427992,6.273293,2.132674,-1
24,F,1,1,18,4,1,72,4,2898,0,0.5279427,6.543679,4.481613,-1
24,F,1,1,18,5,1,70,2,1376,0,0.184565,6.394993,1.573336,-1
24,F,1,1,18,6,2,72,4,731,0,0.7068655,10.38562,3.789823,-1
24,F,1,1,18,7,4,69,1,3831,0,2.264879E-07,10.10509,0,-1
24,F,1,1,18,8,2,70,2,875,0,0.5369794,10.42535,2.871058,-1
24,F,1,1,18,9,1,71,3,2065,1,0.09490295,6.324698,0.8296872,-1
24,F,1,1,18,10,1,69,1,1542,0,0.04577975,6.276701,0.4015385,-1
24,F,1,1,18,11,3,72,4,3887,4,0.2912941,6.556723,2.42172,-1
24,F,1,1,18,12,3,70,2,1176,0,0.2083114,6.416373,1.768129,-1
24,F,1,1,18,13,2,71,3,1409,1,0.2796965,10.19102,1.516848,-1
24,F,1,1,18,14,2,69,1,1042,0,0.09221553,10.13025,0.5093729,-1
24,F,1,1,18,15,4,71,3,1687,0,0.1973219,10.23912,1.075382,-1
24,F,1,1,18,16,4,70,2,920,0,0.301003,10.41063,1.606691,-1
24,F,1,1,19,1,1,75,3,3587,4,0.3223044,6.306444,2.785372,-1
24,F,1,1,19,2,4,76,4,1765,0,0.1662847,10.38384,0.8939433,-1
24,F,1,1,19,3,4,75,3,1331,0,0.005335802,10.23209,0.02797646,-1
24,F,1,1,19,4,3,74,2,2942,0,0.2746101,6.38418,2.327677,-1
24,F,1,1,19,5,3,73,1,1731,0,0.2338896,6.25142,2.046888,-1
24,F,1,1,19,6,2,74,2,1887,0,0.2415008,10.42747,1.293315,-1
24,F,1,1,19,7,3,75,3,2331,2,0.3487678,6.280535,3.039248,-1
24,F,1,1,19,8,2,76,4,1520,0,0.7898232,10.37895,4.252339,-1
24,F,1,1,19,9,4,73,1,1298,0,0.2846642,10.15751,1.56423,-1
24,F,1,1,19,10,3,76,4,2120,1,0.4745612,6.547277,3.951262,-1
24,F,1,1,19,11,2,75,3,1865,0,0.05241298,10.18486,0.2859903,-1
24,F,1,1,19,12,4,74,2,853,0,0.5812728,10.42515,3.108161,-1
24,F,1,1,19,13,2,73,1,3042,0,7.831791E-08,10.12863,0,-1
24,F,1,1,19,14,1,76,4,3031,2,0.2922861,6.542317,2.428902,-1
24,F,1,1,19,15,1,73,1,1943,0,0.2337726,6.276258,2.04306,-1
24,F,1,1,19,16,1,74,2,2398,0,0.3263161,6.38758,2.775022,-1
24,F,1,1,20,1,4,79,3,2465,1,0.3972103,10.2264,2.189458,-1
24,F,1,1,20,2,3,77,1,1998,0,3.401157E-08,6.273479,0,-1
24,F,1,1,20,3,1,79,3,1831,0,0.240286,6.330799,2.103568,-1
24,F,1,1,20,4,1,78,2,1376,0,0.3247246,6.394514,2.735164,-1
24,F,1,1,20,5,4,80,4,1509,0,0.793088,10.3325,4.250957,-1
24,F,1,1,20,6,3,79,3,2709,0,0.2336823,6.332274,2.040951,-1
24,F,1,1,20,7,4,78,2,976,0,0.1044168,10.41504,0.5595313,-1
24,F,1,1,20,8,2,77,1,3164,0,0.3263934,10.1366,1.793078,-1
24,F,1,1,20,9,2,80,4,1554,1,0.7429628,10.38608,3.996941,-1
24,F,1,1,20,10,4,77,1,1998,0,0.0006213083,10.13254,0,-1
24,F,1,1,20,11,3,80,4,2498,1,0.4397967,6.548469,3.663617,-1
24,F,1,1,20,12,3,78,2,1220,0,0.5020546,6.391972,4.30889,-1
24,F,1,1,20,13,1,80,4,1187,1,0.2764243,6.550986,2.325658,-1
24,F,1,1,20,14,2,79,3,1342,0,0.137474,10.186,0.7488656,-1
24,F,1,1,20,15,2,78,2,731,0,0.8559875,10.42582,4.579453,-1
24,F,1,1,20,16,1,77,1,3031,0,0.03262982,6.280899,0.2873554,-1
24,F,1,1,21,1,3,82,2,1731,1,0.02302826,6.376651,0.1958353,-1
24,F,1,1,21,2,4,84,4,1265,0,4.248182E-08,10.37218,0,-1
24,F,1,1,21,3,4,81,1,1720,0,0.2125804,10.10948,1.182667,-1
24,F,1,1,21,4,2,82,2,2442,0,2.101853E-08,10.43032,0,-1
24,F,1,1,21,5,2,81,1,2709,0,0.1684693,10.12712,0.9274623,-1
24,F,1,1,21,6,1,84,4,3031,2,2.363893E-07,6.544998,0,-1
24,F,1,1,21,7,2,83,3,1065,0,0.7803398,10.19619,4.228367,-1
24,F,1,1,21,8,3,84,4,3576,2,0.3968613,6.516253,3.305116,-1
24,F,1,1,21,9,1,81,1,1909,1,0.02993087,6.278707,0.2624426,-1
24,F,1,1,21,10,1,83,3,2175,0,0.2101879,6.324367,1.841538,-1
24,F,1,1,21,11,3,81,1,2076,0,0.02653769,6.275953,0.23239,-1
24,F,1,1,21,12,1,82,2,2353,0,0.3252612,6.378179,2.746163,-1
24,F,1,1,21,13,4,83,3,1453,0,0.6078231,10.23612,3.310975,-1
24,F,1,1,21,14,4,82,2,787,0,0.05117097,10.40811,0.2741124,-1
24,F,1,1,21,15,3,83,3,2976,1,0.1357004,6.320807,1.18795,-1
24,F,1,1,21,16,2,84,4,2831,0,0.3433703,10.3771,1.84748,-1
24,F,1,1,22,1,1,85,1,3198,1,0.4319257,6.272565,3.778905,-1
24,F,1,1,22,2,2,88,4,1198,0,0.3596334,10.38245,1.930771,-1
24,F,1,1,22,3,3,87,3,1954,0,0.4770056,6.301362,4.181747,-1
24,F,1,1,22,4,3,85,1,1598,0,1.42911E-07,6.277295,0,-1
24,F,1,1,22,5,1,86,2,4365,0,1.450866E-07,6.375478,0,-1
24,F,1,1,22,6,4,88,4,1298,0,0.8357898,10.3775,4.500977,-1
24,F,1,1,22,7,2,85,1,1153,0,0.005786694,10.12188,0.02797646,-1
24,F,1,1,22,8,2,87,3,1487,0,0.3199154,10.18253,1.734494,-1
24,F,1,1,22,9,2,86,2,1020,0,0.08835531,10.42305,0.4735395,-1
24,F,1,1,22,10,3,88,4,1931,1,1.106202E-07,6.520134,0,-1
24,F,1,1,22,11,3,86,2,1698,0,2.099313E-07,6.374265,0,-1
24,F,1,1,22,12,1,87,3,1865,0,0.220874,6.308756,1.938459,-1
24,F,1,1,22,13,1,88,4,2354,0,0.4238434,6.537808,3.599782,-1
24,F,1,1,22,14,4,87,3,2042,0,0.0214728,10.1952,0.1170339,-1
24,F,1,1,22,15,4,86,2,1031,0,0.4445935,10.42445,2.371411,-1
24,F,1,1,22,16,4,85,1,3864,1,0.2486652,10.14341,1.36659,-1
24,F,1,1,23,1,1,90,2,3220,0,1.051392E-07,6.384053,0,-1
24,F,1,1,23,2,1,91,3,1653,0,0.2599264,6.324763,2.278214,-1
24,F,1,1,23,3,2,92,4,2576,1,0.4517333,10.36795,2.422528,-1
24,F,1,1,23,4,2,91,3,2187,2,0.7257836,10.17164,3.950965,-1
24,F,1,1,23,5,3,92,4,4398,0,0.3737369,6.53464,3.184629,-1
24,F,1,1,23,6,3,91,3,2842,1,7.119999E-08,6.311766,0,-1
24,F,1,1,23,7,1,92,4,2087,0,0.07543541,6.540771,0.6379647,-1
24,F,1,1,23,8,4,91,3,3020,0,0.1343187,10.21265,0.7346201,-1
24,F,1,1,23,9,4,92,4,2031,1,3.178844E-07,10.36615,0,-1
24,F,1,1,23,10,3,89,1,5131,0,0.3617736,6.219168,3.207294,-1
24,F,1,1,23,11,3,90,2,1087,0,8.302486E-08,6.370478,0,-1
24,F,1,1,23,12,4,89,1,1253,0,8.483492E-08,10.1173,0,-1
24,F,1,1,23,13,2,90,2,1498,0,7.173336E-08,10.42369,0,-1
24,F,1,1,23,14,2,89,1,1909,0,0.2235127,10.12197,1.24537,-1
24,F,1,1,23,15,4,90,2,942,0,0.03012891,10.40812,0.1607126,-1
24,F,1,1,23,16,1,89,1,2853,0,0.1406377,6.278666,1.240173,-1
24,F,1,1,24,1,3,95,3,2576,1,0.0102588,6.292201,0.09065409,-1
24,F,1,1,24,2,4,96,4,5709,3,0.1457549,10.34931,0.7875819,-1
24,F,1,1,24,3,1,95,3,3865,0,0.4475912,6.320829,3.933679,-1
24,F,1,1,24,4,3,93,1,1187,0,6.482544E-08,6.225099,0,-1
24,F,1,1,24,5,3,94,2,2787,0,0.1631043,6.381639,1.410282,-1
24,F,1,1,24,6,4,95,3,1431,0,0.5969575,10.21762,3.24715,-1
24,F,1,1,24,7,4,94,2,798,0,0.1354969,10.37311,0.7260464,-1
24,F,1,1,24,8,3,96,4,1465,0,0.4830863,6.540396,4.056565,-1
24,F,1,1,24,9,2,93,1,987,0,0.1854793,10.12325,1.02622,-1
24,F,1,1,24,10,2,94,2,787,0,4.44417E-08,10.4158,0,-1
24,F,1,1,24,11,2,95,3,1376,0,0.1237973,10.17215,0.6783969,-1
24,F,1,1,24,12,1,94,2,1709,0,0.06604571,6.378114,0.5671728,-1
24,F,1,1,24,13,1,96,4,1764,1,0.1065077,6.542483,0.9024397,-1
24,F,1,1,24,14,4,93,1,1987,0,0.135002,10.12659,0.7504317,-1
24,F,1,1,24,15,2,96,4,2176,0,0.8074939,10.36555,4.353072,-1
24,F,1,1,24,16,1,93,1,1631,0,0.04623592,6.268554,0.4054182,-1
24,F,1,1,25,1,4,100,4,1275,0,0.576764,10.37093,3.094273,-1
24,F,1,1,25,2,2,97,1,1031,0,0.2218152,10.12547,1.229556,-1
24,F,1,1,25,3,3,99,3,1665,0,0.07436176,6.325337,0.6486109,-1
24,F,1,1,25,4,4,98,2,4642,0,0.3599685,10.37302,1.941586,-1
24,F,1,1,25,5,4,99,3,1387,0,0.1646448,10.24006,0.8956926,-1
24,F,1,1,25,6,1,100,4,1897,1,0.4106823,6.542337,3.485319,-1
24,F,1,1,25,7,2,98,2,1343,0,0.23073,10.41722,1.247097,-1
24,F,1,1,25,8,4,97,1,4198,0,0.08472263,10.13527,0.468137,-1
24,F,1,1,25,9,3,100,4,2087,0,0.4345942,6.539923,3.645884,-1
24,F,1,1,25,10,3,98,2,1087,0,1.985499E-07,6.388124,0,-1
24,F,1,1,25,11,2,99,3,1953,0,0.5678145,10.19682,3.076253,-1
24,F,1,1,25,12,3,97,1,1276,0,0.1201125,6.233239,1.049971,-1
24,F,1,1,25,13,1,99,3,1609,0,0.07295124,6.327722,0.6367366,-1
24,F,1,1,25,14,1,98,2,1198,0,8.795502E-08,6.374151,0,-1
24,F,1,1,25,15,2,100,4,1520,0,0.8428196,10.37416,4.540319,-1
24,F,1,1,25,16,1,97,1,1887,0,0.2883912,6.273152,2.551519,-1
24,F,1,1,26,1,3,102,2,3687,0,0.3270209,6.390973,2.826324,-1
24,F,1,1,26,2,4,103,3,2309,1,0.7445292,10.23538,4.041765,-1
24,F,1,1,26,3,1,102,2,2420,0,0.01791996,6.363774,0.1545051,-1
24,F,1,1,26,4,2,103,3,1342,1,5.306233E-08,10.18854,0.01978234,-1
24,F,1,1,26,5,4,102,2,909,0,2.050298E-07,10.38753,0,-1
24,F,1,1,26,6,3,103,3,1687,0,0.5287471,6.325311,4.630539,-1
24,F,1,1,26,7,2,101,1,1953,0,0.4089088,10.1149,2.244633,-1
24,F,1,1,26,8,4,104,4,2031,1,0.7760509,10.34115,4.162078,-1
24,F,1,1,26,9,2,102,2,931,0,0.03415103,10.40872,0.183454,-1
24,F,1,1,26,10,3,104,4,2631,1,0.2447088,6.525454,2.086941,-1
24,F,1,1,26,11,4,101,1,1187,0,0.6073647,10.12756,3.367902,-1
24,F,1,1,26,12,1,103,3,1998,0,0.1961306,6.321992,1.721697,-1
24,F,1,1,26,13,3,101,1,3053,0,2.632468E-08,6.276932,0,-1
24,F,1,1,26,14,2,104,4,2487,0,0.260341,10.37779,1.399836,-1
24,F,1,1,26,15,1,101,1,1320,0,1.404531E-07,6.274897,0,-1
24,F,1,1,26,16,1,104,4,2676,3,0.2336745,6.535703,1.946921,-1
24,F,1,1,27,1,1,105,1,1598,0,1.547776E-08,6.27421,0,-1
24,F,1,1,27,2,1,107,3,1498,0,0.2111111,6.318049,1.851078,-1
24,F,1,1,27,3,2,108,4,1354,0,0.3409804,10.37057,1.834937,-1
24,F,1,1,27,4,3,107,3,2965,0,1.149064E-07,6.323138,0,-1
24,F,1,1,27,5,2,106,2,931,0,0.1711882,10.41811,0.9236568,-1
24,F,1,1,27,6,4,108,4,1009,0,0.260835,10.37529,1.403745,-1
24,F,1,1,27,7,4,107,3,1776,0,0.280039,10.22976,1.521485,-1
24,F,1,1,27,8,3,108,4,3854,2,0.308681,6.543217,2.574811,-1
24,F,1,1,27,9,3,106,2,1632,0,0.04508267,6.395913,0.3846134,-1
24,F,1,1,27,10,3,105,1,1553,0,0.4745306,6.246587,4.156946,-1
24,F,1,1,27,11,4,106,2,1442,0,0.7682779,10.40702,4.116516,-1
24,F,1,1,27,12,2,107,3,931,0,0.7396688,10.19042,4.009806,-1
24,F,1,1,27,13,2,105,1,2264,0,0.1400831,10.1287,0.7715172,-1
24,F,1,1,27,14,1,108,4,3365,2,0.3537353,6.5341,2.980584,-1
24,F,1,1,27,15,1,106,2,1287,0,0.2474566,6.374864,2.090409,-1
24,F,1,1,27,16,4,105,1,1943,0,0.4620259,10.15356,2.537596,-1
24,F,1,1,28,1,3,112,4,2509,0,0.2335296,6.528638,1.984949,-1
24,F,1,1,28,2,4,111,3,942,0,0.2003004,10.24218,1.088585,-1
24,F,1,1,28,3,2,110,2,843,0,0.309295,10.41927,1.673627,-1
24,F,1,1,28,4,1,109,1,1920,0,0.2116467,6.273337,1.848856,-1
24,F,1,1,28,5,4,112,4,1154,0,0.06729079,10.33253,0.3620769,-1
24,F,1,1,28,6,2,109,1,876,0,0.1135626,10.12454,0.6274496,-1
24,F,1,1,28,7,3,110,2,2309,0,1.903323E-07,6.354708,0,-1
24,F,1,1,28,8,2,111,3,876,0,0.4088099,10.18567,2.211162,-1
24,F,1,1,28,9,1,112,4,2065,0,0.4111906,6.536404,3.466506,-1
24,F,1,1,28,10,3,111,3,3776,0,0.138268,6.322656,1.206745,-1
24,F,1,1,28,11,2,112,4,2554,0,0.8152301,10.37705,4.471769,-1
24,F,1,1,28,12,4,110,2,1709,2,0.3499401,10.41736,1.900737,-1
24,F,1,1,28,13,3,109,1,2665,0,0.09736669,6.220372,0.8593453,-1
24,F,1,1,28,14,1,110,2,1565,0,0.3643452,6.370833,3.102677,-1
24,F,1,1,28,15,4,109,1,1765,0,0.6944957,10.12821,3.84359,-1
24,F,1,1,28,16,1,111,3,2453,1,0.2492699,6.324043,2.178525,-1
24,F,1,1,29,1,3,114,2,1254,0,0.1825415,6.373417,1.571843,-1
24,F,1,1,29,2,1,115,3,1476,0,0.4819537,6.324852,4.232025,-1
24,F,1,1,29,3,1,113,1,1754,1,3.85335E-08,6.272417,0,-1
24,F,1,1,29,4,3,115,3,1098,0,0.07182679,6.321188,0.6286958,-1
24,F,1,1,29,5,1,114,2,1542,0,0.2541296,6.370137,2.172498,-1
24,F,1,1,29,6,4,116,4,1065,0,0.07127038,10.3555,0.382573,-1
24,F,1,1,29,7,2,113,1,965,0,0.6727902,10.12964,3.698459,-1
24,F,1,1,29,8,1,116,4,1220,0,0.5094975,6.531868,4.33219,-1
24,F,1,1,29,9,4,113,1,1942,0,0.2921854,10.13956,1.606569,-1
24,F,1,1,29,10,3,116,4,1653,0,0.501188,6.528175,4.2637,-1
24,F,1,1,29,11,4,114,2,765,0,0.4165251,10.41651,2.254378,-1
24,F,1,1,29,12,2,115,3,887,0,0.3560306,10.18908,1.931278,-1
24,F,1,1,29,13,2,116,4,5687,1,0.8302088,10.36314,4.540319,-1
24,F,1,1,29,14,4,115,3,3854,1,0.854495,10.22027,4.651221,-1
24,F,1,1,29,15,2,114,2,920,0,0.5566821,10.409,2.980978,-1
24,F,1,1,29,16,3,113,1,2831,0,0.01766207,6.270545,0.1532334,-1
24,F,1,1,30,1,3,119,3,1876,1,0.3674271,6.324647,3.226161,-1
24,F,1,1,30,2,3,118,2,1053,0,1.554884E-07,6.40138,0,-1
24,F,1,1,30,3,2,117,1,1298,0,0.6145595,10.12688,3.373072,-1
24,F,1,1,30,4,2,118,2,2698,0,0.2328205,10.41474,1.245684,-1
24,F,1,1,30,5,4,120,4,1720,0,0.2790943,10.33784,1.501808,-1
24,F,1,1,30,6,3,117,1,1665,1,0.007106605,6.228182,0.05934703,-1
24,F,1,1,30,7,2,119,3,1353,1,0.637199,10.19038,3.444919,-1
24,F,1,1,30,8,3,120,4,2942,2,0.2085499,6.504703,1.742711,-1
24,F,1,1,30,9,1,119,3,2054,0,0.2521861,6.309195,2.21576,-1
24,F,1,1,30,10,4,118,2,1120,0,0.3682911,10.36411,1.967122,-1
24,F,1,1,30,11,4,119,3,2365,2,0.5793959,10.22321,3.153371,-1
24,F,1,1,30,12,1,117,1,1431,0,0.2012796,6.269818,1.759475,-1
24,F,1,1,30,13,2,120,4,909,0,0.6683702,10.36673,3.584247,-1
24,F,1,1,30,14,1,118,2,1531,0,0.3885568,6.366493,3.351352,-1
24,F,1,1,30,15,4,117,1,3053,0,0.05841728,10.09196,0.3232465,-1
24,F,1,1,30,16,1,120,4,3653,3,0.0001284485,6.523176,0,-1
24,F,1,1,1,1,5,1,1,7787,0,-1,-1,-1,1
24,F,1,1,1,2,5,3,3,3409,0,-1,-1,-1,0
24,F,1,1,1,3,6,2,2,6776,0,-1,-1,-1,0
24,F,1,1,1,4,7,4,4,1576,0,-1,-1,-1,0
24,F,1,1,1,5,6,3,3,2264,0,-1,-1,-1,0
24,F,1,1,1,6,6,4,4,3576,0,-1,-1,-1,0
24,F,1,1,1,7,8,1,1,2165,0,-1,-1,-1,0
24,F,1,1,1,8,5,4,4,2065,0,-1,-1,-1,0
24,F,1,1,1,9,7,1,1,2009,0,-1,-1,-1,0
24,F,1,1,1,10,7,3,3,2198,0,-1,-1,-1,1
24,F,1,1,1,11,7,2,2,1865,0,-1,-1,-1,0
24,F,1,1,1,12,8,4,4,1954,0,-1,-1,-1,0
24,F,1,1,1,13,8,2,2,1854,0,-1,-1,-1,0
24,F,1,1,1,14,6,1,1,2720,0,-1,-1,-1,0
24,F,1,1,1,15,8,3,3,1042,0,-1,-1,-1,0
24,F,1,1,1,16,5,2,2,5920,0,-1,-1,-1,0
24,F,1,1,2,1,5,2,2,2187,0,-1,-1,-1,0
24,F,1,1,2,2,6,4,4,2153,0,-1,-1,-1,0
24,F,1,1,2,3,7,3,3,1187,0,-1,-1,-1,0
24,F,1,1,2,4,8,2,2,2876,0,-1,-1,-1,0
24,F,1,1,2,5,5,4,4,3053,0,-1,-1,-1,0
24,F,1,1,2,6,7,1,1,1742,0,-1,-1,-1,1
24,F,1,1,2,7,8,3,3,1731,0,-1,-1,-1,0
24,F,1,1,2,8,6,2,2,4220,0,-1,-1,-1,1
24,F,1,1,2,9,8,4,4,1876,0,-1,-1,-1,0
24,F,1,1,2,10,5,3,3,1665,0,-1,-1,-1,0
24,F,1,1,2,11,5,1,1,3765,0,-1,-1,-1,1
24,F,1,1,2,12,7,4,4,1042,0,-1,-1,-1,0
24,F,1,1,2,13,6,3,3,1587,0,-1,-1,-1,0
24,F,1,1,2,14,8,1,1,1620,0,-1,-1,-1,0
24,F,1,1,2,15,7,2,2,2853,0,-1,-1,-1,1
24,F,1,1,2,16,6,1,1,1909,0,-1,-1,-1,0
