Age, Gender, Awareness Type, Session, Block, Trial, Set, Pattern, Quadrant, Response Time, Num Mistakes, Distance From Target, Camera Distance From Target, Angle Error (Degrees), FC Response
22,M,1,1,1,1,4,3,3,2864,0,0.8535303,10.10271,4.747719,-1
22,M,1,1,1,2,3,1,1,6787,1,0.1027791,6.028844,0.9419076,-1
22,M,1,1,1,3,4,2,2,1564,0,0.2790212,10.24947,1.532124,-1
22,M,1,1,1,4,4,4,4,2209,0,0.2857818,10.40808,1.545983,-1
22,M,1,1,1,5,3,2,2,5364,0,0.01532106,6.436789,0.1297215,-1
22,M,1,1,1,6,2,3,3,5820,1,0.6562442,10.12065,3.673172,-1
22,M,1,1,1,7,1,4,4,3531,0,0.1388957,6.55134,1.154536,-1
22,M,1,1,1,8,2,1,1,3598,2,0.6939986,10.09031,3.831599,-1
22,M,1,1,1,9,3,4,4,3076,0,0.3303868,6.571449,2.737668,-1
22,M,1,1,1,10,2,2,2,2531,0,0.2047295,10.25344,1.112763,-1
22,M,1,1,1,11,3,3,3,5542,0,0.2717381,6.231178,2.400859,-1
22,M,1,1,1,12,1,1,1,4465,0,0.3112227,6.053602,2.814456,-1
22,M,1,1,1,13,2,4,4,9264,0,0.5589857,10.43944,3.023232,-1
22,M,1,1,1,14,1,2,2,3965,0,0.2117641,6.458404,1.784216,-1
22,M,1,1,1,15,1,3,3,3920,0,0.3650633,6.227343,3.206562,-1
22,M,1,1,1,16,4,1,1,4842,0,0.2082521,10.13299,1.149269,-1
22,M,1,1,2,1,1,7,3,4975,1,0.4135085,6.208632,3.704595,-1
22,M,1,1,2,2,1,5,1,3343,0,0.3573471,6.046273,3.233072,-1
22,M,1,1,2,3,4,8,4,1953,0,0.4981487,10.42725,2.714258,-1
22,M,1,1,2,4,3,7,3,4676,0,0.1923592,6.228583,1.706512,-1
22,M,1,1,2,5,3,8,4,6887,0,1.081343E-07,6.56557,0,-1
22,M,1,1,2,6,2,6,2,3409,0,0.4396709,10.22347,2.397432,-1
22,M,1,1,2,7,2,7,3,5031,0,0.03375806,10.11736,0.1866263,-1
22,M,1,1,2,8,3,5,1,2654,0,0.4470769,6.022321,4.092755,-1
22,M,1,1,2,9,4,6,2,2320,0,0.07890176,10.24394,0.4302385,-1
22,M,1,1,2,10,1,8,4,3698,0,1.863056E-07,6.554783,0,-1
22,M,1,1,2,11,3,6,2,3520,1,0.0231953,6.458028,0.1958353,-1
22,M,1,1,2,12,2,8,4,6476,0,0.07647508,10.42383,0.4092611,-1
22,M,1,1,2,13,2,5,1,1820,0,0.2591234,10.07999,1.437222,-1
22,M,1,1,2,14,1,6,2,9231,0,0.1177621,6.493831,0.9905132,-1
22,M,1,1,2,15,4,5,1,1887,0,0.4094938,10.15288,2.281819,-1
22,M,1,1,2,16,4,7,3,5575,0,0.3329174,10.08606,1.857937,-1
22,M,1,1,3,1,4,10,2,4653,0,0.6737894,10.28309,3.65184,-1
22,M,1,1,3,2,4,12,4,9999,1,-1,-1,-1,-1
22,M,1,1,3,3,3,11,3,4864,0,0.08537798,6.198771,0.7483428,-1
22,M,1,1,3,4,2,12,4,8398,1,0.3220958,10.43833,1.740238,-1
22,M,1,1,3,5,1,10,2,9999,0,-1,-1,-1,-1
22,M,1,1,3,6,4,9,1,3576,0,0.5021214,10.08477,2.770363,-1
22,M,1,1,3,7,4,11,3,2153,0,0.8660541,10.12405,4.722109,-1
22,M,1,1,3,8,2,10,2,5731,1,0.09302978,10.25077,0.5078341,-1
22,M,1,1,3,9,2,9,1,1765,0,0.2727363,10.08025,1.520842,-1
22,M,1,1,3,10,3,12,4,4309,1,0.06255955,6.598366,0.5154827,-1
22,M,1,1,3,11,1,11,3,4409,0,0.1517239,6.230544,1.331339,-1
22,M,1,1,3,12,1,9,1,9999,0,-1,-1,-1,-1
22,M,1,1,3,13,3,10,2,2209,1,0.2474191,6.44161,2.137166,-1
22,M,1,1,3,14,1,12,4,1620,1,1.83094E-07,6.575855,0,-1
22,M,1,1,3,15,2,11,3,2131,0,0.3445737,10.12032,1.917242,-1
22,M,1,1,3,16,3,9,1,3387,0,3.89615E-09,6.020873,0,-1
22,M,1,1,4,1,2,16,4,7887,0,1.342941E-07,10.4282,0,-1
22,M,1,1,4,2,2,14,2,1509,0,0.3416316,10.23874,1.850232,-1
22,M,1,1,4,3,3,13,1,1620,0,0.3229174,6.024482,2.922551,-1
22,M,1,1,4,4,4,16,4,1509,1,0.6866708,10.44154,3.741515,-1
22,M,1,1,4,5,2,15,3,3164,0,0.3226729,10.11315,1.796023,-1
22,M,1,1,4,6,2,13,1,3231,2,0.2449866,10.08951,1.354219,-1
22,M,1,1,4,7,4,14,2,5964,1,0.01352514,10.24461,0.07132626,-1
22,M,1,1,4,8,1,15,3,5020,0,1.725978E-07,6.227161,0,-1
22,M,1,1,4,9,4,13,1,6953,1,0.1613594,10.11204,0.8978747,-1
22,M,1,1,4,10,4,15,3,1953,0,0.02516261,10.11351,0.1398823,-1
22,M,1,1,4,11,1,14,2,2387,0,0.1391414,6.45651,1.170861,-1
22,M,1,1,4,12,3,16,4,2109,0,0.2020489,6.577307,1.696391,-1
22,M,1,1,4,13,3,14,2,4498,0,0.1800952,6.455196,1.514653,-1
22,M,1,1,4,14,1,16,4,2120,1,1.938445E-07,6.57219,0,-1
22,M,1,1,4,15,1,13,1,3776,0,0.4872554,6.051558,4.449859,-1
22,M,1,1,4,16,3,15,3,3998,1,0.01489853,6.221617,0.1312212,-1
22,M,1,1,5,1,3,20,4,3465,1,0.22621,6.565092,1.880968,-1
22,M,1,1,5,2,3,17,1,1231,0,4.651294E-08,6.040006,0,-1
22,M,1,1,5,3,1,20,4,1442,1,0.1451716,6.551079,1.21273,-1
22,M,1,1,5,4,4,18,2,5098,2,0.8540871,10.28045,4.670554,-1
22,M,1,1,5,5,2,17,1,3220,2,0.6212713,10.10921,3.487228,-1
22,M,1,1,5,6,4,20,4,2798,0,0.2324058,10.43466,1.249918,-1
22,M,1,1,5,7,3,18,2,1220,0,0.3079772,6.463555,2.592312,-1
22,M,1,1,5,8,3,19,3,3631,0,0.06690321,6.198459,0.590498,-1
22,M,1,1,5,9,2,20,4,7176,2,0.8418275,10.45621,4.532418,-1
22,M,1,1,5,10,4,17,1,2642,0,0.4530306,10.08716,2.496773,-1
22,M,1,1,5,11,2,18,2,4975,0,0.6307583,10.27506,3.395633,-1
22,M,1,1,5,12,2,19,3,4820,1,0.7264745,10.13535,4.049607,-1
22,M,1,1,5,13,1,18,2,7742,2,0.4497843,6.473621,3.725414,-1
22,M,1,1,5,14,1,19,3,3831,2,0.1290458,6.21401,1.135566,-1
22,M,1,1,5,15,1,17,1,1920,0,0.2354737,6.064523,2.127713,-1
22,M,1,1,5,16,4,19,3,7531,4,0.3906142,10.07136,2.194102,-1
22,M,1,1,6,1,3,22,2,2576,2,0.498906,6.485156,4.17978,-1
22,M,1,1,6,2,2,21,1,1598,0,1.496339E-07,10.11417,0,-1
22,M,1,1,6,3,4,23,3,4009,0,0.3050978,10.09323,1.69362,-1
22,M,1,1,6,4,4,21,1,3653,2,0.4681713,10.08829,2.57671,-1
22,M,1,1,6,5,3,24,4,4109,0,0.4710489,6.549704,3.906103,-1
22,M,1,1,6,6,3,23,3,5953,2,0.3200782,6.218711,2.841589,-1
22,M,1,1,6,7,1,21,1,2876,0,0.03321812,6.058125,0.301316,-1
22,M,1,1,6,8,2,22,2,3431,0,0.8748934,10.281,4.709606,-1
22,M,1,1,6,9,1,24,4,4454,0,0.3136762,6.553101,2.588382,-1
22,M,1,1,6,10,1,23,3,4565,0,0.4106209,6.202779,3.622122,-1
22,M,1,1,6,11,4,24,4,4653,1,0.4579435,10.42802,2.470292,-1
22,M,1,1,6,12,4,22,2,4731,0,0.7696142,10.28381,4.140518,-1
22,M,1,1,6,13,3,21,1,3520,0,0.2318835,6.054724,2.090783,-1
22,M,1,1,6,14,2,24,4,8298,0,0.7785009,10.44592,4.146143,-1
22,M,1,1,6,15,2,23,3,9999,2,-1,-1,-1,-1
22,M,1,1,6,16,1,22,2,4209,1,0.02945176,6.474395,0.249446,-1
22,M,1,1,7,1,4,25,1,1942,0,0.404053,10.06334,2.259494,-1
22,M,1,1,7,2,4,28,4,3287,1,0.5628666,10.44933,3.024592,-1
22,M,1,1,7,3,2,25,1,6942,2,0.2565337,10.10386,1.41596,-1
22,M,1,1,7,4,1,28,4,1620,0,0.4559259,6.557517,3.842775,-1
22,M,1,1,7,5,3,26,2,2342,2,0.0002900218,6.465126,0,-1
22,M,1,1,7,6,4,27,3,1676,0,0.3733709,10.10024,2.079896,-1
22,M,1,1,7,7,2,26,2,6587,1,0.6870114,10.26291,3.702797,-1
22,M,1,1,7,8,1,27,3,3442,0,0.3153365,6.241292,2.75797,-1
22,M,1,1,7,9,1,26,2,4820,3,0.1908697,6.476094,1.597039,-1
22,M,1,1,7,10,2,27,3,4087,0,0.05156938,10.13395,0.2846186,-1
22,M,1,1,7,11,2,28,4,3009,0,0.01127337,10.45387,0.05595291,-1
22,M,1,1,7,12,1,25,1,2976,0,0.2133244,6.029076,1.965629,-1
22,M,1,1,7,13,3,27,3,2409,0,0.1572151,6.238513,1.379985,-1
22,M,1,1,7,14,4,26,2,1487,0,0.2026083,10.27245,1.097357,-1
22,M,1,1,7,15,3,25,1,5864,1,0.4265672,6.032302,3.962645,-1
22,M,1,1,7,16,3,28,4,3720,0,0.03202308,6.582129,0.2661444,-1
22,M,1,1,8,1,1,30,2,7153,0,0.374787,6.471529,3.152936,-1
22,M,1,1,8,2,1,31,3,3987,0,0.1477357,6.218269,1.307909,-1
22,M,1,1,8,3,3,30,2,9698,1,0.2012049,6.473451,1.691191,-1
22,M,1,1,8,4,2,31,3,8942,0,0.459876,10.13305,2.555582,-1
22,M,1,1,8,5,2,30,2,9999,1,-1,-1,-1,-1
22,M,1,1,8,6,2,29,1,3487,0,0.4000502,10.12033,2.228619,-1
22,M,1,1,8,7,1,32,4,5987,0,0.168659,6.549454,1.396337,-1
22,M,1,1,8,8,1,29,1,3665,0,0.2303237,6.0698,2.087317,-1
22,M,1,1,8,9,4,31,3,2076,0,0.5763615,10.12047,3.207599,-1
22,M,1,1,8,10,4,32,4,5209,1,0.2709588,10.43628,1.445368,-1
22,M,1,1,8,11,3,31,3,4242,0,0.2087977,6.204155,1.850972,-1
22,M,1,1,8,12,4,30,2,5787,1,0.03178699,10.26717,0.1735894,-1
22,M,1,1,8,13,2,32,4,9999,1,-1,-1,-1,-1
22,M,1,1,8,14,3,29,1,1998,0,0.3408227,6.039884,3.076762,-1
22,M,1,1,8,15,3,32,4,6242,0,2.676943E-07,6.586428,0,-1
22,M,1,1,8,16,4,29,1,5764,0,0.7035117,10.12622,3.90495,-1
22,M,1,1,9,1,3,36,4,3776,0,2.70463E-07,6.584751,0,-1
22,M,1,1,9,2,1,35,3,2887,0,0.2740581,6.22367,2.417028,-1
22,M,1,1,9,3,2,36,4,1176,0,2.534746E-07,10.46112,0.01978234,-1
22,M,1,1,9,4,4,33,1,3476,0,0.4405061,10.10456,2.427855,-1
22,M,1,1,9,5,4,36,4,1853,0,0.1767853,10.42732,0.9479132,-1
22,M,1,1,9,6,1,34,2,9198,1,0.4263044,6.49616,3.573743,-1
22,M,1,1,9,7,3,33,1,2920,0,0.09729917,6.062047,0.8829308,-1
22,M,1,1,9,8,3,34,2,1542,1,0.2904861,6.453916,2.433893,-1
22,M,1,1,9,9,4,35,3,3031,0,0.5548928,10.11062,3.107531,-1
22,M,1,1,9,10,1,33,1,3420,0,0.1594102,6.048661,1.450099,-1
22,M,1,1,9,11,3,35,3,5976,0,0.05036867,6.211799,0.4445539,-1
22,M,1,1,9,12,4,34,2,1509,0,0.7630891,10.25308,4.105559,-1
22,M,1,1,9,13,2,33,1,3009,0,0.4046613,10.09809,2.233269,-1
22,M,1,1,9,14,2,34,2,1509,0,0.5932751,10.25932,3.198064,-1
22,M,1,1,9,15,2,35,3,2287,0,1.822177E-07,10.13711,0,-1
22,M,1,1,9,16,1,36,4,4987,0,0.4744015,6.554296,3.944467,-1
22,M,1,1,10,1,1,38,2,4953,3,0.2469504,6.464588,2.077825,-1
22,M,1,1,10,2,3,37,1,4276,1,0.02541137,6.050404,0.2315465,-1
22,M,1,1,10,3,4,38,2,4431,2,0.5285062,10.25344,2.850187,-1
22,M,1,1,10,4,2,40,4,6598,1,3.984723E-08,10.45444,0,-1
22,M,1,1,10,5,4,39,3,5209,0,0.4902487,10.13526,2.739312,-1
22,M,1,1,10,6,4,37,1,3709,0,0.3714259,10.10169,2.051854,-1
22,M,1,1,10,7,4,40,4,1531,0,0.7364099,10.42087,3.894455,-1
22,M,1,1,10,8,2,39,3,5509,0,0.3776785,10.13553,2.107844,-1
22,M,1,1,10,9,3,40,4,5187,0,0.4273707,6.556616,3.515133,-1
22,M,1,1,10,10,1,39,3,3109,0,0.009306433,6.22283,0.07912937,-1
22,M,1,1,10,11,2,38,2,1342,0,0.5199141,10.25861,2.802467,-1
22,M,1,1,10,12,1,40,4,3575,0,0.2496194,6.557821,2.067816,-1
22,M,1,1,10,13,2,37,1,2909,0,0.2451148,10.0996,1.363292,-1
22,M,1,1,10,14,3,38,2,3031,0,0.5490128,6.455856,4.580907,-1
22,M,1,1,10,15,1,37,1,9999,1,-1,-1,-1,-1
22,M,1,1,10,16,3,39,3,4686,1,0.2189989,6.210464,1.928337,-1
22,M,1,1,11,1,2,42,2,2309,0,0.609674,10.25728,3.287238,-1
22,M,1,1,11,2,4,41,1,2842,1,9.554612E-08,10.11491,0.01978234,-1
22,M,1,1,11,3,4,42,2,1765,0,0.2859738,10.25814,1.542816,-1
22,M,1,1,11,4,3,44,4,2754,0,0.1369486,6.560941,1.132979,-1
22,M,1,1,11,5,1,42,2,8254,1,0.09674611,6.468875,0.8146936,-1
22,M,1,1,11,6,2,44,4,4331,1,0.6874333,10.45228,3.64481,-1
22,M,1,1,11,7,4,43,3,3420,0,0.8007115,10.10283,4.465545,-1
22,M,1,1,11,8,3,41,1,3320,0,0.4999432,6.034385,4.568875,-1
22,M,1,1,11,9,2,43,3,2687,0,0.1558652,10.13362,0.8659236,-1
22,M,1,1,11,10,3,42,2,3131,1,0.215258,6.455607,1.801245,-1
22,M,1,1,11,11,2,41,1,1620,0,0.3394694,10.09005,1.87555,-1
22,M,1,1,11,12,4,44,4,2209,0,0.5172157,10.46085,2.799392,-1
22,M,1,1,11,13,1,43,3,3176,0,1.752291E-07,6.225898,0,-1
22,M,1,1,11,14,1,44,4,4953,0,0.2662851,6.568252,2.198914,-1
22,M,1,1,11,15,1,41,1,5942,0,0.3629417,6.057818,3.321661,-1
22,M,1,1,11,16,3,43,3,2876,0,0.1869104,6.247321,1.63614,-1
22,M,1,1,12,1,2,45,1,4709,0,0.6965656,10.11644,3.832774,-1
22,M,1,1,12,2,4,46,2,1976,0,0.1850315,10.26286,1.00132,-1
22,M,1,1,12,3,1,48,4,3187,0,0.2935448,6.563039,2.451522,-1
22,M,1,1,12,4,4,45,1,1687,0,0.4232897,10.11759,2.366288,-1
22,M,1,1,12,5,2,47,3,4353,0,0.6035666,10.14426,3.319066,-1
22,M,1,1,12,6,3,45,1,3642,0,0.2975331,6.058148,2.710289,-1
22,M,1,1,12,7,3,48,4,3542,0,0.1089278,6.565935,0.901789,-1
22,M,1,1,12,8,2,46,2,1643,0,0.6918789,10.26066,3.728146,-1
22,M,1,1,12,9,2,48,4,6720,3,0.4706143,10.45999,2.497949,-1
22,M,1,1,12,10,1,47,3,3953,0,2.037214E-07,6.234197,0,-1
22,M,1,1,12,11,3,46,2,9999,0,-1,-1,-1,-1
22,M,1,1,12,12,3,47,3,4509,0,0.03192821,6.200929,0.2811602,-1
22,M,1,1,12,13,1,45,1,2842,0,0.1464564,6.036904,1.334569,-1
22,M,1,1,12,14,4,47,3,4131,0,0.734646,10.06934,4.116373,-1
22,M,1,1,12,15,4,48,4,9253,0,0.8607419,10.43118,4.691645,-1
22,M,1,1,12,16,1,46,2,9376,1,0.4369319,6.479596,3.672212,-1
22,M,1,1,13,1,2,51,3,6176,1,0.3370448,10.13622,1.852346,-1
22,M,1,1,13,2,1,49,1,2120,0,0.142145,6.063716,1.28664,-1
22,M,1,1,13,3,1,51,3,3209,0,0.1745694,6.21979,1.548892,-1
22,M,1,1,13,4,3,50,2,1609,1,0.4238191,6.49778,3.576865,-1
22,M,1,1,13,5,3,52,4,1509,0,0.03029001,6.567844,0.2525642,-1
22,M,1,1,13,6,1,50,2,7042,1,0.499693,6.500773,4.18755,-1
22,M,1,1,13,7,3,49,1,1554,0,0.2555428,6.036263,2.347437,-1
22,M,1,1,13,8,4,50,2,5531,0,0.05718222,10.28801,0.309643,-1
22,M,1,1,13,9,4,49,1,1409,0,0.7999989,10.07878,4.468176,-1
22,M,1,1,13,10,2,50,2,1176,0,0.1966825,10.28466,1.072102,-1
22,M,1,1,13,11,1,52,4,3665,1,2.895798E-07,6.564442,0,-1
22,M,1,1,13,12,2,49,1,1520,1,0.1458332,10.11722,0.8079404,-1
22,M,1,1,13,13,2,52,4,6420,1,0.3541595,10.46696,1.910084,-1
22,M,1,1,13,14,3,51,3,4887,0,2.531102E-07,6.198547,0,-1
22,M,1,1,13,15,4,52,4,6765,1,0.6536219,10.43417,3.497544,-1
22,M,1,1,13,16,4,51,3,7886,0,0.4314887,10.08227,2.413705,-1
22,M,1,1,14,1,2,54,2,1465,0,0.7769938,10.28892,4.264618,-1
22,M,1,1,14,2,3,56,4,2809,0,0.2214296,6.577685,1.837069,-1
22,M,1,1,14,3,4,53,1,1309,0,0.6237159,10.14361,3.432621,-1
22,M,1,1,14,4,3,55,3,6020,0,0.3792574,6.243576,3.338358,-1
22,M,1,1,14,5,3,53,1,1354,0,0.4067397,6.06626,3.666555,-1
22,M,1,1,14,6,2,55,3,7975,3,0.6487389,10.13176,3.624878,-1
22,M,1,1,14,7,1,54,2,2776,0,0.08078104,6.497293,0.6778198,-1
22,M,1,1,14,8,4,56,4,7942,0,3.687575E-08,10.45089,0,-1
22,M,1,1,14,9,1,53,1,1598,0,0.4240378,6.042685,3.866397,-1
22,M,1,1,14,10,4,55,3,6753,1,0.3557618,10.1436,1.976947,-1
22,M,1,1,14,11,4,54,2,3942,0,0.7672877,10.28929,4.126019,-1
22,M,1,1,14,12,2,53,1,1642,0,0.3545319,10.11991,1.952743,-1
22,M,1,1,14,13,1,56,4,4776,0,0.05589574,6.556136,0.4635163,-1
22,M,1,1,14,14,1,55,3,3609,0,0.1016739,6.224329,0.8948184,-1
22,M,1,1,14,15,3,54,2,6408,3,0.5118107,6.498924,4.320465,-1
22,M,1,1,14,16,2,56,4,2698,0,0.6882823,10.4629,3.645508,-1
22,M,1,1,15,1,3,57,1,1776,0,0.2493607,6.087614,2.253249,-1
22,M,1,1,15,2,4,60,4,3931,0,0.2075665,10.43843,1.104644,-1
22,M,1,1,15,3,1,58,2,3365,0,0.5149156,6.497668,4.317336,-1
22,M,1,1,15,4,4,59,3,3120,1,0.03621696,10.13425,0.2007689,-1
22,M,1,1,15,5,3,58,2,4442,1,0.09241639,6.508137,0.7753122,-1
22,M,1,1,15,6,4,57,1,2775,1,0.4639329,10.09444,2.559026,-1
22,M,1,1,15,7,2,58,2,1776,0,0.1794117,10.29394,0.9681343,-1
22,M,1,1,15,8,2,57,1,1597,0,4.53598E-08,10.11676,0,-1
22,M,1,1,15,9,3,59,3,2620,0,0.1046407,6.212329,0.9253501,-1
22,M,1,1,15,10,1,60,4,3575,0,0.1038745,6.560475,0.8704314,-1
22,M,1,1,15,11,1,57,1,3464,0,0.240512,6.059543,2.183102,-1
22,M,1,1,15,12,1,59,3,4142,0,1.751602E-07,6.214922,0,-1
22,M,1,1,15,13,3,60,4,3153,0,4.202364E-07,6.580754,0,-1
22,M,1,1,15,14,4,58,2,1708,0,0.5601245,10.31954,3.017788,-1
22,M,1,1,15,15,2,59,3,7098,1,0.02038652,10.13274,0.1101434,-1
22,M,1,1,15,16,2,60,4,1898,0,0.1002434,10.46937,0.5344914,-1
22,M,1,1,16,1,2,61,1,1965,1,0.4058305,10.1172,2.255419,-1
22,M,1,1,16,2,1,63,3,3209,0,2.24912E-07,6.220677,0,-1
22,M,1,1,16,3,2,62,2,7098,0,0.3765864,10.2946,2.027579,-1
22,M,1,1,16,4,2,63,3,2620,0,0.3857884,10.12261,2.146031,-1
22,M,1,1,16,5,3,64,4,2931,0,0.4462246,6.555724,3.670345,-1
22,M,1,1,16,6,3,61,1,4065,0,0.1130875,6.046566,1.034954,-1
22,M,1,1,16,7,1,62,2,1920,0,0.4211409,6.510239,3.486779,-1
22,M,1,1,16,8,2,64,4,7209,1,1.125174E-07,10.47302,0,-1
22,M,1,1,16,9,4,61,1,1531,0,0.8095152,10.13108,4.532504,-1
22,M,1,1,16,10,4,62,2,1320,0,0.1031211,10.29251,0.5595313,-1
22,M,1,1,16,11,1,61,1,1954,0,0.06931488,6.057269,0.6318005,-1
22,M,1,1,16,12,3,62,2,9198,2,0.1632635,6.5093,1.365157,-1
22,M,1,1,16,13,1,64,4,4387,0,0.2304481,6.552334,1.941586,-1
22,M,1,1,16,14,4,63,3,4076,2,0.6624603,10.09012,3.71847,-1
22,M,1,1,16,15,4,64,4,6120,0,0.3518552,10.43861,1.865296,-1
22,M,1,1,16,16,3,63,3,3209,0,0.1017244,6.204227,0.8939433,-1
22,M,1,1,17,1,1,65,1,6598,0,0.19001,6.086526,1.712579,-1
22,M,1,1,17,2,4,66,2,954,0,0.8210141,10.32151,4.403265,-1
22,M,1,1,17,3,2,67,3,2987,0,0.5105188,10.13748,2.836694,-1
22,M,1,1,17,4,3,66,2,2842,0,0.04883207,6.522576,0.4087828,-1
22,M,1,1,17,5,2,65,1,1465,0,0.2259631,10.14593,1.247724,-1
22,M,1,1,17,6,1,66,2,7020,4,0.4335835,6.538387,3.612921,-1
22,M,1,1,17,7,3,67,3,3598,0,0.2694762,6.239587,2.367942,-1
22,M,1,1,17,8,2,66,2,1776,0,0.5787957,10.32811,3.107153,-1
22,M,1,1,17,9,4,67,3,3320,0,0.6816428,10.11015,3.771488,-1
22,M,1,1,17,10,4,68,4,9420,0,0.5698537,10.49839,3.018891,-1
22,M,1,1,17,11,3,65,1,2942,0,0.04430835,6.099435,0.4015385,-1
22,M,1,1,17,12,1,68,4,4598,0,0.3773294,6.556545,3.178476,-1
22,M,1,1,17,13,1,67,3,3920,0,0.002880458,6.230639,0.01978234,-1
22,M,1,1,17,14,3,68,4,3898,1,0.002748604,6.567471,0.01978234,-1
22,M,1,1,17,15,4,65,1,1654,0,0.3814936,10.14297,2.11951,-1
22,M,1,1,17,16,2,68,4,1365,0,0.5739726,10.50651,3.070457,-1
22,M,1,1,18,1,1,71,3,4465,0,0.2593216,6.228126,2.277097,-1
22,M,1,1,18,2,4,72,4,6109,0,0.4799482,10.47955,2.533119,-1
22,M,1,1,18,3,2,70,2,1331,0,0.2099721,10.33473,1.128479,-1
22,M,1,1,18,4,1,72,4,5029,1,0.1626762,6.56042,1.349442,-1
22,M,1,1,18,5,3,70,2,3287,1,0.1137325,6.544454,0.9526493,-1
22,M,1,1,18,6,3,71,3,5787,0,0.1202902,6.19294,1.062568,-1
22,M,1,1,18,7,1,69,1,1587,0,0.1264931,6.089688,1.148759,-1
22,M,1,1,18,8,2,71,3,3165,0,0.276539,10.14532,1.54142,-1
22,M,1,1,18,9,2,72,4,7476,2,0.1481114,10.49739,0.7925354,-1
22,M,1,1,18,10,3,69,1,4331,0,0.1229397,6.085596,1.117676,-1
22,M,1,1,18,11,4,71,3,4398,1,7.044133E-08,10.12517,0,-1
22,M,1,1,18,12,2,69,1,1687,0,0.2198027,10.15988,1.214504,-1
22,M,1,1,18,13,4,70,2,8275,0,0.8664351,10.33153,4.624571,-1
22,M,1,1,18,14,4,69,1,1576,0,0.4714248,10.20054,2.578609,-1
22,M,1,1,18,15,3,72,4,4876,0,0.4382975,6.576236,3.689501,-1
22,M,1,1,18,16,1,70,2,5976,0,0.3443694,6.557084,2.827986,-1
22,M,1,1,19,1,3,75,3,3298,0,1.225698E-07,6.203299,0,-1
22,M,1,1,19,2,1,76,4,4276,0,0.5486726,6.546439,4.600194,-1
22,M,1,1,19,3,1,74,2,3853,1,0.1499732,6.558139,1.24537,-1
22,M,1,1,19,4,4,73,1,1498,0,0.6171487,10.15879,3.383619,-1
22,M,1,1,19,5,2,75,3,3609,0,0.6932886,10.15111,3.848987,-1
22,M,1,1,19,6,1,73,1,2731,0,0.4576977,6.111532,4.128155,-1
22,M,1,1,19,7,2,76,4,7553,1,0.3239453,10.51069,1.727031,-1
22,M,1,1,19,8,3,74,2,9999,2,-1,-1,-1,-1
22,M,1,1,19,9,4,76,4,1198,0,0.8774358,10.47663,4.617704,-1
22,M,1,1,19,10,1,75,3,5365,2,0.07720581,6.210312,0.6824232,-1
22,M,1,1,19,11,3,73,1,1454,0,0.06079004,6.11695,0.5460806,-1
22,M,1,1,19,12,3,76,4,4153,0,0.0171179,6.560908,0.1398823,-1
22,M,1,1,19,13,2,73,1,1665,0,0.7254322,10.16666,4.032403,-1
22,M,1,1,19,14,2,74,2,3898,1,1.624614E-07,10.37445,0.01978234,-1
22,M,1,1,19,15,4,75,3,3564,0,0.3756538,10.1277,2.089285,-1
22,M,1,1,19,16,4,74,2,1498,0,0.7676745,10.37822,4.115088,-1
22,M,1,1,20,1,1,80,4,4809,1,0.2194656,6.545597,1.827777,-1
22,M,1,1,20,2,1,78,2,2209,0,1.575554E-07,6.556008,0,-1
22,M,1,1,20,3,1,79,3,4431,1,0.33307,6.214351,2.955653,-1
22,M,1,1,20,4,2,78,2,2453,0,0.8068405,10.35171,4.314023,-1
22,M,1,1,20,5,3,79,3,3820,0,2.632999E-07,6.219996,0,-1
22,M,1,1,20,6,3,77,1,1609,0,1.32431E-07,6.112915,0,-1
22,M,1,1,20,7,3,78,2,4076,2,0.03509598,6.574737,0.2920831,-1
22,M,1,1,20,8,4,79,3,1442,0,0.8168166,10.11491,4.552684,-1
22,M,1,1,20,9,2,77,1,1498,0,0.4885595,10.16907,2.715051,-1
22,M,1,1,20,10,4,78,2,1276,0,0.5630819,10.3436,2.998982,-1
22,M,1,1,20,11,4,77,1,1376,0,0.6512387,10.15053,3.564582,-1
22,M,1,1,20,12,2,80,4,2098,0,0.1895668,10.51408,1.006194,-1
22,M,1,1,20,13,2,79,3,4398,0,0.1745519,10.15861,0.960423,-1
22,M,1,1,20,14,3,80,4,2320,1,0.2241346,6.540856,1.874506,-1
22,M,1,1,20,15,1,77,1,2942,1,0.1135753,6.11467,1.027934,-1
22,M,1,1,20,16,4,80,4,2453,0,0.88658,10.47615,4.772452,-1
22,M,1,1,21,1,4,83,3,4531,0,0.8445423,10.15045,4.691478,-1
22,M,1,1,21,2,3,82,2,5753,1,0.1115253,6.57453,0.9272513,-1
22,M,1,1,21,3,2,84,4,1942,1,0.04400906,10.50469,0.2332305,-1
22,M,1,1,21,4,3,83,3,5098,0,0.1317661,6.230827,1.159103,-1
22,M,1,1,21,5,1,82,2,1953,0,0.5117159,6.568633,4.193813,-1
22,M,1,1,21,6,4,84,4,7653,0,0.3805047,10.48798,2.036343,-1
22,M,1,1,21,7,1,81,1,2520,0,2.556017E-08,6.110234,0,-1
22,M,1,1,21,8,4,82,2,1387,0,0.4306582,10.34987,2.294308,-1
22,M,1,1,21,9,2,81,1,2565,1,0.04871715,10.18108,0.268341,-1
22,M,1,1,21,10,2,83,3,2364,0,0.082114,10.14677,0.453703,-1
22,M,1,1,21,11,2,82,2,1709,0,1.467832E-07,10.36343,0,-1
22,M,1,1,21,12,3,84,4,1998,0,0.0741751,6.537914,0.6236961,-1
22,M,1,1,21,13,3,81,1,1665,0,0.1064249,6.122302,0.9542912,-1
22,M,1,1,21,14,1,83,3,3852,0,3.643685E-07,6.206991,0,-1
22,M,1,1,21,15,1,84,4,3031,0,0.2453177,6.540448,2.070087,-1
22,M,1,1,21,16,4,81,1,1376,0,0.3124011,10.18026,1.72533,-1
22,M,1,1,22,1,3,88,4,2909,0,0.2877233,6.542144,2.394737,-1
22,M,1,1,22,2,1,86,2,9999,1,-1,-1,-1,-1
22,M,1,1,22,3,3,85,1,1143,1,1.321009E-07,6.087078,0,-1
22,M,1,1,22,4,1,88,4,2054,0,0.4015332,6.534924,3.392114,-1
22,M,1,1,22,5,2,86,2,1298,0,0.7820932,10.3628,4.172369,-1
22,M,1,1,22,6,1,85,1,3642,0,0.2039134,6.127512,1.825099,-1
22,M,1,1,22,7,3,87,3,4575,0,0.1577659,6.188313,1.387903,-1
22,M,1,1,22,8,2,85,1,1442,0,0.800454,10.16587,4.49366,-1
22,M,1,1,22,9,2,87,3,2631,0,0.3604861,10.14989,2.008863,-1
22,M,1,1,22,10,4,88,4,3409,0,0.4762365,10.46194,2.571844,-1
22,M,1,1,22,11,4,85,1,1387,0,1.126045E-07,10.1752,0,-1
22,M,1,1,22,12,4,87,3,6898,2,0.6756771,10.1201,3.767176,-1
22,M,1,1,22,13,2,88,4,2942,0,0.4255461,10.50226,2.292259,-1
22,M,1,1,22,14,3,86,2,2165,0,0.5060945,6.567439,4.229618,-1
22,M,1,1,22,15,1,87,3,3698,0,1.713041E-07,6.203085,0,-1
22,M,1,1,22,16,4,86,2,1376,0,0.3229015,10.3641,1.723742,-1
22,M,1,1,23,1,3,91,3,4131,0,0.1268816,6.191068,1.116275,-1
22,M,1,1,23,2,3,89,1,1354,0,0.1343875,6.0976,1.207556,-1
22,M,1,1,23,3,1,92,4,4331,0,0.4795758,6.537005,4.051638,-1
22,M,1,1,23,4,2,91,3,3253,0,0.4959418,10.15415,2.764846,-1
22,M,1,1,23,5,4,89,1,8153,0,0.4666112,10.20018,2.567731,-1
22,M,1,1,23,6,4,90,2,1898,0,0.2953028,10.37841,1.581772,-1
22,M,1,1,23,7,1,91,3,3942,0,0.05221115,6.210852,0.4575681,-1
22,M,1,1,23,8,3,92,4,4209,2,0.2378841,6.562179,1.972586,-1
22,M,1,1,23,9,1,89,1,1842,0,0.4578923,6.124118,4.089835,-1
22,M,1,1,23,10,2,90,2,1642,0,0.7473431,10.35778,3.993118,-1
22,M,1,1,23,11,4,92,4,1342,0,0.4159195,10.47478,2.208594,-1
22,M,1,1,23,12,2,89,1,1309,0,0.4965377,10.18952,2.711589,-1
22,M,1,1,23,13,1,90,2,1787,1,0.5027195,6.561356,4.176123,-1
22,M,1,1,23,14,2,92,4,2054,0,0.4758257,10.50132,2.546989,-1
22,M,1,1,23,15,4,91,3,1898,0,0.3918097,10.1366,2.140918,-1
22,M,1,1,23,16,3,90,2,2876,0,0.3560737,6.564289,2.945635,-1
22,M,1,1,24,1,2,96,4,2709,1,0.5899193,10.49366,3.142861,-1
22,M,1,1,24,2,4,95,3,3387,0,0.1766638,10.1505,0.9773876,-1
22,M,1,1,24,3,2,94,2,1387,0,0.4245303,10.35547,2.267622,-1
22,M,1,1,24,4,1,93,1,1365,0,0.4561287,6.12005,4.076646,-1
22,M,1,1,24,5,1,94,2,5798,0,0.4186364,6.557134,3.478909,-1
22,M,1,1,24,6,2,93,1,1542,0,0.585883,10.18153,3.20418,-1
22,M,1,1,24,7,3,94,2,3020,0,0.4673205,6.564673,3.879745,-1
22,M,1,1,24,8,4,93,1,4165,0,0.8282975,10.16865,4.598916,-1
22,M,1,1,24,9,4,96,4,1987,0,0.6059237,10.46943,3.269621,-1
22,M,1,1,24,10,1,95,3,3276,0,6.957711E-08,6.205214,0,-1
22,M,1,1,24,11,1,96,4,3509,0,0.4669979,6.536132,3.945758,-1
22,M,1,1,24,12,2,95,3,5342,0,1.599878E-07,10.16057,0.01978234,-1
22,M,1,1,24,13,4,94,2,1287,0,0.5406816,10.34848,2.878208,-1
22,M,1,1,24,14,3,93,1,1856,0,0.4846974,6.101388,4.381639,-1
22,M,1,1,24,15,3,96,4,3831,0,0.003041979,6.555764,0.01978234,-1
22,M,1,1,24,16,3,95,3,2164,0,0.2846109,6.235274,2.502958,-1
22,M,1,1,25,1,2,97,1,1165,0,0.5112416,10.16663,2.823622,-1
22,M,1,1,25,2,3,100,4,2953,0,0.2416964,6.554885,2.035863,-1
22,M,1,1,25,3,4,98,2,1720,0,0.6224831,10.38256,3.334485,-1
22,M,1,1,25,4,4,100,4,1498,0,0.6002371,10.50829,3.23289,-1
22,M,1,1,25,5,4,97,1,2220,0,0.5227715,10.17166,2.87916,-1
22,M,1,1,25,6,3,98,2,2420,2,0.3000234,6.568368,2.499045,-1
22,M,1,1,25,7,1,100,4,3653,0,0.05572032,6.545253,0.4626713,-1
22,M,1,1,25,8,2,99,3,3053,0,0.5330494,10.14943,2.959095,-1
22,M,1,1,25,9,3,97,1,1098,0,0.2204213,6.084569,2.006036,-1
22,M,1,1,25,10,2,98,2,2020,1,0.5786175,10.35734,3.090729,-1
22,M,1,1,25,11,4,99,3,1354,0,0.3757038,10.1262,2.091625,-1
22,M,1,1,25,12,1,97,1,1298,0,0.3109908,6.114075,2.797854,-1
22,M,1,1,25,13,2,100,4,1276,0,0.6349,10.50763,3.434902,-1
22,M,1,1,25,14,1,99,3,3287,0,3.749452E-08,6.214392,0,-1
22,M,1,1,25,15,1,98,2,4309,1,0.2705054,6.563573,2.244982,-1
22,M,1,1,25,16,3,99,3,3831,0,0.3171678,6.195619,2.78755,-1
22,M,1,1,26,1,2,101,1,976,0,0.1512046,10.1733,0.8308656,-1
22,M,1,1,26,2,4,102,2,1398,0,0.7773722,10.35771,4.154778,-1
22,M,1,1,26,3,3,104,4,3309,1,0.4620933,6.542665,3.831395,-1
22,M,1,1,26,4,1,101,1,1198,0,0.4142851,6.123526,3.702269,-1
22,M,1,1,26,5,4,104,4,3498,1,0.4688667,10.48665,2.526929,-1
22,M,1,1,26,6,1,103,3,3554,0,0.2223622,6.213933,1.957048,-1
22,M,1,1,26,7,1,102,2,2297,1,0.1795298,6.566404,1.489115,-1
22,M,1,1,26,8,1,104,4,3642,0,0.3350661,6.541189,2.765837,-1
22,M,1,1,26,9,3,102,2,4520,0,0.4720021,6.575066,3.920565,-1
22,M,1,1,26,10,2,104,4,1454,0,0.7191834,10.50759,3.887057,-1
22,M,1,1,26,11,2,103,3,9999,4,-1,-1,-1,-1
22,M,1,1,26,12,3,101,1,1542,0,0.3569315,6.122331,3.195124,-1
22,M,1,1,26,13,3,103,3,2865,0,7.946451E-08,6.234066,0,-1
22,M,1,1,26,14,4,101,1,1331,1,0.7247307,10.1752,4.001642,-1
22,M,1,1,26,15,2,102,2,2576,1,0.6515988,10.35538,3.481553,-1
22,M,1,1,26,16,4,103,3,3431,1,0.6036851,10.10629,3.371156,-1
22,M,1,1,27,1,3,106,2,2576,0,0.3070248,6.564143,2.560785,-1
22,M,1,1,27,2,2,108,4,1643,0,0.4963377,10.51239,2.677299,-1
22,M,1,1,27,3,4,107,3,1742,0,0.006365408,10.13673,0.03956468,-1
22,M,1,1,27,4,4,108,4,1687,0,0.6670495,10.48363,3.521199,-1
22,M,1,1,27,5,1,105,1,2776,0,0.3441594,6.124495,3.07638,-1
22,M,1,1,27,6,2,106,2,1509,0,0.4193005,10.37022,2.237734,-1
22,M,1,1,27,7,1,108,4,4542,0,0.2831802,6.541437,2.339754,-1
22,M,1,1,27,8,4,105,1,1565,0,0.3789384,10.18156,2.073016,-1
22,M,1,1,27,9,3,108,4,2720,0,1.849702E-07,6.548624,0,-1
22,M,1,1,27,10,3,107,3,2587,0,0.0122945,6.203053,0.1065312,-1
22,M,1,1,27,11,2,105,1,1176,0,0.3639157,10.19043,1.988594,-1
22,M,1,1,27,12,1,106,2,3109,1,0.3367311,6.580862,2.784529,-1
22,M,1,1,27,13,1,107,3,3498,0,0.09590057,6.203923,0.8411642,-1
22,M,1,1,27,14,4,106,2,1542,0,0.4411883,10.36303,2.352018,-1
22,M,1,1,27,15,2,107,3,2565,0,0.3168197,10.15615,1.7668,-1
22,M,1,1,27,16,3,105,1,1220,0,6.055882E-08,6.118649,0,-1
22,M,1,1,28,1,2,112,4,3376,1,0.7073721,10.49958,3.815108,-1
22,M,1,1,28,2,3,110,2,9999,1,-1,-1,-1,-1
22,M,1,1,28,3,3,112,4,2087,1,0.4258612,6.549195,3.608908,-1
22,M,1,1,28,4,2,110,2,1720,0,0.7957479,10.36895,4.247823,-1
22,M,1,1,28,5,4,112,4,2431,0,0.1861218,10.49836,0.9875455,-1
22,M,1,1,28,6,3,111,3,3809,1,0.1727974,6.192041,1.537097,-1
22,M,1,1,28,7,3,109,1,1176,0,0.339306,6.099157,3.048124,-1
22,M,1,1,28,8,1,111,3,4587,3,2.264584E-07,6.221617,0,-1
22,M,1,1,28,9,1,109,1,2009,0,0.3566877,6.120943,3.199778,-1
22,M,1,1,28,10,2,111,3,4732,0,0.5995005,10.16259,3.343339,-1
22,M,1,1,28,11,2,109,1,4087,2,0.6392203,10.16852,3.518363,-1
22,M,1,1,28,12,1,112,4,2631,0,0.09308445,6.536865,0.7740492,-1
22,M,1,1,28,13,1,110,2,1665,0,0.2723525,6.558664,2.261745,-1
22,M,1,1,28,14,4,111,3,4565,0,0.5299835,10.17582,2.939914,-1
22,M,1,1,28,15,4,110,2,2420,0,0.1540047,10.36461,0.826142,-1
22,M,1,1,28,16,4,109,1,4709,2,0.6730125,10.16816,3.748574,-1
22,M,1,1,29,1,3,115,3,1654,0,0.2530808,6.240622,2.21576,-1
22,M,1,1,29,2,2,116,4,5198,1,0.4439564,10.5332,2.368851,-1
22,M,1,1,29,3,2,115,3,2842,0,0.301487,10.16287,1.67958,-1
22,M,1,1,29,4,3,116,4,2876,0,0.2804713,6.581154,2.365296,-1
22,M,1,1,29,5,3,114,2,5309,1,0.06816038,6.559964,0.5702693,-1
22,M,1,1,29,6,3,113,1,1587,0,0.3468202,6.088351,3.127688,-1
22,M,1,1,29,7,1,114,2,3287,0,0.431882,6.562867,3.531638,-1
22,M,1,1,29,8,1,113,1,2209,0,0.2627898,6.100758,2.387287,-1
22,M,1,1,29,9,1,116,4,1841,0,0.3375213,6.567281,2.82279,-1
22,M,1,1,29,10,4,113,1,1598,0,0.3033668,10.18551,1.660597,-1
22,M,1,1,29,11,1,115,3,3842,1,0.2821316,6.247013,2.470609,-1
22,M,1,1,29,12,2,114,2,2098,0,0.1557507,10.35969,0.8439512,-1
22,M,1,1,29,13,4,115,3,1265,0,0.6168729,10.12026,3.453094,-1
22,M,1,1,29,14,2,113,1,1187,0,0.6313034,10.18743,3.459212,-1
22,M,1,1,29,15,4,116,4,3364,1,6.488889E-08,10.51703,0,-1
22,M,1,1,29,16,4,114,2,1376,0,0.08289643,10.36482,0.4449939,-1
22,M,1,1,30,1,1,120,4,2998,0,0.08661347,6.567956,0.7168246,-1
22,M,1,1,30,2,1,119,3,2976,0,0.1467596,6.237835,1.282984,-1
22,M,1,1,30,3,4,117,1,1620,0,0.4481579,10.1995,2.46466,-1
22,M,1,1,30,4,2,119,3,7585,4,0.6186466,10.15196,3.433534,-1
22,M,1,1,30,5,2,120,4,1554,0,0.6383125,10.51145,3.413632,-1
22,M,1,1,30,6,3,117,1,2642,3,0.168999,6.066521,1.535951,-1
22,M,1,1,30,7,2,118,2,2042,0,0.3025031,10.34918,1.621965,-1
22,M,1,1,30,8,4,119,3,1276,0,0.1042196,10.13611,0.5760729,-1
22,M,1,1,30,9,3,118,2,1541,0,0.2543044,6.540603,2.111091,-1
22,M,1,1,30,10,3,119,3,4331,0,0.01683009,6.213747,0.1493534,-1
22,M,1,1,30,11,4,118,2,1809,0,0.1439186,10.37697,0.772531,-1
22,M,1,1,30,12,1,117,1,5476,0,0.09340339,6.112493,0.8406988,-1
22,M,1,1,30,13,4,120,4,4086,1,0.289002,10.51049,1.551291,-1
22,M,1,1,30,14,1,118,2,5053,3,0.4888558,6.553951,4.036674,-1
22,M,1,1,30,15,3,120,4,2887,0,2.521868E-07,6.577102,0,-1
22,M,1,1,30,16,2,117,1,1575,0,0.3399411,10.16056,1.865086,-1
22,M,1,1,1,1,6,4,4,5087,0,-1,-1,-1,0
22,M,1,1,1,2,5,1,1,3464,0,-1,-1,-1,0
22,M,1,1,1,3,5,3,3,2509,0,-1,-1,-1,1
22,M,1,1,1,4,6,1,1,4897,0,-1,-1,-1,0
22,M,1,1,1,5,7,4,4,4031,0,-1,-1,-1,1
22,M,1,1,1,6,7,1,1,3041,0,-1,-1,-1,0
22,M,1,1,1,7,8,3,3,5419,0,-1,-1,-1,1
22,M,1,1,1,8,8,2,2,1219,0,-1,-1,-1,0
22,M,1,1,1,9,8,1,1,3952,0,-1,-1,-1,0
22,M,1,1,1,10,8,4,4,1241,0,-1,-1,-1,0
22,M,1,1,1,11,5,2,2,1508,0,-1,-1,-1,1
22,M,1,1,1,12,7,3,3,3529,0,-1,-1,-1,0
22,M,1,1,1,13,7,2,2,3187,0,-1,-1,-1,1
22,M,1,1,1,14,5,4,4,1320,0,-1,-1,-1,0
22,M,1,1,1,15,6,3,3,1320,0,-1,-1,-1,1
22,M,1,1,1,16,6,2,2,2298,0,-1,-1,-1,0
22,M,1,1,2,1,8,2,2,1409,0,-1,-1,-1,1
22,M,1,1,2,2,5,3,3,1187,0,-1,-1,-1,1
22,M,1,1,2,3,7,4,4,1420,0,-1,-1,-1,0
22,M,1,1,2,4,7,2,2,1154,0,-1,-1,-1,0
22,M,1,1,2,5,6,1,1,3664,0,-1,-1,-1,0
22,M,1,1,2,6,5,4,4,4020,0,-1,-1,-1,1
22,M,1,1,2,7,5,1,1,4253,0,-1,-1,-1,0
22,M,1,1,2,8,7,3,3,3876,0,-1,-1,-1,1
22,M,1,1,2,9,7,1,1,1120,0,-1,-1,-1,1
22,M,1,1,2,10,5,2,2,3731,0,-1,-1,-1,1
22,M,1,1,2,11,8,4,4,1520,0,-1,-1,-1,1
22,M,1,1,2,12,8,3,3,3665,0,-1,-1,-1,1
22,M,1,1,2,13,6,2,2,831,0,-1,-1,-1,1
22,M,1,1,2,14,8,1,1,2687,0,-1,-1,-1,0
22,M,1,1,2,15,6,3,3,2453,0,-1,-1,-1,1
22,M,1,1,2,16,6,4,4,2465,0,-1,-1,-1,1
