Age, Gender, Awareness Type, Session, Block, Trial, Set, Pattern, Quadrant, Response Time, Num Mistakes, Distance From Target, Camera Distance From Target, Angle Error (Degrees), FC Response
23,F,1,1,1,1,2,3,3,3898,0,0.1203289,10.3127,0.65342,-1
23,F,1,1,1,2,4,1,1,1053,0,0.5003279,10.29314,2.748657,-1
23,F,1,1,1,3,1,2,2,1820,0,6.722454E-08,6.647794,0,-1
23,F,1,1,1,4,3,1,1,2098,0,0.3062374,6.247809,2.696314,-1
23,F,1,1,1,5,1,3,3,1987,1,0.4632583,6.220462,4.092899,-1
23,F,1,1,1,6,2,4,4,6831,3,0.2824516,10.48837,1.493969,-1
23,F,1,1,1,7,4,3,3,2598,1,0.6367472,10.32273,3.419363,-1
23,F,1,1,1,8,1,4,4,3664,0,0.4419009,6.508284,3.753533,-1
23,F,1,1,1,9,3,2,2,942,0,0.2114813,6.642976,1.759919,-1
23,F,1,1,1,10,3,4,4,2542,1,0.2119842,6.523444,1.765027,-1
23,F,1,1,1,11,4,2,2,1720,1,0.08240093,10.40364,0.4414621,-1
23,F,1,1,1,12,2,1,1,4309,2,0.2687588,10.27463,1.454277,-1
23,F,1,1,1,13,3,3,3,3153,0,0.1355589,6.234875,1.205122,-1
23,F,1,1,1,14,2,2,2,1231,0,0.003338739,10.40303,0.01978234,-1
23,F,1,1,1,15,4,4,4,6164,2,0.1503577,10.47975,0.8013745,-1
23,F,1,1,1,16,1,1,1,2420,0,5.860976E-08,6.237751,0,-1
23,F,1,1,2,1,4,7,3,6398,5,0.731958,10.30314,3.943076,-1
23,F,1,1,2,2,1,8,4,3686,0,0.1658412,6.514189,1.378424,-1
23,F,1,1,2,3,1,5,1,5653,5,0.2649013,6.194791,2.381541,-1
23,F,1,1,2,4,2,8,4,3698,1,0.7945825,10.48922,4.297056,-1
23,F,1,1,2,5,3,5,1,2753,0,0.2940148,6.239535,2.592614,-1
23,F,1,1,2,6,2,6,2,1353,0,0.282981,10.39264,1.526494,-1
23,F,1,1,2,7,3,7,3,2086,0,0.1975011,6.227749,1.738663,-1
23,F,1,1,2,8,2,5,1,3253,0,0.7078947,10.27896,3.882419,-1
23,F,1,1,2,9,3,8,4,3031,0,0.4206558,6.52383,3.523812,-1
23,F,1,1,2,10,1,6,2,3364,2,0.3003479,6.650324,2.501394,-1
23,F,1,1,2,11,2,7,3,2387,0,0.7669243,10.31298,4.184182,-1
23,F,1,1,2,12,4,6,2,1520,0,2.134045E-07,10.41101,0.01978234,-1
23,F,1,1,2,13,4,8,4,6764,0,0.178813,10.47603,0.9571576,-1
23,F,1,1,2,14,3,6,2,1753,1,0.4152745,6.643395,3.497096,-1
23,F,1,1,2,15,1,7,3,2287,0,0.4858771,6.239604,4.340365,-1
23,F,1,1,2,16,4,5,1,9999,1,-1,-1,-1,-1
23,F,1,1,3,1,1,11,3,3342,2,0.4488124,6.245382,3.956512,-1
23,F,1,1,3,2,4,9,1,1587,0,0.5581372,10.30944,3.014543,-1
23,F,1,1,3,3,1,10,2,2676,1,0.05812453,6.651034,0.4780633,-1
23,F,1,1,3,4,1,9,1,2631,0,0.4876617,6.246592,4.293088,-1
23,F,1,1,3,5,3,10,2,3620,0,0.5581104,6.661243,4.67047,-1
23,F,1,1,3,6,3,12,4,2620,0,0.5554103,6.54872,4.633415,-1
23,F,1,1,3,7,2,9,1,4498,3,0.7291225,10.25631,4.028905,-1
23,F,1,1,3,8,2,12,4,2720,1,0.5001787,10.49603,2.699942,-1
23,F,1,1,3,9,4,11,3,2453,0,0.7474234,10.35206,4.065775,-1
23,F,1,1,3,10,2,10,2,7475,0,0.3058436,10.41387,1.621965,-1
23,F,1,1,3,11,1,12,4,4653,1,0.3345785,6.536819,2.828816,-1
23,F,1,1,3,12,3,9,1,1953,0,0.275944,6.225158,2.466645,-1
23,F,1,1,3,13,3,11,3,1676,1,0.3715416,6.254118,3.278053,-1
23,F,1,1,3,14,4,12,4,4787,3,0.7804137,10.48831,4.094525,-1
23,F,1,1,3,15,4,10,2,1242,0,0.06948737,10.43082,0.3716771,-1
23,F,1,1,3,16,2,11,3,5075,0,0.6360868,10.34479,3.410993,-1
23,F,1,1,4,1,1,13,1,3398,1,0.3226382,6.240567,2.883712,-1
23,F,1,1,4,2,4,16,4,5420,0,0.3951482,10.4863,2.124214,-1
23,F,1,1,4,3,3,14,2,2265,1,0.07530708,6.658382,0.6208661,-1
23,F,1,1,4,4,2,13,1,1476,0,0.8561223,10.29425,4.61588,-1
23,F,1,1,4,5,2,14,2,5709,6,0.5384372,10.37582,2.878004,-1
23,F,1,1,4,6,4,15,3,3565,1,0.8497109,10.31229,4.618552,-1
23,F,1,1,4,7,4,13,1,1498,0,0.1598802,10.30918,0.8659236,-1
23,F,1,1,4,8,4,14,2,4742,5,0.8043586,10.40334,4.284732,-1
23,F,1,1,4,9,3,16,4,2376,0,0.2606736,6.536241,2.179873,-1
23,F,1,1,4,10,1,15,3,1876,0,2.868735E-08,6.245664,0,-1
23,F,1,1,4,11,3,13,1,1676,0,0.02931627,6.22503,0.2571706,-1
23,F,1,1,4,12,2,15,3,5465,0,0.6060333,10.33705,3.297703,-1
23,F,1,1,4,13,2,16,4,2687,0,0.8829958,10.50017,4.771056,-1
23,F,1,1,4,14,1,14,2,2809,1,0.527927,6.663976,4.4169,-1
23,F,1,1,4,15,3,15,3,1498,0,1.10821E-07,6.245133,0.01978234,-1
23,F,1,1,4,16,1,16,4,3587,0,0.06395939,6.541193,0.5311863,-1
23,F,1,1,5,1,1,19,3,1587,0,0.16664,6.243921,1.44618,-1
23,F,1,1,5,2,3,20,4,1731,0,0.1234163,6.547737,1.03967,-1
23,F,1,1,5,3,3,17,1,1498,0,2.845209E-08,6.25397,0,-1
23,F,1,1,5,4,2,20,4,7853,5,0.7452616,10.48482,3.985755,-1
23,F,1,1,5,5,1,18,2,2331,0,0.237422,6.662339,1.970005,-1
23,F,1,1,5,6,4,19,3,6465,5,0.4934197,10.35518,2.646858,-1
23,F,1,1,5,7,4,20,4,1576,0,0.7092061,10.48877,3.819109,-1
23,F,1,1,5,8,2,19,3,8942,12,0.4967331,10.3404,2.681245,-1
23,F,1,1,5,9,3,18,2,4020,0,1.255935E-07,6.678344,0,-1
23,F,1,1,5,10,1,17,1,2154,0,1.180892E-07,6.271237,0,-1
23,F,1,1,5,11,2,18,2,1098,0,9.809538E-08,10.4303,0,-1
23,F,1,1,5,12,2,17,1,3942,4,0.07763207,10.26233,0.4224361,-1
23,F,1,1,5,13,3,19,3,1998,0,0.5201538,6.242001,4.639034,-1
23,F,1,1,5,14,4,17,1,1276,0,0.5969893,10.33619,3.252331,-1
23,F,1,1,5,15,1,20,4,4098,0,0.3215025,6.554625,2.644565,-1
23,F,1,1,5,16,4,18,2,8531,1,1.068825E-07,10.46555,0,-1
23,F,1,1,6,1,3,23,3,7431,1,0.4702176,6.294858,4.075926,-1
23,F,1,1,6,2,2,24,4,8375,0,1.238033E-07,10.538,0,-1
23,F,1,1,6,3,2,23,3,2776,1,0.4397261,10.35625,2.388681,-1
23,F,1,1,6,4,4,21,1,1187,0,0.7827376,10.32509,4.264894,-1
23,F,1,1,6,5,3,24,4,1976,0,0.3700786,6.559484,3.129252,-1
23,F,1,1,6,6,4,22,2,2187,1,0.8754357,10.4404,4.657745,-1
23,F,1,1,6,7,2,21,1,3831,3,0.355175,10.29275,1.94672,-1
23,F,1,1,6,8,1,22,2,7309,4,0.05113251,6.684201,0.4187142,-1
23,F,1,1,6,9,4,23,3,5098,0,0.5666191,10.36052,3.077462,-1
23,F,1,1,6,10,1,24,4,4598,1,0.339974,6.571204,2.810349,-1
23,F,1,1,6,11,1,21,1,2598,0,1.309863E-07,6.277522,0,-1
23,F,1,1,6,12,1,23,3,2431,0,0.3812637,6.271676,3.372027,-1
23,F,1,1,6,13,2,22,2,5798,1,0.6634147,10.42403,3.53607,-1
23,F,1,1,6,14,3,21,1,2898,0,1.215205E-07,6.248791,0.01978234,-1
23,F,1,1,6,15,4,24,4,3520,0,0.3511737,10.51435,1.853508,-1
23,F,1,1,6,16,3,22,2,4976,1,0.007933072,6.679714,0.06255726,-1
23,F,1,1,7,1,3,25,1,1420,0,0.1771935,6.265465,1.553812,-1
23,F,1,1,7,2,3,26,2,3609,4,0.02468522,6.672517,0.2027088,-1
23,F,1,1,7,3,3,27,3,1820,0,0.3426174,6.257413,3.024268,-1
23,F,1,1,7,4,2,26,2,1365,0,0.1300974,10.42685,0.6991359,-1
23,F,1,1,7,5,1,27,3,1464,0,0.5028402,6.265899,4.412241,-1
23,F,1,1,7,6,2,25,1,1798,1,0.2793266,10.30779,1.523157,-1
23,F,1,1,7,7,3,28,4,2675,0,0.4241038,6.566876,3.525589,-1
23,F,1,1,7,8,4,26,2,2387,0,0.6394122,10.45836,3.44054,-1
23,F,1,1,7,9,4,27,3,1731,0,0.7942905,10.37203,4.280433,-1
23,F,1,1,7,10,1,28,4,4465,0,0.2882432,6.562974,2.365626,-1
23,F,1,1,7,11,1,25,1,2142,0,0.1635375,6.278358,1.432448,-1
23,F,1,1,7,12,2,27,3,2764,0,1.960102E-07,10.35576,0,-1
23,F,1,1,7,13,4,28,4,2420,0,0.8566993,10.52676,4.572475,-1
23,F,1,1,7,14,4,25,1,6709,0,0.09533822,10.3878,0.5151029,-1
23,F,1,1,7,15,2,28,4,5631,1,0.6631913,10.53968,3.476826,-1
23,F,1,1,7,16,1,26,2,4064,0,0.04501271,6.697489,0.3685048,-1
23,F,1,1,8,1,2,32,4,4909,4,0.1886075,10.55485,0.9985801,-1
23,F,1,1,8,2,4,30,2,1042,0,0.7227709,10.44648,3.898727,-1
23,F,1,1,8,3,1,31,3,2087,1,0.4062744,6.265897,3.494352,-1
23,F,1,1,8,4,2,30,2,1320,0,0.3366122,10.43685,1.811321,-1
23,F,1,1,8,5,3,29,1,1954,0,0.3168143,6.277472,2.773964,-1
23,F,1,1,8,6,3,31,3,1620,0,3.843583E-08,6.261228,0,-1
23,F,1,1,8,7,1,32,4,2487,0,0.1092085,6.575182,0.9004862,-1
23,F,1,1,8,8,3,30,2,1198,0,0.2093466,6.696156,1.704332,-1
23,F,1,1,8,9,4,32,4,2220,1,0.7757046,10.51014,4.097155,-1
23,F,1,1,8,10,4,31,3,3398,1,0.3178928,10.36622,1.724196,-1
23,F,1,1,8,11,4,29,1,2831,1,0.07893465,10.34722,0.4270431,-1
23,F,1,1,8,12,3,32,4,4909,2,0.427161,6.577766,3.560075,-1
23,F,1,1,8,13,1,30,2,4042,0,1.623413E-07,6.698269,0.01978234,-1
23,F,1,1,8,14,2,29,1,1809,0,0.722261,10.32157,3.904097,-1
23,F,1,1,8,15,2,31,3,2187,0,0.555289,10.35848,3.016361,-1
23,F,1,1,8,16,1,29,1,3387,0,0.4560749,6.294162,3.9663,-1
23,F,1,1,9,1,1,36,4,3342,1,0.3777791,6.554269,3.113636,-1
23,F,1,1,9,2,3,33,1,2376,0,6.141847E-08,6.253676,0.01978234,-1
23,F,1,1,9,3,1,34,2,2231,1,0.2354377,6.683611,1.91121,-1
23,F,1,1,9,4,2,33,1,4453,0,3.594786E-08,10.33967,0,-1
23,F,1,1,9,5,4,34,2,4965,0,0.3779444,10.45671,2.013534,-1
23,F,1,1,9,6,2,35,3,2353,0,0.8847888,10.36535,4.804811,-1
23,F,1,1,9,7,1,33,1,1776,0,0.2867844,6.289357,2.500924,-1
23,F,1,1,9,8,2,36,4,2742,1,1.084974E-07,10.53268,0,-1
23,F,1,1,9,9,1,35,3,1409,0,4.125493E-07,6.270416,0,-1
23,F,1,1,9,10,2,34,2,998,0,0.1797749,10.43624,0.9575664,-1
23,F,1,1,9,11,3,36,4,2831,0,0.2149016,6.556055,1.815746,-1
23,F,1,1,9,12,3,35,3,1742,0,8.198798E-08,6.268473,0,-1
23,F,1,1,9,13,4,33,1,1531,0,0.6349203,10.36224,3.410362,-1
23,F,1,1,9,14,4,35,3,2309,0,5.872595E-08,10.39014,0,-1
23,F,1,1,9,15,3,34,2,4320,0,0.1182347,6.679213,0.9737772,-1
23,F,1,1,9,16,4,36,4,2320,0,0.8131303,10.52188,4.377793,-1
23,F,1,1,10,1,3,39,3,2354,1,0.4548973,6.260274,4.007266,-1
23,F,1,1,10,2,2,38,2,1109,0,0.4622464,10.44348,2.435742,-1
23,F,1,1,10,3,2,40,4,2342,0,0.5327021,10.52727,2.836625,-1
23,F,1,1,10,4,2,39,3,3109,0,0.05001674,10.3589,0.2690692,-1
23,F,1,1,10,5,4,37,1,1343,0,8.668886E-08,10.35777,0,-1
23,F,1,1,10,6,4,40,4,1742,0,0.7232008,10.52812,3.851936,-1
23,F,1,1,10,7,3,38,2,1076,0,0.2856886,6.677844,2.381952,-1
23,F,1,1,10,8,2,37,1,2598,1,0.5440644,10.29819,2.994998,-1
23,F,1,1,10,9,1,40,4,3209,0,0.1676665,6.568225,1.377004,-1
23,F,1,1,10,10,3,37,1,7020,1,0.4891129,6.247427,4.35703,-1
23,F,1,1,10,11,4,39,3,6076,0,0.6953864,10.38108,3.768683,-1
23,F,1,1,10,12,3,40,4,2320,1,0.2940027,6.565246,2.426968,-1
23,F,1,1,10,13,4,38,2,1598,0,0.00639959,10.42555,0.02797646,-1
23,F,1,1,10,14,1,37,1,3265,0,9.004882E-08,6.274227,0,-1
23,F,1,1,10,15,1,39,3,1709,0,0.2274382,6.273596,2.00935,-1
23,F,1,1,10,16,1,38,2,2153,1,0.5703703,6.68565,4.670219,-1
23,F,1,1,11,1,4,41,1,3976,0,0.3680627,10.37195,1.990267,-1
23,F,1,1,11,2,1,42,2,2365,0,0.5605925,6.688058,4.588298,-1
23,F,1,1,11,3,3,44,4,2398,0,8.118419E-08,6.556563,0,-1
23,F,1,1,11,4,2,43,3,2475,0,0.5778447,10.35811,3.137999,-1
23,F,1,1,11,5,3,42,2,2831,1,0.5248878,6.693555,4.363498,-1
23,F,1,1,11,6,3,43,3,2220,0,1.240241E-07,6.232974,0,-1
23,F,1,1,11,7,2,44,4,4142,0,0.3049828,10.54003,1.622447,-1
23,F,1,1,11,8,4,42,2,1398,0,0.2590429,10.44583,1.373161,-1
23,F,1,1,11,9,3,41,1,1831,1,0.1322626,6.255226,1.159947,-1
23,F,1,1,11,10,4,44,4,2398,1,0.7223388,10.52268,3.895461,-1
23,F,1,1,11,11,1,41,1,1842,0,0.1705402,6.276405,1.492003,-1
23,F,1,1,11,12,2,42,2,1287,0,0.8473878,10.42743,4.490346,-1
23,F,1,1,11,13,1,43,3,1676,0,0.2579445,6.265548,2.261918,-1
23,F,1,1,11,14,2,41,1,1265,0,1.177125E-07,10.31644,0,-1
23,F,1,1,11,15,4,43,3,6187,0,0.1450107,10.356,0.7873334,-1
23,F,1,1,11,16,1,44,4,3531,0,0.0009103057,6.57586,0,-1
23,F,1,1,12,1,3,46,2,1287,0,0.05793421,6.681304,0.4727124,-1
23,F,1,1,12,2,3,48,4,2231,0,0.0983506,6.56965,0.8093922,-1
23,F,1,1,12,3,1,45,1,1765,0,6.709796E-08,6.280397,0,-1
23,F,1,1,12,4,2,48,4,3431,0,0.7759187,10.53375,4.105273,-1
23,F,1,1,12,5,2,46,2,1276,0,0.214453,10.44258,1.137116,-1
23,F,1,1,12,6,3,45,1,1287,0,0.4729793,6.266145,4.13768,-1
23,F,1,1,12,7,3,47,3,2487,0,0.2569166,6.273444,2.237384,-1
23,F,1,1,12,8,4,48,4,2243,0,0.3069391,10.52026,1.637694,-1
23,F,1,1,12,9,1,47,3,1942,0,6.780977E-08,6.274416,0,-1
23,F,1,1,12,10,1,48,4,4431,0,0.07093478,6.569047,0.5938025,-1
23,F,1,1,12,11,1,46,2,1998,0,0.2458686,6.696673,2.045549,-1
23,F,1,1,12,12,4,45,1,2798,0,0.2165014,10.35621,1.170192,-1
23,F,1,1,12,13,4,47,3,2898,0,0.7017017,10.38765,3.803953,-1
23,F,1,1,12,14,4,46,2,2098,2,0.07959061,10.43769,0.4252063,-1
23,F,1,1,12,15,2,47,3,2220,0,0.443766,10.36506,2.407941,-1
23,F,1,1,12,16,2,45,1,2909,2,0.7898474,10.33829,4.239885,-1
23,F,1,1,13,1,4,52,4,3076,0,0.3889499,10.53907,2.056047,-1
23,F,1,1,13,2,2,49,1,3454,1,0.2916408,10.33572,1.572092,-1
23,F,1,1,13,3,3,51,3,2231,0,0.2589602,6.279617,2.227916,-1
23,F,1,1,13,4,2,52,4,2087,0,0.09980547,10.54916,0.53008,-1
23,F,1,1,13,5,1,49,1,1387,0,4.869456E-08,6.286684,0,-1
23,F,1,1,13,6,1,52,4,2609,0,0.392623,6.579246,3.268603,-1
23,F,1,1,13,7,4,50,2,3798,0,0.3133588,10.47533,1.673978,-1
23,F,1,1,13,8,1,51,3,1231,0,5.767293E-08,6.286057,0,-1
23,F,1,1,13,9,2,50,2,1131,0,0.1907891,10.44919,1.026029,-1
23,F,1,1,13,10,4,51,3,1776,0,0.3044658,10.38908,1.640679,-1
23,F,1,1,13,11,3,49,1,1276,0,0.1917324,6.263619,1.695006,-1
23,F,1,1,13,12,1,50,2,2598,1,0.1718549,6.701005,1.399417,-1
23,F,1,1,13,13,3,52,4,2531,0,0.01126475,6.58266,0.09278741,-1
23,F,1,1,13,14,3,50,2,1865,1,0.4019765,6.684638,3.271956,-1
23,F,1,1,13,15,4,49,1,2242,1,0.0168412,10.34423,0.08846933,-1
23,F,1,1,13,16,2,51,3,1876,0,0.468821,10.37088,2.531805,-1
23,F,1,1,14,1,3,53,1,2620,0,0.3728897,6.290218,3.258585,-1
23,F,1,1,14,2,4,56,4,2398,0,0.7416061,10.52322,3.961755,-1
23,F,1,1,14,3,4,54,2,1031,0,0.1139396,10.46448,0.6058724,-1
23,F,1,1,14,4,2,53,1,1620,0,0.5550734,10.3298,3.014543,-1
23,F,1,1,14,5,2,56,4,3142,1,0.7590197,10.54299,4.040942,-1
23,F,1,1,14,6,1,55,3,1731,0,0.0177727,6.284095,0.1545051,-1
23,F,1,1,14,7,3,54,2,4365,4,0.3482695,6.695676,2.842553,-1
23,F,1,1,14,8,2,55,3,2209,0,0.8032695,10.36054,4.28793,-1
23,F,1,1,14,9,1,54,2,1853,0,0.5667942,6.704082,4.62402,-1
23,F,1,1,14,10,3,55,3,6420,6,0.1173591,6.264351,1.034008,-1
23,F,1,1,14,11,1,56,4,2665,0,1.241908E-07,6.571871,0,-1
23,F,1,1,14,12,4,53,1,1765,0,0.1305821,10.36344,0.7047113,-1
23,F,1,1,14,13,2,54,2,1387,0,0.5880504,10.44406,3.128814,-1
23,F,1,1,14,14,4,55,3,2143,0,4.295117E-08,10.39578,0,-1
23,F,1,1,14,15,3,56,4,2742,0,0.194181,6.57082,1.597652,-1
23,F,1,1,14,16,1,53,1,2220,0,0.0504872,6.306773,0.4405747,-1
23,F,1,1,15,1,3,60,4,2598,0,0.1826378,6.580785,1.520971,-1
23,F,1,1,15,2,2,57,1,1331,0,0.448365,10.33865,2.428499,-1
23,F,1,1,15,3,3,59,3,1309,0,0.1535276,6.282658,1.34741,-1
23,F,1,1,15,4,2,60,4,2409,0,0.38562,10.54828,2.029315,-1
23,F,1,1,15,5,2,59,3,2542,0,0.3298986,10.37565,1.777952,-1
23,F,1,1,15,6,4,58,2,1431,0,0.2636651,10.45695,1.395496,-1
23,F,1,1,15,7,1,59,3,1354,0,0.15535,6.28884,1.348427,-1
23,F,1,1,15,8,3,57,1,1509,0,0.2973557,6.291596,2.584523,-1
23,F,1,1,15,9,4,59,3,3575,0,0.576212,10.40747,3.113825,-1
23,F,1,1,15,10,3,58,2,1254,0,1.17646E-07,6.681786,0,-1
23,F,1,1,15,11,4,57,1,1765,0,0.7205234,10.36013,3.870396,-1
23,F,1,1,15,12,1,58,2,2509,1,0.06259996,6.700716,0.5105241,-1
23,F,1,1,15,13,1,60,4,3442,0,2.187157E-07,6.568431,0,-1
23,F,1,1,15,14,1,57,1,1820,0,0.2540577,6.204635,2.287987,-1
23,F,1,1,15,15,2,58,2,9999,0,-1,-1,-1,-1
23,F,1,1,15,16,4,60,4,2054,0,0.07396352,10.44921,0.3951527,-1
23,F,1,1,16,1,2,62,2,1142,0,0.4154885,10.33418,2.260014,-1
23,F,1,1,16,2,4,61,1,2798,0,0.1908462,10.2308,1.038352,-1
23,F,1,1,16,3,4,62,2,1265,0,0.2482395,10.34187,1.329132,-1
23,F,1,1,16,4,4,63,3,2498,0,0.7951673,10.31234,4.342486,-1
23,F,1,1,16,5,4,64,4,1376,0,0.480054,10.42785,2.605267,-1
23,F,1,1,16,6,2,63,3,1731,0,0.2781936,10.30007,1.493576,-1
23,F,1,1,16,7,1,64,4,3854,1,0.0823479,6.514976,0.6878495,-1
23,F,1,1,16,8,1,62,2,2154,0,0.241511,6.57003,2.000761,-1
23,F,1,1,16,9,2,64,4,1542,0,0.8360047,10.44098,4.540708,-1
23,F,1,1,16,10,3,61,1,2209,0,0.1773338,6.157054,1.58659,-1
23,F,1,1,16,11,3,62,2,1654,0,0.4024674,6.548386,3.326843,-1
23,F,1,1,16,12,3,64,4,2709,0,3.43241E-08,6.516711,0,-1
23,F,1,1,16,13,1,63,3,1709,0,0.4093339,6.198232,3.672425,-1
23,F,1,1,16,14,2,61,1,1176,0,0.7115658,10.20683,3.938803,-1
23,F,1,1,16,15,3,63,3,1465,0,0.08290938,6.190219,0.733287,-1
23,F,1,1,16,16,1,61,1,1698,0,0.01879695,6.17284,0.1678588,-1
23,F,1,1,17,1,1,67,3,954,0,0.3151934,6.235448,2.742168,-1
23,F,1,1,17,2,3,66,2,3253,0,0.2590073,6.566476,2.132674,-1
23,F,1,1,17,3,1,65,1,2087,0,0.1371302,6.187468,1.218204,-1
23,F,1,1,17,4,4,67,3,6931,2,0.6520329,10.38164,3.539889,-1
23,F,1,1,17,5,1,68,4,4687,1,0.003383171,6.549232,0.01978234,-1
23,F,1,1,17,6,2,65,1,1354,0,0.547448,10.24556,3.006871,-1
23,F,1,1,17,7,2,66,2,1687,0,0.1643762,10.33392,0.8818219,-1
23,F,1,1,17,8,2,67,3,2031,0,0.7433768,10.33086,4.048495,-1
23,F,1,1,17,9,3,65,1,1142,0,0.3874317,6.215022,3.503808,-1
23,F,1,1,17,10,4,68,4,1276,0,0.06932145,10.48119,0.3700944,-1
23,F,1,1,17,11,3,67,3,1120,0,0.3068476,6.234189,2.702188,-1
23,F,1,1,17,12,4,66,2,1454,0,0.7173289,10.32532,3.925906,-1
23,F,1,1,17,13,4,65,1,3331,3,8.451809E-08,10.23598,0,-1
23,F,1,1,17,14,2,68,4,2476,0,0.5223334,10.47904,2.759105,-1
23,F,1,1,17,15,1,66,2,2065,0,0.4131655,6.581446,3.431651,-1
23,F,1,1,17,16,3,68,4,2043,0,5.242292E-08,6.551352,0,-1
23,F,1,1,18,1,3,69,1,1498,0,0.2993428,6.177925,2.702043,-1
23,F,1,1,18,2,1,70,2,2465,1,0.3482379,6.587791,2.889205,-1
23,F,1,1,18,3,1,69,1,3620,0,0.2323646,6.214685,2.054714,-1
23,F,1,1,18,4,1,72,4,4665,0,0.2215032,6.551476,1.863301,-1
23,F,1,1,18,5,1,71,3,3509,2,0.5054112,6.226089,4.458873,-1
23,F,1,1,18,6,4,72,4,8664,3,0.1823111,10.4075,0.9795874,-1
23,F,1,1,18,7,3,71,3,6253,0,1.66989E-07,6.228158,0,-1
23,F,1,1,18,8,3,70,2,2976,0,0.4440024,6.541735,3.691994,-1
23,F,1,1,18,9,4,69,1,1865,0,0.7289971,10.21455,3.975424,-1
23,F,1,1,18,10,2,72,4,2665,1,0.5556161,10.45114,3.005829,-1
23,F,1,1,18,11,2,71,3,2243,0,6.534001E-08,10.31729,0,-1
23,F,1,1,18,12,2,70,2,1065,0,0.1056895,10.30635,0.569239,-1
23,F,1,1,18,13,3,72,4,2465,0,0.2080308,6.537138,1.739226,-1
23,F,1,1,18,14,4,71,3,1676,0,0.1104919,10.33763,0.5974163,-1
23,F,1,1,18,15,2,69,1,2498,1,0.2075483,10.21232,1.138664,-1
23,F,1,1,18,16,4,70,2,1165,0,0.002849033,10.30305,0.01978234,-1
23,F,1,1,19,1,3,76,4,2409,0,0.1681576,6.541438,1.418445,-1
23,F,1,1,19,2,3,75,3,1498,0,0.1143627,6.247664,1.012784,-1
23,F,1,1,19,3,2,73,1,1109,0,0.6453856,10.21621,3.581132,-1
23,F,1,1,19,4,4,75,3,1420,0,0.4521998,10.33598,2.462197,-1
23,F,1,1,19,5,4,73,1,4331,0,0.5531833,10.24628,3.038798,-1
23,F,1,1,19,6,3,74,2,2564,0,0.3552726,6.561842,2.958831,-1
23,F,1,1,19,7,2,76,4,1998,0,0.6219527,10.46006,3.283484,-1
23,F,1,1,19,8,2,75,3,1687,0,0.8718956,10.31774,4.732965,-1
23,F,1,1,19,9,4,76,4,2042,0,0.5631008,10.46069,2.988193,-1
23,F,1,1,19,10,1,73,1,1187,0,0.1395879,6.181683,1.251795,-1
23,F,1,1,19,11,2,74,2,1031,0,0.5996263,10.30408,3.223794,-1
23,F,1,1,19,12,3,73,1,1131,0,0.09689436,6.172087,0.8613922,-1
23,F,1,1,19,13,1,76,4,3831,0,0.2975504,6.542319,2.449045,-1
23,F,1,1,19,14,4,74,2,987,0,0.3271048,10.30991,1.763252,-1
23,F,1,1,19,15,1,75,3,1065,0,1.331314E-07,6.252266,0,-1
23,F,1,1,19,16,1,74,2,4531,1,1.611096E-07,6.573006,0,-1
23,F,1,1,20,1,2,77,1,1198,0,0.3899456,10.22547,2.153314,-1
23,F,1,1,20,2,1,78,2,1709,0,0.2919749,6.57271,2.416056,-1
23,F,1,1,20,3,3,79,3,1465,0,0.07715112,6.254479,0.6731851,-1
23,F,1,1,20,4,2,78,2,1087,0,0.5741874,10.31334,3.093324,-1
23,F,1,1,20,5,3,77,1,1131,0,0.4728034,6.168593,4.313115,-1
23,F,1,1,20,6,3,78,2,3576,0,0.2718327,6.56846,2.249337,-1
23,F,1,1,20,7,1,80,4,4165,0,0.4411202,6.534859,3.620825,-1
23,F,1,1,20,8,1,79,3,1120,0,1.843851E-07,6.255939,0,-1
23,F,1,1,20,9,2,80,4,1954,0,0.4084582,10.46374,2.187938,-1
23,F,1,1,20,10,4,78,2,4664,0,0.353801,10.33783,1.894342,-1
23,F,1,1,20,11,4,79,3,2164,0,0.1881088,10.35685,1.016833,-1
23,F,1,1,20,12,4,80,4,3731,1,0.1023892,10.45108,0.5442861,-1
23,F,1,1,20,13,4,77,1,887,0,0.4935192,10.22906,2.722539,-1
23,F,1,1,20,14,2,79,3,3442,3,0.7721512,10.31155,4.213288,-1
23,F,1,1,20,15,3,80,4,2831,0,0.3540467,6.541728,2.910738,-1
23,F,1,1,20,16,1,77,1,1287,0,1.301176E-07,6.205885,0,-1
23,F,1,1,21,1,1,84,4,4653,1,2.801951E-07,6.540226,0,-1
23,F,1,1,21,2,3,82,2,3898,1,0.4772656,6.584992,3.936317,-1
23,F,1,1,21,3,2,83,3,1476,0,0.3652745,10.31473,1.988594,-1
23,F,1,1,21,4,2,81,1,1042,0,0.5704622,10.22942,3.157837,-1
23,F,1,1,21,5,3,84,4,2020,0,1.038379E-07,6.545136,0,-1
23,F,1,1,21,6,4,82,2,1076,0,0.7142106,10.32335,3.863408,-1
23,F,1,1,21,7,1,83,3,1154,0,1.250874E-07,6.243602,0,-1
23,F,1,1,21,8,1,82,2,1920,0,1.033649E-07,6.57835,0,-1
23,F,1,1,21,9,3,81,1,3165,0,4.354942E-08,6.184802,0,-1
23,F,1,1,21,10,4,83,3,2042,0,0.7076695,10.35831,3.84201,-1
23,F,1,1,21,11,1,81,1,1009,0,0.226842,6.198662,2.039705,-1
23,F,1,1,21,12,2,84,4,4409,0,0.3780474,10.48353,2.008473,-1
23,F,1,1,21,13,2,82,2,1509,0,0.4033918,10.31549,2.172768,-1
23,F,1,1,21,14,4,84,4,5831,0,0.04755672,10.47042,0.2533378,-1
23,F,1,1,21,15,4,81,1,2254,0,0.7132613,10.27367,3.868372,-1
23,F,1,1,21,16,3,83,3,2087,0,0.4725427,6.255727,4.125877,-1
23,F,1,1,22,1,4,85,1,1298,0,0.3373511,10.23556,1.834724,-1
23,F,1,1,22,2,3,86,2,6120,1,0.1036992,6.569785,0.8717791,-1
23,F,1,1,22,3,2,88,4,3098,0,0.8825331,10.47245,4.725759,-1
23,F,1,1,22,4,1,85,1,1565,1,7.466392E-08,6.20091,0.01978234,-1
23,F,1,1,22,5,2,87,3,2376,0,0.3795536,10.3312,2.054618,-1
23,F,1,1,22,6,3,85,1,1376,0,0.2808821,6.193311,2.483804,-1
23,F,1,1,22,7,4,88,4,2642,0,0.2019901,10.47098,1.082817,-1
23,F,1,1,22,8,4,87,3,2076,0,0.1077162,10.33164,0.5818186,-1
23,F,1,1,22,9,1,88,4,4987,0,4.745198E-08,6.547151,0,-1
23,F,1,1,22,10,2,85,1,1287,0,0.06329697,10.24218,0.3449174,-1
23,F,1,1,22,11,1,86,2,5220,0,0.3037185,6.581556,2.510298,-1
23,F,1,1,22,12,1,87,3,1276,0,0.2120602,6.245398,1.833977,-1
23,F,1,1,22,13,2,86,2,1309,0,0.1196537,10.31522,0.6437659,-1
23,F,1,1,22,14,3,87,3,1465,0,1.756936E-07,6.25052,0,-1
23,F,1,1,22,15,3,88,4,1431,0,0.1335547,6.54049,1.107475,-1
23,F,1,1,22,16,4,86,2,2309,0,0.7044892,10.31288,3.771695,-1
23,F,1,1,23,1,4,92,4,1354,0,0.6190189,10.43846,3.270938,-1
23,F,1,1,23,2,4,91,3,1965,1,0.4356421,10.33159,2.363888,-1
23,F,1,1,23,3,3,89,1,1042,0,0.1391055,6.180819,1.244426,-1
23,F,1,1,23,4,4,90,2,6587,6,0.8245859,10.33612,4.457599,-1
23,F,1,1,23,5,2,91,3,1565,0,0.4007763,10.32491,2.181937,-1
23,F,1,1,23,6,2,92,4,2331,0,0.299411,10.46932,1.612648,-1
23,F,1,1,23,7,2,89,1,1020,0,0.2368599,10.234,1.292558,-1
23,F,1,1,23,8,2,90,2,1731,0,0.444629,10.31678,2.394328,-1
23,F,1,1,23,9,3,92,4,2453,0,0.1995422,6.540313,1.67117,-1
23,F,1,1,23,10,4,89,1,1154,0,0.745176,10.24232,4.0802,-1
23,F,1,1,23,11,1,90,2,5431,1,0.3622165,6.585971,2.988193,-1
23,F,1,1,23,12,1,92,4,3398,0,0.3864548,6.541194,3.213514,-1
23,F,1,1,23,13,1,89,1,1131,0,0.3871757,6.209285,3.414321,-1
23,F,1,1,23,14,3,91,3,1276,0,0.2213244,6.244565,1.925391,-1
23,F,1,1,23,15,3,90,2,2353,1,0.4501762,6.575,3.806938,-1
23,F,1,1,23,16,1,91,3,1187,0,0.06965487,6.255769,0.607807,-1
23,F,1,1,24,1,1,96,4,3731,0,0.2511035,6.536208,2.079143,-1
23,F,1,1,24,2,2,94,2,2453,2,0.4704736,10.31788,2.546067,-1
23,F,1,1,24,3,3,95,3,1731,0,1.553466E-07,6.247949,0,-1
23,F,1,1,24,4,4,94,2,9442,0,0.5070617,10.33436,2.701753,-1
23,F,1,1,24,5,4,95,3,4565,3,0.3832174,10.31979,2.051759,-1
23,F,1,1,24,6,2,96,4,1987,0,0.02152471,10.47275,0.1136409,-1
23,F,1,1,24,7,1,93,1,1231,0,4.357435E-08,6.199596,0,-1
23,F,1,1,24,8,4,96,4,2764,0,0.08606181,10.4724,0.4601268,-1
23,F,1,1,24,9,4,93,1,1198,0,0.1422067,10.24479,0.7737964,-1
23,F,1,1,24,10,2,95,3,2287,0,0.2799512,10.32695,1.514007,-1
23,F,1,1,24,11,1,94,2,2298,0,0.2209484,6.580955,1.83451,-1
23,F,1,1,24,12,3,96,4,2943,0,0.3913885,6.559403,3.283782,-1
23,F,1,1,24,13,2,93,1,1065,0,0.08597649,10.24158,0.4673002,-1
23,F,1,1,24,14,3,94,2,4265,0,0.4420897,6.577343,3.783669,-1
23,F,1,1,24,15,1,95,3,1242,0,0.4843358,6.260485,4.211846,-1
23,F,1,1,24,16,3,93,1,1109,0,0.2570849,6.203476,2.27787,-1
23,F,1,1,25,1,1,98,2,2142,0,0.3035634,6.582097,2.507958,-1
23,F,1,1,25,2,3,97,1,987,0,0.2505538,6.194569,2.21832,-1
23,F,1,1,25,3,4,98,2,1598,0,0.5760646,10.34657,3.089715,-1
23,F,1,1,25,4,2,100,4,1309,0,0.5076033,10.48039,2.71397,-1
23,F,1,1,25,5,4,97,1,887,0,0.08369002,10.27383,0.4562834,-1
23,F,1,1,25,6,1,99,3,909,0,0.2001925,6.262658,1.741587,-1
23,F,1,1,25,7,4,100,4,3276,0,0.3675862,10.47356,1.967122,-1
23,F,1,1,25,8,2,97,1,1154,0,2.30364E-08,10.24959,0,-1
23,F,1,1,25,9,3,100,4,1820,0,0.1841355,6.556087,1.522771,-1
23,F,1,1,25,10,3,99,3,1154,0,0.2136811,6.240453,1.864351,-1
23,F,1,1,25,11,3,98,2,3698,2,0.3708691,6.59162,3.098572,-1
23,F,1,1,25,12,1,97,1,1409,0,0.5015467,6.192899,4.574017,-1
23,F,1,1,25,13,2,98,2,1687,0,0.6384176,10.32429,3.435928,-1
23,F,1,1,25,14,2,99,3,2064,0,0.143951,10.33107,0.7820969,-1
23,F,1,1,25,15,1,100,4,6287,0,0.007629092,6.560205,0.06255726,-1
23,F,1,1,25,16,4,99,3,3053,0,0.2481784,10.3515,1.349152,-1
23,F,1,1,26,1,1,102,2,1864,0,0.2019984,6.585959,1.707429,-1
23,F,1,1,26,2,3,104,4,2431,0,0.2506604,6.552664,2.084408,-1
23,F,1,1,26,3,3,102,2,3731,0,0.1809427,6.581614,1.502199,-1
23,F,1,1,26,4,3,103,3,1276,0,0.4171875,6.259202,3.622177,-1
23,F,1,1,26,5,4,101,1,1276,0,0.4781953,10.24626,2.633959,-1
23,F,1,1,26,6,4,104,4,1753,0,0.5609864,10.46988,3.004135,-1
23,F,1,1,26,7,2,103,3,2587,0,0.8307806,10.33082,4.525281,-1
23,F,1,1,26,8,2,102,2,1320,0,0.5879642,10.32625,3.163783,-1
23,F,1,1,26,9,2,101,1,1287,0,0.5464683,10.23715,3.007847,-1
23,F,1,1,26,10,4,103,3,1442,0,0.3814636,10.34997,2.071882,-1
23,F,1,1,26,11,2,104,4,2020,0,0.6600087,10.47769,3.497544,-1
23,F,1,1,26,12,1,103,3,1298,0,0.2099664,6.249781,1.848115,-1
23,F,1,1,26,13,1,104,4,2609,0,2.506779E-07,6.546216,0,-1
23,F,1,1,26,14,3,101,1,1354,0,0.4076805,6.182686,3.612433,-1
23,F,1,1,26,15,4,102,2,1209,0,0.2279588,10.32371,1.227804,-1
23,F,1,1,26,16,1,101,1,1187,0,0.4429605,6.183999,4.03352,-1
23,F,1,1,27,1,4,108,4,2698,0,0.5430782,10.46305,2.904747,-1
23,F,1,1,27,2,2,107,3,1209,0,0.1818148,10.32871,0.974179,-1
23,F,1,1,27,3,4,105,1,1242,0,0.3347319,10.25233,1.827885,-1
23,F,1,1,27,4,4,106,2,1820,1,0.6452951,10.33436,3.444294,-1
23,F,1,1,27,5,2,105,1,1453,1,0.3242812,10.23356,1.760587,-1
23,F,1,1,27,6,2,108,4,1787,0,0.2126889,10.47409,1.13746,-1
23,F,1,1,27,7,3,107,3,3220,0,1.522536E-07,6.249773,0.01978234,-1
23,F,1,1,27,8,1,106,2,4454,0,0.1412605,6.573932,1.173198,-1
23,F,1,1,27,9,1,105,1,1254,0,0.3169203,6.187487,2.814178,-1
23,F,1,1,27,10,3,106,2,5776,2,0.3616744,6.568007,3.000222,-1
23,F,1,1,27,11,1,108,4,2987,0,0.3369545,6.536467,2.772835,-1
23,F,1,1,27,12,2,106,2,976,0,0.2399249,10.32301,1.291952,-1
23,F,1,1,27,13,1,107,3,920,0,0.2360775,6.256389,2.096952,-1
23,F,1,1,27,14,3,108,4,7776,0,0.1447869,6.560921,1.215792,-1
23,F,1,1,27,15,3,105,1,2020,0,0.01193762,6.187371,0.1027921,-1
23,F,1,1,27,16,4,107,3,4676,0,0.1679002,10.33607,0.912574,-1
23,F,1,1,28,1,1,110,2,5576,6,0.3443914,6.557587,2.91336,-1
23,F,1,1,28,2,1,111,3,1809,1,5.622922E-08,6.225346,0,-1
23,F,1,1,28,3,3,110,2,2942,1,0.4630143,6.556687,3.860315,-1
23,F,1,1,28,4,1,112,4,2576,0,0.08350948,6.540241,0.6929511,-1
23,F,1,1,28,5,3,109,1,1053,0,0.3797712,6.182815,3.453037,-1
23,F,1,1,28,6,2,112,4,1920,1,0.1481877,10.46119,0.7942618,-1
23,F,1,1,28,7,4,111,3,9999,7,-1,-1,-1,-1
23,F,1,1,28,8,4,110,2,1298,0,0.04966148,10.33262,0.2690692,-1
23,F,1,1,28,9,4,112,4,6231,0,0.2562658,10.46975,1.375012,-1
23,F,1,1,28,10,3,111,3,1787,0,0.1925666,6.236495,1.679347,-1
23,F,1,1,28,11,1,109,1,1087,0,2.990857E-08,6.186925,0,-1
23,F,1,1,28,12,2,111,3,4876,0,0.8170704,10.34687,4.448142,-1
23,F,1,1,28,13,2,110,2,2231,1,0.5985167,10.31377,3.187824,-1
23,F,1,1,28,14,2,109,1,9999,11,-1,-1,-1,-1
23,F,1,1,28,15,3,112,4,2320,0,1.497754E-07,6.552713,0,-1
23,F,1,1,28,16,4,109,1,1076,0,0.124823,10.2694,0.6792617,-1
23,F,1,1,29,1,3,116,4,2042,0,0.4115527,6.538854,3.379682,-1
23,F,1,1,29,2,4,115,3,1920,0,0.8767151,10.31079,4.785119,-1
23,F,1,1,29,3,1,113,1,1020,0,7.148378E-08,6.18437,0,-1
23,F,1,1,29,4,1,115,3,998,0,0.2346343,6.238303,2.07839,-1
23,F,1,1,29,5,3,114,2,1476,0,0.5341,6.554996,4.421864,-1
23,F,1,1,29,6,2,115,3,1576,0,0.2902974,10.32183,1.581153,-1
23,F,1,1,29,7,4,116,4,4809,0,9.483276E-08,10.46019,0,-1
23,F,1,1,29,8,3,113,1,2965,1,0.398073,6.178821,3.620446,-1
23,F,1,1,29,9,1,116,4,2798,0,0.1622482,6.547764,1.342755,-1
23,F,1,1,29,10,2,113,1,1131,0,0.750079,10.23305,4.156003,-1
23,F,1,1,29,11,3,115,3,1720,0,0.2556638,6.243288,2.275549,-1
23,F,1,1,29,12,4,114,2,1976,0,0.4077763,10.34318,2.178166,-1
23,F,1,1,29,13,2,116,4,1920,0,0.8840681,10.48137,4.769003,-1
23,F,1,1,29,14,1,114,2,4231,0,0.4675962,6.584023,3.882772,-1
23,F,1,1,29,15,4,113,1,1265,0,0.569561,10.2208,3.136564,-1
23,F,1,1,29,16,2,114,2,1276,0,0.5725606,10.30934,3.085277,-1
23,F,1,1,30,1,4,120,4,3253,1,0.1610198,10.46763,0.8607104,-1
23,F,1,1,30,2,4,118,2,1143,0,3.657497E-08,10.31712,0,-1
23,F,1,1,30,3,1,119,3,1187,0,0.1493661,6.259846,1.293012,-1
23,F,1,1,30,4,2,118,2,1243,0,0.3819972,10.32678,2.088629,-1
23,F,1,1,30,5,3,117,1,1198,0,0.1502165,6.174467,1.332367,-1
23,F,1,1,30,6,4,119,3,2031,0,0.1434027,10.33245,0.774302,-1
23,F,1,1,30,7,2,117,1,1076,0,0.2396303,10.2364,1.306861,-1
23,F,1,1,30,8,1,120,4,1942,0,0.4645087,6.55636,3.817108,-1
23,F,1,1,30,9,1,117,1,1698,1,0.08674069,6.194944,0.7699938,-1
23,F,1,1,30,10,3,120,4,1598,0,0.4257779,6.559278,3.536735,-1
23,F,1,1,30,11,1,118,2,1742,0,0.327478,6.592357,2.714979,-1
23,F,1,1,30,12,3,119,3,1154,0,1.110335E-07,6.269903,0,-1
23,F,1,1,30,13,3,118,2,1376,0,0.09301271,6.579494,0.7702479,-1
23,F,1,1,30,14,4,117,1,2865,0,0.6875478,10.2661,3.736278,-1
23,F,1,1,30,15,2,119,3,1776,0,0.5367435,10.34527,2.87467,-1
23,F,1,1,30,16,2,120,4,2831,1,0.6960041,10.4883,3.761818,-1
23,F,1,1,1,1,7,1,1,12364,0,-1,-1,-1,1
23,F,1,1,1,2,8,3,3,1720,0,-1,-1,-1,0
23,F,1,1,1,3,5,4,4,3798,0,-1,-1,-1,1
23,F,1,1,1,4,8,1,1,3598,0,-1,-1,-1,1
23,F,1,1,1,5,8,4,4,2653,0,-1,-1,-1,0
23,F,1,1,1,6,7,2,2,3331,0,-1,-1,-1,0
23,F,1,1,1,7,7,3,3,3065,0,-1,-1,-1,0
23,F,1,1,1,8,6,2,2,1154,0,-1,-1,-1,0
23,F,1,1,1,9,5,3,3,1664,0,-1,-1,-1,0
23,F,1,1,1,10,8,2,2,3853,0,-1,-1,-1,1
23,F,1,1,1,11,5,1,1,2798,0,-1,-1,-1,1
23,F,1,1,1,12,7,4,4,2020,0,-1,-1,-1,1
23,F,1,1,1,13,6,3,3,2854,0,-1,-1,-1,1
23,F,1,1,1,14,6,4,4,1154,0,-1,-1,-1,0
23,F,1,1,1,15,5,2,2,2709,0,-1,-1,-1,0
23,F,1,1,1,16,6,1,1,2387,0,-1,-1,-1,0
23,F,1,1,2,1,5,2,2,1354,0,-1,-1,-1,0
23,F,1,1,2,2,5,4,4,1353,0,-1,-1,-1,0
23,F,1,1,2,3,8,1,1,1698,0,-1,-1,-1,1
23,F,1,1,2,4,5,3,3,7686,0,-1,-1,-1,0
23,F,1,1,2,5,5,1,1,2187,0,-1,-1,-1,0
23,F,1,1,2,6,7,2,2,1865,0,-1,-1,-1,0
23,F,1,1,2,7,7,1,1,2753,0,-1,-1,-1,1
23,F,1,1,2,8,6,2,2,5153,0,-1,-1,-1,1
23,F,1,1,2,9,6,1,1,1454,0,-1,-1,-1,0
23,F,1,1,2,10,6,4,4,1409,0,-1,-1,-1,0
23,F,1,1,2,11,8,3,3,1187,0,-1,-1,-1,0
23,F,1,1,2,12,8,2,2,3153,0,-1,-1,-1,1
23,F,1,1,2,13,8,4,4,3209,0,-1,-1,-1,1
23,F,1,1,2,14,7,3,3,4620,0,-1,-1,-1,1
23,F,1,1,2,15,7,4,4,6198,0,-1,-1,-1,1
23,F,1,1,2,16,6,3,3,2631,0,-1,-1,-1,1
