Age, Gender, Awareness Type, Session, Block, Trial, Set, Pattern, Quadrant, Response Time, Num Mistakes, Distance From Target, Camera Distance From Target, Angle Error (Degrees), FC Response
22,M,1,1,1,1,1,1,1,1309,0,0.02765274,6.401634,0.235734,-1
22,M,1,1,1,2,1,2,2,1554,0,0.4435673,6.527617,3.730666,-1
22,M,1,1,1,3,3,4,4,4064,1,0.4139671,6.419546,3.556553,-1
22,M,1,1,1,4,2,1,1,2098,0,0.04773819,10.25258,0.2601963,-1
22,M,1,1,1,5,3,2,2,2231,0,0.5366009,6.530403,4.531942,-1
22,M,1,1,1,6,2,4,4,2720,1,0.6484893,10.39208,3.474347,-1
22,M,1,1,1,7,2,2,2,2820,1,0.6738074,10.46017,3.564747,-1
22,M,1,1,1,8,3,1,1,1420,0,0.2059335,6.422302,1.762142,-1
22,M,1,1,1,9,2,3,3,3409,0,0.4942345,10.14621,2.712383,-1
22,M,1,1,1,10,4,4,4,2376,0,0.6609079,10.37113,3.523812,-1
22,M,1,1,1,11,4,1,1,1398,0,0.3618367,10.26517,1.950737,-1
22,M,1,1,1,12,1,3,3,1509,0,0.3271676,6.151145,2.886223,-1
22,M,1,1,1,13,4,2,2,1620,0,0.8915616,10.46581,4.728701,-1
22,M,1,1,1,14,4,3,3,3287,0,0.5299194,10.15045,2.907105,-1
22,M,1,1,1,15,1,4,4,3220,2,0.188506,6.422992,1.616284,-1
22,M,1,1,1,16,3,3,3,3998,0,0.04312588,6.172141,0.382573,-1
22,M,1,1,2,1,4,6,2,2054,1,0.5158879,10.48118,2.738168,-1
22,M,1,1,2,2,4,5,1,1665,0,0.4794424,10.29247,2.622789,-1
22,M,1,1,2,3,2,8,4,2320,0,0.6333973,10.3986,3.391248,-1
22,M,1,1,2,4,2,5,1,1365,0,0.5693406,10.2603,3.121297,-1
22,M,1,1,2,5,2,7,3,2509,0,0.05186239,10.14912,0.2853053,-1
22,M,1,1,2,6,2,6,2,1976,0,0.4951239,10.46824,2.622117,-1
22,M,1,1,2,7,4,8,4,2142,1,0.8713362,10.39091,4.65623,-1
22,M,1,1,2,8,1,6,2,1631,1,0.04146729,6.528875,0.3460502,-1
22,M,1,1,2,9,1,5,1,1220,0,0.1441298,6.398072,1.238121,-1
22,M,1,1,2,10,3,8,4,3009,2,0.372232,6.443283,3.202713,-1
22,M,1,1,2,11,4,7,3,3298,0,0.3649013,10.15041,1.991937,-1
22,M,1,1,2,12,1,8,4,2609,0,0.5445079,6.426846,4.682492,-1
22,M,1,1,2,13,1,7,3,2831,0,1.417593E-07,6.157998,0.01978234,-1
22,M,1,1,2,14,3,5,1,2631,0,0.3614672,6.411489,3.068416,-1
22,M,1,1,2,15,3,6,2,1765,1,0.1320905,6.525743,1.099317,-1
22,M,1,1,2,16,3,7,3,3409,0,0.06374414,6.189739,0.5647526,-1
22,M,1,1,3,1,1,12,4,3342,1,0.3209522,6.421504,2.760382,-1
22,M,1,1,3,2,1,11,3,2565,0,0.1260319,6.157179,1.115398,-1
22,M,1,1,3,3,3,12,4,3476,1,0.4662991,6.427191,3.992235,-1
22,M,1,1,3,4,3,11,3,2198,0,0.2306567,6.17137,2.075563,-1
22,M,1,1,3,5,1,10,2,1509,0,0.3386142,6.537117,2.802258,-1
22,M,1,1,3,6,2,9,1,1298,0,0.8338038,10.2592,4.584455,-1
22,M,1,1,3,7,2,12,4,2953,0,0.7271218,10.40077,3.893047,-1
22,M,1,1,3,8,3,9,1,1631,0,0.2234702,6.400108,1.905673,-1
22,M,1,1,3,9,4,11,3,2309,0,0.0928712,10.15043,0.5116726,-1
22,M,1,1,3,10,3,10,2,1276,0,0.4932706,6.531836,4.139099,-1
22,M,1,1,3,11,1,9,1,1498,0,0.2693606,6.404727,2.316804,-1
22,M,1,1,3,12,2,11,3,3153,0,0.793988,10.15454,4.324045,-1
22,M,1,1,3,13,4,9,1,1365,0,0.2412403,10.26905,1.314625,-1
22,M,1,1,3,14,4,10,2,1342,1,0.3230449,10.45211,1.714863,-1
22,M,1,1,3,15,4,12,4,3176,2,0.7262494,10.41351,3.883629,-1
22,M,1,1,3,16,2,10,2,2898,2,0.7549208,10.47737,4.005848,-1
22,M,1,1,4,1,3,15,3,3576,0,7.334206E-08,6.165627,0,-1
22,M,1,1,4,2,1,14,2,1575,0,0.4450438,6.531598,3.699729,-1
22,M,1,1,4,3,4,16,4,2942,1,0.8184111,10.37847,4.362017,-1
22,M,1,1,4,4,4,13,1,1831,0,0.4975659,10.26396,2.723474,-1
22,M,1,1,4,5,2,16,4,1931,0,0.7225064,10.40431,3.867005,-1
22,M,1,1,4,6,1,15,3,2765,0,0.1930055,6.148993,1.707773,-1
22,M,1,1,4,7,3,13,1,1487,0,0.3915459,6.428759,3.381188,-1
22,M,1,1,4,8,3,14,2,1831,1,0.469854,6.548239,3.95676,-1
22,M,1,1,4,9,3,16,4,2087,0,0.4011612,6.418394,3.452413,-1
22,M,1,1,4,10,4,15,3,3664,0,0.09214988,10.13491,0.508604,-1
22,M,1,1,4,11,2,14,2,1354,0,0.7616735,10.45622,4.027155,-1
22,M,1,1,4,12,2,13,1,1165,0,0.3536955,10.25741,1.932189,-1
22,M,1,1,4,13,1,16,4,4376,1,0.2760514,6.422078,2.373474,-1
22,M,1,1,4,14,4,14,2,3509,0,0.5554516,10.48233,2.942444,-1
22,M,1,1,4,15,2,15,3,2742,0,0.2320253,10.12312,1.284966,-1
22,M,1,1,4,16,1,13,1,1331,0,0.4199161,6.407805,3.624176,-1
22,M,1,1,5,1,2,19,3,2476,0,0.2848026,10.13365,1.565481,-1
22,M,1,1,5,2,3,20,4,2631,0,0.3121029,6.432653,2.689481,-1
22,M,1,1,5,3,2,17,1,976,0,0.07720882,10.26672,0.4182466,-1
22,M,1,1,5,4,1,18,2,1631,0,0.2093968,6.522882,1.747869,-1
22,M,1,1,5,5,1,17,1,1254,0,0.1033195,6.383832,0.8888945,-1
22,M,1,1,5,6,4,20,4,2520,0,0.796107,10.39751,4.264389,-1
22,M,1,1,5,7,1,19,3,1509,0,1.937686E-07,6.168282,0.01978234,-1
22,M,1,1,5,8,3,18,2,1476,1,0.2844557,6.521925,2.382035,-1
22,M,1,1,5,9,4,17,1,1742,0,4.518276E-08,10.29124,0,-1
22,M,1,1,5,10,4,19,3,4765,0,0.2586237,10.14253,1.419549,-1
22,M,1,1,5,11,2,18,2,1065,0,0.3832873,10.46993,2.032977,-1
22,M,1,1,5,12,2,20,4,2576,0,0.4952699,10.39032,2.64338,-1
22,M,1,1,5,13,3,17,1,1576,1,0.4083813,6.431385,3.491493,-1
22,M,1,1,5,14,4,18,2,2587,0,0.6063132,10.48026,3.216559,-1
22,M,1,1,5,15,1,20,4,1887,0,0.3668093,6.408394,3.161121,-1
22,M,1,1,5,16,3,19,3,2131,0,0.09924625,6.14551,0.8880135,-1
22,M,1,1,6,1,2,24,4,2298,0,0.5157186,10.39949,2.760453,-1
22,M,1,1,6,2,3,21,1,1565,0,0.255123,6.416534,2.187938,-1
22,M,1,1,6,3,1,22,2,1631,0,0.1673102,6.538438,1.404024,-1
22,M,1,1,6,4,1,24,4,1787,0,0.1753666,6.413251,1.502069,-1
22,M,1,1,6,5,4,22,2,3676,0,0.3513829,10.4718,1.866869,-1
22,M,1,1,6,6,2,23,3,1931,1,8.750178E-08,10.1342,0,-1
22,M,1,1,6,7,3,22,2,1154,0,0.2048958,6.545127,1.702953,-1
22,M,1,1,6,8,2,21,1,1087,0,0.645431,10.25284,3.546962,-1
22,M,1,1,6,9,1,23,3,2520,0,1.048872E-07,6.146095,0,-1
22,M,1,1,6,10,3,24,4,1754,0,0.1470678,6.415133,1.256009,-1
22,M,1,1,6,11,4,23,3,2709,0,0.1191709,10.1524,0.6552143,-1
22,M,1,1,6,12,4,21,1,1165,0,6.128379E-08,10.26933,0,-1
22,M,1,1,6,13,3,23,3,3198,0,0.1165674,6.171082,1.03344,-1
22,M,1,1,6,14,2,22,2,2154,0,0.5945883,10.47307,3.174778,-1
22,M,1,1,6,15,1,21,1,2831,0,0.3569638,6.404446,3.06848,-1
22,M,1,1,6,16,4,24,4,2020,0,0.2855132,10.4048,1.524954,-1
22,M,1,1,7,1,2,25,1,1154,0,0.4781028,10.24727,2.619951,-1
22,M,1,1,7,2,3,28,4,2731,2,0.3378199,6.420546,2.905758,-1
22,M,1,1,7,3,3,27,3,1865,0,9.880964E-08,6.176615,0,-1
22,M,1,1,7,4,4,26,2,1442,0,0.2279023,10.46445,1.213698,-1
22,M,1,1,7,5,1,25,1,1265,0,0.2129772,6.407051,1.808835,-1
22,M,1,1,7,6,2,26,2,865,0,0.7823063,10.46316,4.138578,-1
22,M,1,1,7,7,2,28,4,2264,0,0.6255553,10.41744,3.34328,-1
22,M,1,1,7,8,3,25,1,3698,0,5.194335E-08,6.436633,0,-1
22,M,1,1,7,9,1,26,2,1387,0,0.3103248,6.538639,2.58634,-1
22,M,1,1,7,10,4,25,1,1198,0,0.01896203,10.27474,0.1046783,-1
22,M,1,1,7,11,2,27,3,2565,0,1.853987E-07,10.13245,0,-1
22,M,1,1,7,12,1,28,4,1998,0,0.4483394,6.418362,3.858945,-1
22,M,1,1,7,13,3,26,2,4809,0,0.09487431,6.533995,0.796476,-1
22,M,1,1,7,14,1,27,3,2920,0,1.171089E-07,6.146575,0,-1
22,M,1,1,7,15,4,28,4,2142,0,0.4449848,10.38173,2.372484,-1
22,M,1,1,7,16,4,27,3,3686,0,0.0420095,10.13704,0.2315465,-1
22,M,1,1,8,1,3,30,2,1765,0,0.4679303,6.530261,3.927351,-1
22,M,1,1,8,2,3,32,4,3076,0,0.0345061,6.44282,0.2940859,-1
22,M,1,1,8,3,3,31,3,1942,0,0.3483324,6.147756,3.073261,-1
22,M,1,1,8,4,1,32,4,2576,0,0.2072266,6.416054,1.766357,-1
22,M,1,1,8,5,3,29,1,1576,0,2.183845E-07,6.378327,0,-1
22,M,1,1,8,6,4,30,2,1131,0,0.6031244,10.42593,3.197942,-1
22,M,1,1,8,7,4,29,1,1553,0,0.531637,10.25507,2.916248,-1
22,M,1,1,8,8,4,31,3,1853,0,3.231372E-08,10.12259,0,-1
22,M,1,1,8,9,1,29,1,1276,0,0.1736759,6.388899,1.478829,-1
22,M,1,1,8,10,4,32,4,1142,0,0.2483417,10.38489,1.330751,-1
22,M,1,1,8,11,2,29,1,987,0,0.2100284,10.24242,1.140381,-1
22,M,1,1,8,12,1,30,2,1442,0,0.305748,6.520195,2.537751,-1
22,M,1,1,8,13,2,32,4,1987,1,0.8892513,10.38585,4.769578,-1
22,M,1,1,8,14,1,31,3,1520,0,0.07435583,6.133136,0.6655847,-1
22,M,1,1,8,15,2,30,2,1409,0,0.4392702,10.45409,2.330954,-1
22,M,1,1,8,16,2,31,3,1920,0,0.06718387,10.12707,0.3700944,-1
22,M,1,1,9,1,2,36,4,2198,0,0.6479937,10.38388,3.474291,-1
22,M,1,1,9,2,1,33,1,2998,0,0.144393,6.386174,1.232894,-1
22,M,1,1,9,3,2,35,3,2465,0,1.870988E-08,10.12591,0,-1
22,M,1,1,9,4,3,36,4,2820,0,0.1785384,6.414578,1.532379,-1
22,M,1,1,9,5,3,33,1,1631,0,0.0782935,6.426844,0.6691033,-1
22,M,1,1,9,6,1,36,4,2054,0,0.2110844,6.414383,1.811537,-1
22,M,1,1,9,7,3,35,3,2176,0,0.02606121,6.149643,0.23239,-1
22,M,1,1,9,8,3,34,2,1543,0,0.2025718,6.549528,1.704562,-1
22,M,1,1,9,9,1,35,3,1865,0,0.2116535,6.128185,1.901046,-1
22,M,1,1,9,10,2,34,2,1265,0,0.4712086,10.45422,2.499202,-1
22,M,1,1,9,11,2,33,1,1520,0,0.730692,10.24863,4.008487,-1
22,M,1,1,9,12,4,35,3,1598,0,0.1447723,10.14547,0.800886,-1
22,M,1,1,9,13,1,34,2,2342,0,0.4470818,6.528807,3.75984,-1
22,M,1,1,9,14,4,33,1,1420,0,0.2696978,10.25057,1.475384,-1
22,M,1,1,9,15,4,34,2,1265,1,0.5228289,10.43304,2.772976,-1
22,M,1,1,9,16,4,36,4,3065,0,0.6214751,10.35765,3.314225,-1
22,M,1,1,10,1,3,39,3,2209,0,0.007015782,6.134532,0.06255726,-1
22,M,1,1,10,2,2,40,4,2498,1,0.7519042,10.38081,4.033472,-1
22,M,1,1,10,3,4,38,2,1465,0,0.4472761,10.46719,2.372319,-1
22,M,1,1,10,4,3,40,4,1531,0,0.4540175,6.412499,3.902091,-1
22,M,1,1,10,5,3,37,1,1265,0,0.2610248,6.403043,2.229848,-1
22,M,1,1,10,6,2,38,2,987,0,0.2187246,10.46203,1.163988,-1
22,M,1,1,10,7,4,37,1,2809,0,0.509664,10.26427,2.773046,-1
22,M,1,1,10,8,3,38,2,1665,0,0.3327385,6.551642,2.803375,-1
22,M,1,1,10,9,4,39,3,2731,0,0.03306875,10.13269,0.1813082,-1
22,M,1,1,10,10,1,40,4,3198,2,0.4743747,6.411526,4.046318,-1
22,M,1,1,10,11,2,39,3,1865,0,0.3772363,10.12176,2.088067,-1
22,M,1,1,10,12,2,37,1,998,0,0.5791417,10.24732,3.132441,-1
22,M,1,1,10,13,4,40,4,1198,0,0.600423,10.37339,3.212052,-1
22,M,1,1,10,14,1,37,1,1153,0,0.4203971,6.398918,3.633565,-1
22,M,1,1,10,15,1,39,3,2387,0,9.700172E-08,6.132503,0,-1
22,M,1,1,10,16,1,38,2,1409,0,0.03289438,6.541232,0.2741124,-1
22,M,1,1,11,1,3,44,4,6465,0,1.130412E-07,6.442662,0,-1
22,M,1,1,11,2,3,42,2,1298,0,0.2658349,6.555112,2.215937,-1
22,M,1,1,11,3,2,43,3,2165,0,0.5546749,10.10431,3.037187,-1
22,M,1,1,11,4,2,41,1,1031,0,0.5376033,10.26291,2.891576,-1
22,M,1,1,11,5,4,42,2,1831,2,0.36535,10.47238,1.94078,-1
22,M,1,1,11,6,2,44,4,2620,0,2.689646E-07,10.38251,0,-1
22,M,1,1,11,7,3,41,1,1631,0,0.3860982,6.401158,3.326902,-1
22,M,1,1,11,8,1,42,2,1498,0,0.224874,6.543331,1.876906,-1
22,M,1,1,11,9,4,44,4,1865,0,0.4881521,10.36963,2.60812,-1
22,M,1,1,11,10,1,41,1,1365,0,0.3419966,6.416904,2.941179,-1
22,M,1,1,11,11,3,43,3,3242,0,0.2382447,6.108052,2.162384,-1
22,M,1,1,11,12,1,44,4,1909,0,0.3005208,6.390489,2.596311,-1
22,M,1,1,11,13,1,43,3,2187,0,0.07198304,6.107745,0.6431577,-1
22,M,1,1,11,14,2,42,2,1609,0,0.3381036,10.46049,1.818976,-1
22,M,1,1,11,15,4,43,3,3176,0,0.2121877,10.11439,1.178358,-1
22,M,1,1,11,16,4,41,1,3954,0,0.1479099,10.26983,0.8101172,-1
22,M,1,1,12,1,3,48,4,5731,0,2.69147E-07,6.399552,0,-1
22,M,1,1,12,2,3,45,1,1487,0,0.1152743,6.415815,0.985562,-1
22,M,1,1,12,3,2,47,3,2631,0,0.2209059,10.12072,1.223973,-1
22,M,1,1,12,4,2,46,2,1187,0,0.6605557,10.4632,3.492558,-1
22,M,1,1,12,5,1,47,3,2209,0,0.2881648,6.103937,2.62607,-1
22,M,1,1,12,6,2,45,1,1231,0,0.8320009,10.26526,4.53393,-1
22,M,1,1,12,7,4,48,4,3331,2,0.3828971,10.34308,2.045836,-1
22,M,1,1,12,8,4,47,3,2965,0,0.4812916,10.10374,2.680733,-1
22,M,1,1,12,9,4,46,2,1131,0,0.5371377,10.45035,2.847645,-1
22,M,1,1,12,10,4,45,1,1464,0,0.215264,10.25353,1.163988,-1
22,M,1,1,12,11,2,48,4,2142,1,0.3552513,10.38277,1.902384,-1
22,M,1,1,12,12,1,46,2,1676,0,0.3605081,6.339499,3.120419,-1
22,M,1,1,12,13,1,45,1,1476,0,0.3388881,6.356739,2.940647,-1
22,M,1,1,12,14,1,48,4,1720,0,0.214794,6.274615,1.849914,-1
22,M,1,1,12,15,3,46,2,676,0,0.210355,6.337112,1.802223,-1
22,M,1,1,12,16,3,47,3,2920,0,7.678027E-08,6.13778,0.01978234,-1
22,M,1,1,13,1,4,50,2,1131,1,0.7150488,10.44137,3.804159,-1
22,M,1,1,13,2,2,49,1,1098,0,0.3884093,10.22256,2.095925,-1
22,M,1,1,13,3,3,52,4,2098,0,0.182028,6.396001,1.565231,-1
22,M,1,1,13,4,1,49,1,1331,0,0.1327673,6.362702,1.146201,-1
22,M,1,1,13,5,4,51,3,2176,0,1.593241E-07,10.13482,0,-1
22,M,1,1,13,6,4,52,4,1587,0,0.5375309,10.34592,2.872081,-1
22,M,1,1,13,7,4,49,1,1265,0,0.1695287,10.23183,0.9261956,-1
22,M,1,1,13,8,3,51,3,3053,0,1.503698E-07,6.102086,0,-1
22,M,1,1,13,9,2,50,2,1031,0,0.2812355,10.44104,1.497894,-1
22,M,1,1,13,10,2,52,4,1854,0,0.8163112,10.35637,4.389544,-1
22,M,1,1,13,11,2,51,3,2042,0,0.5674812,10.08923,3.144542,-1
22,M,1,1,13,12,3,49,1,4142,0,0.2350835,6.432547,2.008571,-1
22,M,1,1,13,13,3,50,2,1954,2,0.2169046,6.531181,1.814236,-1
22,M,1,1,13,14,1,51,3,1931,0,0.1841099,6.092109,1.66906,-1
22,M,1,1,13,15,1,50,2,1387,0,0.2330917,6.51467,1.963637,-1
22,M,1,1,13,16,1,52,4,2109,0,0.06930213,6.386373,0.5974163,-1
22,M,1,1,14,1,2,54,2,1276,0,0.4977972,10.43575,2.644417,-1
22,M,1,1,14,2,2,53,1,1354,0,0.3203268,10.21913,1.746076,-1
22,M,1,1,14,3,2,56,4,1753,0,0.1007968,10.36259,0.5417637,-1
22,M,1,1,14,4,3,53,1,3031,0,0.03066818,6.369116,0.2639296,-1
22,M,1,1,14,5,3,55,3,3476,0,6.928355E-08,6.105673,0,-1
22,M,1,1,14,6,4,56,4,1731,0,4.534819E-08,10.34105,0,-1
22,M,1,1,14,7,4,54,2,998,0,0.4672157,10.42062,2.481676,-1
22,M,1,1,14,8,4,55,3,1876,0,0.2793925,10.10615,1.540658,-1
22,M,1,1,14,9,1,56,4,2009,0,5.864378E-08,6.399551,0,-1
22,M,1,1,14,10,1,55,3,1554,0,7.672154E-08,6.121426,0,-1
22,M,1,1,14,11,4,53,1,1665,0,0.3254238,10.24723,1.760142,-1
22,M,1,1,14,12,1,54,2,2264,0,0.1730364,6.516858,1.443065,-1
22,M,1,1,14,13,2,55,3,2409,0,0.3627408,10.11099,1.987708,-1
22,M,1,1,14,14,3,56,4,1965,0,0.1339932,6.398843,1.151141,-1
22,M,1,1,14,15,1,53,1,1287,0,0.1821176,6.386557,1.551417,-1
22,M,1,1,14,16,3,54,2,1398,0,0.2628697,6.508457,2.205845,-1
22,M,1,1,15,1,3,57,1,1309,0,0.3482726,6.376085,3.014218,-1
22,M,1,1,15,2,1,60,4,3198,0,0.1093695,6.433396,0.922597,-1
22,M,1,1,15,3,2,59,3,2154,0,0.05969816,10.114,0.3292442,-1
22,M,1,1,15,4,4,57,1,1431,0,0.5046656,10.23988,2.768172,-1
22,M,1,1,15,5,3,59,3,2787,0,0.1525354,6.135963,1.358979,-1
22,M,1,1,15,6,2,57,1,1498,0,0.8772985,10.2387,4.734207,-1
22,M,1,1,15,7,3,60,4,2431,1,0.518969,6.408021,4.478466,-1
22,M,1,1,15,8,4,58,2,1698,0,0.2988522,10.44825,1.591393,-1
22,M,1,1,15,9,4,59,3,4565,0,3.007645E-08,10.09873,0,-1
22,M,1,1,15,10,1,57,1,1298,0,0.2643706,6.40601,2.274516,-1
22,M,1,1,15,11,3,58,2,1598,2,0.1361981,6.5766,1.136772,-1
22,M,1,1,15,12,2,60,4,2698,0,0.4191563,10.40069,2.240094,-1
22,M,1,1,15,13,2,58,2,1287,0,0.5958525,10.47692,3.148773,-1
22,M,1,1,15,14,1,59,3,1731,0,0.0778426,6.147795,0.6906884,-1
22,M,1,1,15,15,4,60,4,2664,0,0.8598595,10.37402,4.599938,-1
22,M,1,1,15,16,1,58,2,1520,0,0.246202,6.552545,2.062035,-1
22,M,1,1,16,1,1,63,3,2087,0,1.264962E-07,6.148176,0,-1
22,M,1,1,16,2,3,62,2,1220,0,0.1370452,6.549021,1.137116,-1
22,M,1,1,16,3,3,61,1,1176,0,4.715768E-08,6.439598,0,-1
22,M,1,1,16,4,4,63,3,2265,0,0.2391516,10.12376,1.330457,-1
22,M,1,1,16,5,3,64,4,5009,0,0.4707181,6.422607,4.032112,-1
22,M,1,1,16,6,2,63,3,3442,0,0.363758,10.1353,1.993018,-1
22,M,1,1,16,7,2,64,4,2075,0,0.3124026,10.40389,1.671052,-1
22,M,1,1,16,8,4,62,2,1453,0,0.2517247,10.47731,1.337059,-1
22,M,1,1,16,9,4,64,4,1665,0,0.4746526,10.3882,2.53505,-1
22,M,1,1,16,10,1,62,2,1898,1,0.4937137,6.548299,4.140944,-1
22,M,1,1,16,11,1,61,1,1509,0,0.2095395,6.401362,1.801136,-1
22,M,1,1,16,12,1,64,4,1487,0,0.3887116,6.450927,3.317237,-1
22,M,1,1,16,13,4,61,1,1120,0,0.4474558,10.27233,2.433572,-1
22,M,1,1,16,14,3,63,3,1953,0,0.07718229,6.134369,0.6909717,-1
22,M,1,1,16,15,2,61,1,1065,0,0.4323667,10.2581,2.364799,-1
22,M,1,1,16,16,2,62,2,998,0,0.6057113,10.46586,3.206989,-1
22,M,1,1,17,1,1,68,4,1776,0,0.4361666,6.439365,3.74251,-1
22,M,1,1,17,2,2,67,3,2587,0,2.253545E-07,10.14736,0,-1
22,M,1,1,17,3,1,66,2,2053,1,0.001778013,6.529135,0,-1
22,M,1,1,17,4,4,65,1,1198,0,0.02092655,10.263,0.1119058,-1
22,M,1,1,17,5,3,68,4,2065,0,0.2559751,6.434263,2.160845,-1
22,M,1,1,17,6,3,67,3,2209,0,0.02399752,6.173729,0.2130625,-1
22,M,1,1,17,7,3,65,1,1187,0,0.1639268,6.397763,1.408477,-1
22,M,1,1,17,8,4,66,2,1487,0,0.2340543,10.49148,1.246469,-1
22,M,1,1,17,9,4,67,3,2598,0,0.1388601,10.12312,0.7692311,-1
22,M,1,1,17,10,4,68,4,1498,0,0.8604712,10.39058,4.598192,-1
22,M,1,1,17,11,2,66,2,1298,1,0.5910344,10.47505,3.12393,-1
22,M,1,1,17,12,2,65,1,1198,0,0.5186344,10.26075,2.840211,-1
22,M,1,1,17,13,2,68,4,1554,0,0.3269468,10.40747,1.745067,-1
22,M,1,1,17,14,3,66,2,1220,0,0.1913915,6.551906,1.589547,-1
22,M,1,1,17,15,1,65,1,1776,1,0.2942992,6.38479,2.540063,-1
22,M,1,1,17,16,1,67,3,1920,0,0.2338609,6.139854,2.104033,-1
22,M,1,1,18,1,3,72,4,1898,0,0.1273784,6.426641,1.087146,-1
22,M,1,1,18,2,3,70,2,1809,0,0.377749,6.525758,3.17157,-1
22,M,1,1,18,3,2,72,4,1131,0,0.3857747,10.40481,2.058235,-1
22,M,1,1,18,4,2,69,1,1054,0,0.2898662,10.2661,1.580658,-1
22,M,1,1,18,5,3,71,3,2965,0,0.2486787,6.162418,2.250989,-1
22,M,1,1,18,6,4,69,1,998,0,0.7645177,10.25943,4.1954,-1
22,M,1,1,18,7,4,70,2,1065,0,0.4939869,10.48719,2.618606,-1
22,M,1,1,18,8,1,69,1,1420,0,0.2809827,6.389482,2.422528,-1
22,M,1,1,18,9,2,70,2,1331,0,0.3915231,10.47869,2.074337,-1
22,M,1,1,18,10,4,72,4,1776,0,0.7553971,10.37861,4.018441,-1
22,M,1,1,18,11,3,69,1,1398,0,0.1926812,6.397269,1.655876,-1
22,M,1,1,18,12,4,71,3,1754,0,0.3258604,10.12726,1.80168,-1
22,M,1,1,18,13,1,72,4,1976,0,0.2471136,6.428705,2.122371,-1
22,M,1,1,18,14,2,71,3,2476,0,0.2449353,10.13651,1.344939,-1
22,M,1,1,18,15,1,70,2,1465,0,0.2320003,6.53572,1.923968,-1
22,M,1,1,18,16,1,71,3,1720,0,0.06637351,6.146258,0.5928131,-1
22,M,1,1,19,1,3,73,1,1154,0,0.2648625,6.381629,2.28773,-1
22,M,1,1,19,2,2,76,4,865,0,0.4356858,10.39946,2.331877,-1
22,M,1,1,19,3,1,74,2,1243,0,0.4609658,6.51228,3.832672,-1
22,M,1,1,19,4,2,75,3,3020,0,0.2033189,10.12584,1.116275,-1
22,M,1,1,19,5,2,74,2,920,0,0.3974207,10.46313,2.110905,-1
22,M,1,1,19,6,3,76,4,2798,0,0.3095358,6.425097,2.601206,-1
22,M,1,1,19,7,3,75,3,5542,0,7.646429E-08,6.174421,0,-1
22,M,1,1,19,8,4,74,2,4309,0,0.8804347,10.48536,4.671309,-1
22,M,1,1,19,9,4,76,4,2609,1,0.3005238,10.38442,1.599977,-1
22,M,1,1,19,10,4,73,1,1231,0,0.2325751,10.28714,1.256943,-1
22,M,1,1,19,11,1,75,3,1887,0,0.08412524,6.135265,0.7486043,-1
22,M,1,1,19,12,1,73,1,1342,0,0.3267866,6.391221,2.819945,-1
22,M,1,1,19,13,3,74,2,1987,0,0.4344537,6.524716,3.594829,-1
22,M,1,1,19,14,4,75,3,9999,0,-1,-1,-1,-1
22,M,1,1,19,15,1,76,4,4209,1,0.4128147,6.419773,3.545139,-1
22,M,1,1,19,16,2,73,1,1309,0,0.4017707,10.2694,2.193745,-1
22,M,1,1,20,1,1,78,2,1865,0,0.4220462,6.543248,3.541382,-1
22,M,1,1,20,2,4,77,1,1298,0,0.5744656,10.2972,3.149271,-1
22,M,1,1,20,3,4,79,3,1553,0,0.05917608,10.13783,0.3256589,-1
22,M,1,1,20,4,4,78,2,2142,0,0.3051547,10.48037,1.618825,-1
22,M,1,1,20,5,3,77,1,5232,0,7.226517E-08,6.364407,0,-1
22,M,1,1,20,6,2,78,2,1142,0,0.3817017,10.45979,2.025937,-1
22,M,1,1,20,7,2,80,4,1576,0,0.6833397,10.39923,3.658804,-1
22,M,1,1,20,8,1,77,1,1353,0,0.1044286,6.387324,0.8959111,-1
22,M,1,1,20,9,3,79,3,5531,0,7.012171E-08,6.137836,0,-1
22,M,1,1,20,10,3,78,2,2120,0,1.497892E-07,6.542263,0,-1
22,M,1,1,20,11,4,80,4,1598,0,0.2073751,10.38455,1.108535,-1
22,M,1,1,20,12,2,77,1,1276,0,0.4761808,10.25187,2.618307,-1
22,M,1,1,20,13,2,79,3,1520,0,1.033016E-07,10.13785,0,-1
22,M,1,1,20,14,1,80,4,1709,0,0.0650944,6.430941,0.5503638,-1
22,M,1,1,20,15,1,79,3,1554,0,0.4401103,6.146225,3.9965,-1
22,M,1,1,20,16,3,80,4,2742,0,0.2052532,6.439283,1.766468,-1
22,M,1,1,21,1,2,81,1,1076,0,0.3722223,10.3001,2.012756,-1
22,M,1,1,21,2,4,83,3,1309,0,0.04483048,10.19083,0.2454926,-1
22,M,1,1,21,3,4,82,2,4553,0,0.659957,10.50248,3.56612,-1
22,M,1,1,21,4,2,84,4,1654,0,0.836189,10.41659,4.471331,-1
22,M,1,1,21,5,1,81,1,1298,0,0.3266969,6.466898,2.751219,-1
22,M,1,1,21,6,1,82,2,3353,0,0.4160967,6.609739,3.421023,-1
22,M,1,1,21,7,3,81,1,1342,0,0.2640846,6.445282,2.253944,-1
22,M,1,1,21,8,2,82,2,1187,1,0.7966335,10.49764,4.226329,-1
22,M,1,1,21,9,3,84,4,2654,0,0.2701147,6.469938,2.257588,-1
22,M,1,1,21,10,1,83,3,1409,0,0.1532468,6.150111,1.373873,-1
22,M,1,1,21,11,3,82,2,1298,0,0.2338974,6.597506,1.94883,-1
22,M,1,1,21,12,4,81,1,1609,0,0.4695785,10.32725,2.524837,-1
22,M,1,1,21,13,2,83,3,3131,0,0.7585458,10.15947,4.228136,-1
22,M,1,1,21,14,4,84,4,4087,0,0.3059922,10.41581,1.651972,-1
22,M,1,1,21,15,3,83,3,2275,0,9.912625E-08,6.171797,0,-1
22,M,1,1,21,16,1,84,4,1942,0,1.415218E-07,6.459148,0,-1
22,M,1,1,22,1,4,86,2,2298,0,0.552627,10.51017,2.923355,-1
22,M,1,1,22,2,2,85,1,1142,0,0.772049,10.28548,4.143544,-1
22,M,1,1,22,3,3,87,3,3331,0,1.667723E-07,6.200507,0,-1
22,M,1,1,22,4,2,88,4,1920,0,0.7190536,10.41793,3.843539,-1
22,M,1,1,22,5,2,86,2,1498,1,0.7383679,10.49407,3.913365,-1
22,M,1,1,22,6,3,85,1,4854,0,0.3161417,6.448984,2.682923,-1
22,M,1,1,22,7,2,87,3,2142,0,0.3932639,10.14345,2.15095,-1
22,M,1,1,22,8,3,88,4,3042,0,0.1575709,6.433161,1.349732,-1
22,M,1,1,22,9,4,85,1,1409,0,0.318698,10.29315,1.737537,-1
22,M,1,1,22,10,4,87,3,2454,0,0.2356126,10.14672,1.301159,-1
22,M,1,1,22,11,3,86,2,1520,0,0.2050804,6.557796,1.708231,-1
22,M,1,1,22,12,4,88,4,2065,0,0.7438496,10.41193,3.966103,-1
22,M,1,1,22,13,1,87,3,2187,0,0.1538046,6.152703,1.373019,-1
22,M,1,1,22,14,1,86,2,1309,0,0.5143155,6.563698,4.303932,-1
22,M,1,1,22,15,1,88,4,2298,0,0.1803921,6.438233,1.517751,-1
22,M,1,1,22,16,1,85,1,1465,0,0.4571998,6.423622,3.884688,-1
22,M,1,1,23,1,3,92,4,1854,0,0.1963993,6.455184,1.685976,-1
22,M,1,1,23,2,4,89,1,2209,0,0.2717108,10.33028,1.463131,-1
22,M,1,1,23,3,4,92,4,1531,0,0.6633086,10.40343,3.507606,-1
22,M,1,1,23,4,2,90,2,976,0,0.2355247,10.50612,1.248038,-1
22,M,1,1,23,5,3,91,3,1598,0,1.751716E-07,6.180533,0,-1
22,M,1,1,23,6,1,92,4,2876,0,7.049987E-08,6.441463,0,-1
22,M,1,1,23,7,3,89,1,2498,2,0.02389409,6.459629,0.2027088,-1
22,M,1,1,23,8,4,90,2,2209,0,0.4672005,10.50495,2.470926,-1
22,M,1,1,23,9,2,91,3,2076,0,0.02500398,10.16256,0.1370561,-1
22,M,1,1,23,10,1,89,1,1476,0,0.04653129,6.424685,0.3961419,-1
22,M,1,1,23,11,2,92,4,1476,0,0.06930611,10.42667,0.3700944,-1
22,M,1,1,23,12,3,90,2,1165,0,0.3602966,6.562195,2.999896,-1
22,M,1,1,23,13,1,91,3,1709,0,1.028296E-07,6.174028,0,-1
22,M,1,1,23,14,2,89,1,1109,0,0.2630513,10.28818,1.430808,-1
22,M,1,1,23,15,1,90,2,2020,2,0.0836788,6.569428,0.6991359,-1
22,M,1,1,23,16,4,91,3,2265,0,1.576073E-07,10.17261,0,-1
22,M,1,1,24,1,1,93,1,1243,0,0.1878832,6.422613,1.608881,-1
22,M,1,1,24,2,2,94,2,1031,0,0.5184752,10.50062,2.738883,-1
22,M,1,1,24,3,1,96,4,5820,0,2.138703E-07,6.442714,0,-1
22,M,1,1,24,4,2,93,1,1043,0,0.1774411,10.28902,0.9640834,-1
22,M,1,1,24,5,4,94,2,776,0,0.6975842,10.51604,3.689182,-1
22,M,1,1,24,6,4,93,1,998,0,0.2099721,10.30202,1.140038,-1
22,M,1,1,24,7,1,94,2,1109,0,0.351583,6.576076,2.93525,-1
22,M,1,1,24,8,1,95,3,1787,0,0.03854003,6.173072,0.3414966,-1
22,M,1,1,24,9,2,96,4,1620,0,0.5398182,10.43758,2.879228,-1
22,M,1,1,24,10,3,94,2,1209,0,0.5494344,6.562663,4.599427,-1
22,M,1,1,24,11,3,96,4,2220,0,1.121946E-07,6.432384,0,-1
22,M,1,1,24,12,3,95,3,3642,0,0.1092476,6.180553,0.9735762,-1
22,M,1,1,24,13,4,96,4,2498,0,0.156422,10.42997,0.8388348,-1
22,M,1,1,24,14,2,95,3,2342,0,0.07077045,10.15574,0.3901695,-1
22,M,1,1,24,15,3,93,1,1676,0,0.07402945,6.451911,0.6314908,-1
22,M,1,1,24,16,4,95,3,1931,0,2.254831E-07,10.1578,0,-1
22,M,1,1,25,1,3,97,1,1787,1,0.04180568,6.431424,0.3560827,-1
22,M,1,1,25,2,1,98,2,1309,0,0.3438559,6.565967,2.875078,-1
22,M,1,1,25,3,2,97,1,1365,1,0.1723523,10.28598,0.9356545,-1
22,M,1,1,25,4,1,99,3,2243,0,0.09695819,6.172309,0.8638874,-1
22,M,1,1,25,5,3,98,2,1587,0,2.104171E-07,6.568566,0,-1
22,M,1,1,25,6,3,99,3,2087,0,0.2662856,6.186259,2.404443,-1
22,M,1,1,25,7,3,100,4,2554,0,0.3013855,6.436024,2.581568,-1
22,M,1,1,25,8,4,99,3,2820,0,4.132573E-08,10.14064,0,-1
22,M,1,1,25,9,2,100,4,1643,0,0.308986,10.43216,1.6458,-1
22,M,1,1,25,10,2,98,2,1654,0,0.5382424,10.50939,2.837798,-1
22,M,1,1,25,11,4,100,4,2331,0,0.1319555,10.40879,0.7035998,-1
22,M,1,1,25,12,1,97,1,1376,0,0.2666714,6.440338,2.25377,-1
22,M,1,1,25,13,4,98,2,4665,0,0.4401664,10.51328,2.363474,-1
22,M,1,1,25,14,2,99,3,1954,0,0.318244,10.15183,1.761475,-1
22,M,1,1,25,15,4,97,1,1120,0,0.3307762,10.36347,1.784983,-1
22,M,1,1,25,16,1,100,4,1498,0,0.3016137,6.578559,2.479387,-1
22,M,1,1,26,1,3,103,3,2009,0,0.2410726,6.306662,2.085816,-1
22,M,1,1,26,2,3,102,2,1242,0,0.01008662,6.622351,0.08156469,-1
22,M,1,1,26,3,2,104,4,1465,0,0.5341224,10.57789,2.812229,-1
22,M,1,1,26,4,2,101,1,1120,0,0.4478337,10.37621,2.432285,-1
22,M,1,1,26,5,4,102,2,6153,0,0.4293478,10.60297,2.250554,-1
22,M,1,1,26,6,3,101,1,1209,0,1.988996E-07,6.473244,0,-1
22,M,1,1,26,7,4,103,3,1965,0,0.03426356,10.27034,0.1845175,-1
22,M,1,1,26,8,4,104,4,1776,0,0.1859107,10.52016,0.9793876,-1
22,M,1,1,26,9,2,103,3,1809,0,0.2422838,10.17798,1.329132,-1
22,M,1,1,26,10,1,102,2,4254,0,0.3739427,6.589993,3.11571,-1
22,M,1,1,26,11,1,101,1,1165,0,0.258249,6.445319,2.18077,-1
22,M,1,1,26,12,1,103,3,1809,0,0.2314415,6.185558,2.073393,-1
22,M,1,1,26,13,1,104,4,2031,0,0.01698743,6.467911,0.1426525,-1
22,M,1,1,26,14,4,101,1,1943,1,0.5315878,10.30227,2.910469,-1
22,M,1,1,26,15,3,104,4,2242,0,0.4862317,6.458495,4.143639,-1
22,M,1,1,26,16,2,102,2,1298,0,0.5146626,10.50871,2.721317,-1
22,M,1,1,27,1,4,105,1,1176,0,0.5795889,10.28351,3.172928,-1
22,M,1,1,27,2,1,107,3,1887,0,0.2160901,6.170895,1.939569,-1
22,M,1,1,27,3,3,105,1,3920,0,0.07737552,6.464338,0.6596788,-1
22,M,1,1,27,4,1,106,2,1087,0,0.4734164,6.57243,3.954433,-1
22,M,1,1,27,5,2,108,4,2087,0,0.5567848,10.4397,2.956249,-1
22,M,1,1,27,6,2,106,2,1398,0,0.7957796,10.51885,4.238037,-1
22,M,1,1,27,7,1,105,1,1276,0,1.716648E-07,6.426209,0,-1
22,M,1,1,27,8,4,108,4,3109,2,0.6289001,10.46058,3.331078,-1
22,M,1,1,27,9,3,106,2,5087,5,0.2740953,6.549623,2.276151,-1
22,M,1,1,27,10,2,107,3,2898,0,0.2290647,10.15948,1.26424,-1
22,M,1,1,27,11,3,108,4,2331,0,0.4692493,6.478175,3.937013,-1
22,M,1,1,27,12,2,105,1,1131,0,0.5413186,10.27485,2.93565,-1
22,M,1,1,27,13,4,107,3,9999,0,-1,-1,-1,-1
22,M,1,1,27,14,1,108,4,3465,0,0.1739097,6.465404,1.458174,-1
22,M,1,1,27,15,3,107,3,2765,0,6.020337E-08,6.226936,0,-1
22,M,1,1,27,16,4,106,2,931,0,0.7625038,10.52896,4.028273,-1
22,M,1,1,28,1,1,112,4,3176,0,0.5131783,6.493854,4.256344,-1
22,M,1,1,28,2,3,109,1,1453,0,0.2433152,6.408587,2.087504,-1
22,M,1,1,28,3,3,111,3,1942,1,0.1372674,6.167742,1.22621,-1
22,M,1,1,28,4,1,110,2,2487,3,0.5242124,6.544859,4.398949,-1
22,M,1,1,28,5,2,109,1,1031,0,0.3594116,10.27073,1.960744,-1
22,M,1,1,28,6,2,112,4,1931,0,0.7964364,10.4513,4.29546,-1
22,M,1,1,28,7,3,110,2,4176,2,0.5094327,6.606092,4.237806,-1
22,M,1,1,28,8,4,111,3,2242,0,0.5238243,10.18689,2.913495,-1
22,M,1,1,28,9,4,109,1,1820,1,0.4528749,10.27192,2.474251,-1
22,M,1,1,28,10,3,112,4,1975,0,0.3585724,6.443909,3.068799,-1
22,M,1,1,28,11,2,110,2,1243,1,0.8437585,10.49526,4.451267,-1
22,M,1,1,28,12,4,112,4,3253,0,0.5065404,10.4441,2.689409,-1
22,M,1,1,28,13,2,111,3,2409,0,0.6080393,10.16486,3.372375,-1
22,M,1,1,28,14,1,109,1,1620,0,0.2650472,6.425049,2.271761,-1
22,M,1,1,28,15,1,111,3,1909,0,0.2063441,6.170618,1.840581,-1
22,M,1,1,28,16,4,110,2,1198,0,0.6245536,10.53118,3.284616,-1
22,M,1,1,29,1,3,113,1,1265,0,0.2257503,6.452884,1.934417,-1
22,M,1,1,29,2,2,114,2,1165,0,0.7948899,10.51905,4.183807,-1
22,M,1,1,29,3,2,115,3,2798,0,0.1856953,10.1723,1.025457,-1
22,M,1,1,29,4,4,116,4,2020,0,0.8315266,10.43428,4.406289,-1
22,M,1,1,29,5,3,114,2,1465,1,0.5256207,6.626173,4.349066,-1
22,M,1,1,29,6,4,115,3,6587,0,0.1864715,10.18477,1.028315,-1
22,M,1,1,29,7,1,113,1,1365,0,0.2446849,6.428531,2.071599,-1
22,M,1,1,29,8,3,115,3,1876,0,0.2278103,6.159719,2.048895,-1
22,M,1,1,29,9,3,116,4,3020,0,0.5352569,6.501139,4.532849,-1
22,M,1,1,29,10,2,113,1,1242,0,0.2734872,10.31157,1.478961,-1
22,M,1,1,29,11,1,115,3,2242,0,0.1257753,6.174395,1.12187,-1
22,M,1,1,29,12,1,116,4,1754,0,0.268653,6.478401,2.257848,-1
22,M,1,1,29,13,4,113,1,1131,0,0.4839581,10.25176,2.606093,-1
22,M,1,1,29,14,1,114,2,1798,2,0.3553122,6.571074,2.968804,-1
22,M,1,1,29,15,2,116,4,1520,0,0.4973255,10.43268,2.653801,-1
22,M,1,1,29,16,4,114,2,1476,2,0.2524835,10.49283,1.336766,-1
22,M,1,1,30,1,1,120,4,1531,0,0.3515451,6.44925,3.010644,-1
22,M,1,1,30,2,4,117,1,1042,0,0.4771149,10.29577,2.573366,-1
22,M,1,1,30,3,3,118,2,1487,0,0.2490029,6.577351,2.050518,-1
22,M,1,1,30,4,2,117,1,1353,1,0.5260581,10.29169,2.872626,-1
22,M,1,1,30,5,2,119,3,2520,0,0.2743034,10.16471,1.514653,-1
22,M,1,1,30,6,4,120,4,2375,0,0.2068019,10.43234,1.100918,-1
22,M,1,1,30,7,4,118,2,1532,0,5.552104E-08,10.49922,0,-1
22,M,1,1,30,8,1,117,1,2909,0,0.3519254,6.43968,2.975522,-1
22,M,1,1,30,9,3,120,4,3509,0,0.298214,6.467218,2.535821,-1
22,M,1,1,30,10,1,119,3,2187,0,0.003086907,6.173425,0.03426402,-1
22,M,1,1,30,11,2,118,2,965,0,0.7515398,10.52561,3.952848,-1
22,M,1,1,30,12,2,120,4,2098,0,0.09028041,10.45313,0.4813265,-1
22,M,1,1,30,13,4,119,3,1776,0,0.3731248,10.18388,2.06251,-1
22,M,1,1,30,14,1,118,2,1742,0,0.2688779,6.583375,2.241841,-1
22,M,1,1,30,15,3,119,3,2487,0,0.3002437,6.181725,2.708844,-1
22,M,1,1,30,16,3,117,1,3176,0,0.5131047,6.436741,4.40064,-1
22,M,1,1,1,1,7,1,1,3831,0,-1,-1,-1,0
22,M,1,1,1,2,6,4,4,2676,0,-1,-1,-1,0
22,M,1,1,1,3,7,2,2,3898,0,-1,-1,-1,0
22,M,1,1,1,4,5,1,1,6420,0,-1,-1,-1,0
22,M,1,1,1,5,8,4,4,2509,0,-1,-1,-1,0
22,M,1,1,1,6,6,3,3,7142,0,-1,-1,-1,1
22,M,1,1,1,7,8,2,2,2009,0,-1,-1,-1,0
22,M,1,1,1,8,5,4,4,8109,0,-1,-1,-1,1
22,M,1,1,1,9,5,3,3,2053,0,-1,-1,-1,0
22,M,1,1,1,10,8,1,1,2887,0,-1,-1,-1,0
22,M,1,1,1,11,7,4,4,1365,0,-1,-1,-1,0
22,M,1,1,1,12,6,1,1,3464,0,-1,-1,-1,1
22,M,1,1,1,13,5,2,2,4298,0,-1,-1,-1,1
22,M,1,1,1,14,7,3,3,1331,0,-1,-1,-1,0
22,M,1,1,1,15,6,2,2,2131,0,-1,-1,-1,0
22,M,1,1,1,16,8,3,3,2031,0,-1,-1,-1,0
22,M,1,1,2,1,5,3,3,1887,0,-1,-1,-1,0
22,M,1,1,2,2,6,4,4,1920,0,-1,-1,-1,0
22,M,1,1,2,3,8,1,1,6720,0,-1,-1,-1,0
22,M,1,1,2,4,8,2,2,1931,0,-1,-1,-1,1
22,M,1,1,2,5,5,1,1,2865,0,-1,-1,-1,1
22,M,1,1,2,6,7,3,3,3942,0,-1,-1,-1,1
22,M,1,1,2,7,7,2,2,3165,0,-1,-1,-1,0
22,M,1,1,2,8,8,4,4,3265,0,-1,-1,-1,0
22,M,1,1,2,9,5,2,2,5931,0,-1,-1,-1,0
22,M,1,1,2,10,6,3,3,3953,0,-1,-1,-1,1
22,M,1,1,2,11,7,4,4,2198,0,-1,-1,-1,0
22,M,1,1,2,12,6,1,1,2087,0,-1,-1,-1,0
22,M,1,1,2,13,5,4,4,3153,0,-1,-1,-1,0
22,M,1,1,2,14,6,2,2,4076,0,-1,-1,-1,1
22,M,1,1,2,15,8,3,3,6065,0,-1,-1,-1,1
22,M,1,1,2,16,7,1,1,4576,0,-1,-1,-1,0
