Age, Gender, Awareness Type, Session, Block, Trial, Set, Pattern, Quadrant, Response Time, Num Mistakes, Distance From Target, Camera Distance From Target, Angle Error (Degrees), FC Response
19,F,1,1,1,1,1,3,3,4453,0,0.178292,6.090856,1.604862,-1
19,F,1,1,1,2,4,1,1,9999,0,-1,-1,-1,-1
19,F,1,1,1,3,4,3,3,2030,0,0.1843222,10.1165,1.016641,-1
19,F,1,1,1,4,3,4,4,3976,0,0.3962445,6.485878,3.337419,-1
19,F,1,1,1,5,1,2,2,4642,2,6.491232E-08,6.483256,0,-1
19,F,1,1,1,6,2,4,4,2553,0,0.1773936,10.27312,0.9600154,-1
19,F,1,1,1,7,1,1,1,2020,0,0.1276546,6.104497,1.136428,-1
19,F,1,1,1,8,2,3,3,2109,1,0.2761956,10.0865,1.524569,-1
19,F,1,1,1,9,3,2,2,2031,0,0.4245682,6.468943,3.542985,-1
19,F,1,1,1,10,2,1,1,2742,0,0.437816,10.08704,2.43767,-1
19,F,1,1,1,11,4,2,2,1965,2,0.05813183,10.34559,0.3146578,-1
19,F,1,1,1,12,3,1,1,1954,1,0.178695,6.091527,1.584615,-1
19,F,1,1,1,13,1,4,4,1842,0,0.3925515,6.580209,3.193654,-1
19,F,1,1,1,14,3,3,3,2587,0,0.3703053,6.204587,3.261768,-1
19,F,1,1,1,15,2,2,2,2909,0,0.1527021,10.43985,0.8146936,-1
19,F,1,1,1,16,4,4,4,4409,0,0.3984855,10.35904,2.149038,-1
19,F,1,1,2,1,2,5,1,2165,1,0.50133,10.19621,2.757828,-1
19,F,1,1,2,2,3,8,4,2731,1,0.5277661,6.57376,4.392845,-1
19,F,1,1,2,3,4,6,2,1098,0,0.7464539,10.42987,3.942927,-1
19,F,1,1,2,4,3,7,3,3120,2,0.1180256,6.194264,1.042865,-1
19,F,1,1,2,5,3,6,2,2320,1,0.2362885,6.55629,1.945815,-1
19,F,1,1,2,6,4,8,4,1809,1,0.5519713,10.30515,2.99957,-1
19,F,1,1,2,7,1,6,2,2131,0,0.4832494,6.563004,4.021657,-1
19,F,1,1,2,8,2,8,4,2198,2,0.1080347,10.37644,0.5777687,-1
19,F,1,1,2,9,1,7,3,4131,0,1.539306E-07,6.191749,0,-1
19,F,1,1,2,10,1,8,4,3176,0,7.833616E-08,6.581033,0,-1
19,F,1,1,2,11,3,5,1,2909,0,0.03089358,6.190823,0.2741124,-1
19,F,1,1,2,12,2,7,3,1664,0,0.7214138,10.19947,4.007706,-1
19,F,1,1,2,13,1,5,1,1931,0,6.194885E-08,6.19031,0,-1
19,F,1,1,2,14,4,7,3,9999,4,-1,-1,-1,-1
19,F,1,1,2,15,2,6,2,2432,0,0.5412077,10.45618,2.92456,-1
19,F,1,1,2,16,4,5,1,2987,1,0.2366191,10.17015,1.296639,-1
19,F,1,1,3,1,2,10,2,1442,0,0.330897,10.46176,1.755577,-1
19,F,1,1,3,2,3,12,4,2842,0,0.3974757,6.585369,3.37313,-1
19,F,1,1,3,3,3,11,3,3153,0,0.103225,6.194824,0.9054703,-1
19,F,1,1,3,4,1,12,4,4331,1,0.1429596,6.581109,1.175365,-1
19,F,1,1,3,5,4,9,1,1631,0,0.2820826,10.17814,1.55972,-1
19,F,1,1,3,6,4,10,2,1498,0,0.341385,10.45995,1.847268,-1
19,F,1,1,3,7,1,11,3,3031,0,0.008488294,6.202219,0.07661668,-1
19,F,1,1,3,8,2,12,4,1853,0,1.494117E-07,10.39642,0,-1
19,F,1,1,3,9,3,9,1,2131,0,5.879852E-08,6.187358,0,-1
19,F,1,1,3,10,4,12,4,1709,0,1.273398E-07,10.378,0,-1
19,F,1,1,3,11,1,9,1,1920,0,0.2706922,6.209702,2.368851,-1
19,F,1,1,3,12,4,11,3,2287,1,0.7518374,10.22473,4.176873,-1
19,F,1,1,3,13,1,10,2,2164,0,0.1775269,6.581289,1.470868,-1
19,F,1,1,3,14,2,11,3,3020,1,6.708903E-08,10.21936,0,-1
19,F,1,1,3,15,2,9,1,1342,0,0.1549596,10.21225,0.8492672,-1
19,F,1,1,3,16,3,10,2,2953,0,0.1045485,6.570164,0.8666012,-1
19,F,1,1,4,1,4,15,3,2476,0,0.4450431,10.2199,2.462595,-1
19,F,1,1,4,2,2,14,2,1054,0,1.429131E-07,10.46098,0,-1
19,F,1,1,4,3,2,13,1,1442,0,0.1312363,10.21033,0.7222635,-1
19,F,1,1,4,4,2,15,3,2409,0,0.4399562,10.23234,2.414192,-1
19,F,1,1,4,5,4,14,2,1065,0,0.2873133,10.47421,1.545224,-1
19,F,1,1,4,6,1,16,4,4697,4,8.247386E-08,6.590156,0,-1
19,F,1,1,4,7,3,13,1,1387,0,0.4300974,6.19207,3.772837,-1
19,F,1,1,4,8,4,16,4,2309,0,0.04804853,10.37628,0.2579304,-1
19,F,1,1,4,9,1,15,3,3065,0,0.5294051,6.210762,4.654421,-1
19,F,1,1,4,10,4,13,1,2664,1,0.3404157,10.18453,1.884087,-1
19,F,1,1,4,11,3,14,2,1198,0,0.2976337,6.58248,2.455829,-1
19,F,1,1,4,12,3,15,3,2464,0,0.4032018,6.238979,3.5333,-1
19,F,1,1,4,13,2,16,4,2309,0,0.6310084,10.40094,3.375857,-1
19,F,1,1,4,14,1,14,2,2809,2,0.1853908,6.581048,1.553434,-1
19,F,1,1,4,15,1,13,1,2098,0,1.476659E-07,6.193148,0,-1
19,F,1,1,4,16,3,16,4,1676,0,0.2157634,6.58755,1.792205,-1
19,F,1,1,5,1,3,17,1,3476,1,0.05317426,6.175871,0.4710537,-1
19,F,1,1,5,2,3,20,4,4298,0,0.1264089,6.600136,1.038352,-1
19,F,1,1,5,3,3,19,3,3687,0,0.02787312,6.205528,0.2446942,-1
19,F,1,1,5,4,2,17,1,1665,0,0.5537617,10.21598,3.032929,-1
19,F,1,1,5,5,3,18,2,2453,0,0.2987553,6.570545,2.470767,-1
19,F,1,1,5,6,4,19,3,2509,0,0.6638467,10.20182,3.623528,-1
19,F,1,1,5,7,2,20,4,3287,1,0.3374192,10.39303,1.799071,-1
19,F,1,1,5,8,4,17,1,2231,1,0.09243145,10.19054,0.5078341,-1
19,F,1,1,5,9,1,18,2,2153,0,0.3873361,6.580178,3.214367,-1
19,F,1,1,5,10,1,20,4,4076,1,0.1168211,6.587256,0.9616448,-1
19,F,1,1,5,11,1,19,3,3853,0,1.132196E-07,6.198084,0,-1
19,F,1,1,5,12,1,17,1,1598,0,0.4228443,6.211828,3.733605,-1
19,F,1,1,5,13,4,18,2,1486,0,0.5009986,10.43098,2.655792,-1
19,F,1,1,5,14,2,19,3,1220,0,0.3789025,10.21736,2.061655,-1
19,F,1,1,5,15,2,18,2,997,0,0.05674112,10.45945,0.302612,-1
19,F,1,1,5,16,4,20,4,2731,0,0.3644735,10.37186,1.950236,-1
19,F,1,1,6,1,1,22,2,1887,1,0.1081239,6.575623,0.8945997,-1
19,F,1,1,6,2,1,24,4,3664,1,0.5478846,6.582589,4.547216,-1
19,F,1,1,6,3,3,21,1,1642,0,0.2998932,6.19412,2.645083,-1
19,F,1,1,6,4,4,22,2,964,0,0.3694299,10.46416,1.999391,-1
19,F,1,1,6,5,1,23,3,1798,0,0.2425906,6.204043,2.125228,-1
19,F,1,1,6,6,2,21,1,1387,0,0.5256155,10.21466,2.88344,-1
19,F,1,1,6,7,2,24,4,1653,0,0.05209539,10.39067,0.2804634,-1
19,F,1,1,6,8,2,22,2,709,0,0.4051229,10.45864,2.14831,-1
19,F,1,1,6,9,4,24,4,2075,1,0.4259214,10.36728,2.257414,-1
19,F,1,1,6,10,3,23,3,3942,2,0.2514606,6.197827,2.244895,-1
19,F,1,1,6,11,4,21,1,2631,2,0.5127373,10.15226,2.852109,-1
19,F,1,1,6,12,3,22,2,2020,0,0.4088257,6.57081,3.360394,-1
19,F,1,1,6,13,4,23,3,2787,0,0.4430441,10.21613,2.439917,-1
19,F,1,1,6,14,3,24,4,2542,0,0.5559306,6.582176,4.532504,-1
19,F,1,1,6,15,1,21,1,1853,0,0.1486202,6.203877,1.311793,-1
19,F,1,1,6,16,2,23,3,1987,1,0.1256709,10.21327,0.6864257,-1
19,F,1,1,7,1,2,25,1,1631,1,0.2792705,10.1856,1.545224,-1
19,F,1,1,7,2,3,27,3,4642,2,0.4039659,6.178156,3.53679,-1
19,F,1,1,7,3,1,26,2,1454,0,0.2386646,6.577302,1.980606,-1
19,F,1,1,7,4,3,28,4,3387,0,0.2676927,6.579788,2.199181,-1
19,F,1,1,7,5,4,27,3,3265,1,0.07296753,10.19244,0.3990945,-1
19,F,1,1,7,6,2,28,4,1931,0,0.2918101,10.38762,1.553686,-1
19,F,1,1,7,7,3,25,1,1909,0,0.4409128,6.190114,3.895813,-1
19,F,1,1,7,8,1,27,3,2198,0,0.127962,6.199054,1.12187,-1
19,F,1,1,7,9,2,26,2,3176,0,0.04357059,10.45733,0.2332305,-1
19,F,1,1,7,10,2,27,3,1209,0,0.2500372,10.21067,1.363436,-1
19,F,1,1,7,11,4,25,1,1209,0,0.1634764,10.19082,0.8965662,-1
19,F,1,1,7,12,4,28,4,1931,0,0.5480361,10.36508,2.975325,-1
19,F,1,1,7,13,1,25,1,3998,0,0.5243234,6.200552,4.645491,-1
19,F,1,1,7,14,3,26,2,4709,0,0.3222426,6.573151,2.676349,-1
19,F,1,1,7,15,1,28,4,4120,1,9.092956E-08,6.581287,0,-1
19,F,1,1,7,16,4,26,2,2931,0,0.8823388,10.46218,4.690183,-1
19,F,1,1,8,1,2,31,3,4387,4,0.3700462,10.1515,2.031821,-1
19,F,1,1,8,2,4,32,4,1887,0,0.1560214,10.36708,0.8320423,-1
19,F,1,1,8,3,1,29,1,2131,0,1.032274E-07,6.193176,0,-1
19,F,1,1,8,4,4,30,2,1109,0,0.611963,10.44894,3.237852,-1
19,F,1,1,8,5,2,29,1,1498,0,0.162542,10.20136,0.8919711,-1
19,F,1,1,8,6,1,30,2,1587,0,0.2391536,6.572599,1.986132,-1
19,F,1,1,8,7,3,32,4,2686,0,0.3822795,6.575701,3.132441,-1
19,F,1,1,8,8,3,29,1,1264,0,0.4263428,6.184152,3.759788,-1
19,F,1,1,8,9,3,31,3,2742,0,0.09446137,6.200624,0.8277984,-1
19,F,1,1,8,10,4,29,1,5042,0,0.5106214,10.15794,2.805748,-1
19,F,1,1,8,11,1,32,4,4120,1,0.2693334,6.578806,2.221847,-1
19,F,1,1,8,12,3,30,2,2953,1,0.2650079,6.563082,2.18928,-1
19,F,1,1,8,13,4,31,3,2109,1,0.252978,10.20931,1.393672,-1
19,F,1,1,8,14,2,32,4,1853,0,0.06811255,10.38062,0.364769,-1
19,F,1,1,8,15,2,30,2,1087,0,0.1639437,10.45046,0.8742447,-1
19,F,1,1,8,16,1,31,3,2853,0,2.155713E-07,6.2012,0,-1
19,F,1,1,9,1,3,34,2,2076,2,0.166714,6.578974,1.401932,-1
19,F,1,1,9,2,4,33,1,5331,2,0.1487197,10.1624,0.8190054,-1
19,F,1,1,9,3,1,36,4,3264,0,0.1894338,6.582591,1.570722,-1
19,F,1,1,9,4,1,35,3,4042,0,0.03563398,6.199054,0.3127867,-1
19,F,1,1,9,5,1,34,2,4620,1,2.5001E-07,6.568353,0,-1
19,F,1,1,9,6,4,35,3,2298,1,0.5307587,10.19109,2.887172,-1
19,F,1,1,9,7,4,36,4,1265,1,0.8808385,10.36624,4.687468,-1
19,F,1,1,9,8,4,34,2,1020,1,0.4274236,10.45244,2.266241,-1
19,F,1,1,9,9,1,33,1,2231,0,0.1294001,6.190934,1.136944,-1
19,F,1,1,9,10,3,35,3,3476,0,0.01683474,6.212657,0.1467098,-1
19,F,1,1,9,11,2,33,1,1765,0,0.1778754,10.18734,0.9791879,-1
19,F,1,1,9,12,2,34,2,1287,0,0.03125753,10.45025,0.1678588,-1
19,F,1,1,9,13,2,36,4,1587,0,1.414513E-08,10.38229,0.01978234,-1
19,F,1,1,9,14,3,33,1,1965,0,0.40523,6.19905,3.584629,-1
19,F,1,1,9,15,3,36,4,2431,0,0.1852031,6.58623,1.520199,-1
19,F,1,1,9,16,2,35,3,2486,0,0.8190843,10.21543,4.474966,-1
19,F,1,1,10,1,4,38,2,1165,0,0.1833906,10.4605,0.9765865,-1
19,F,1,1,10,2,3,37,1,2953,1,0.03402502,6.170207,0.3019647,-1
19,F,1,1,10,3,1,39,3,2954,0,0.1697636,6.199066,1.491478,-1
19,F,1,1,10,4,3,38,2,1954,0,0.0521415,6.581206,0.4320539,-1
19,F,1,1,10,5,4,39,3,2053,0,0.4692566,10.21497,2.560173,-1
19,F,1,1,10,6,1,38,2,1709,0,0.2397421,6.576151,1.970601,-1
19,F,1,1,10,7,2,37,1,1598,0,0.5568187,10.19881,3.063755,-1
19,F,1,1,10,8,2,40,4,1498,0,0.04601642,10.38929,0.2462884,-1
19,F,1,1,10,9,2,39,3,1320,0,1.023615E-07,10.21626,0,-1
19,F,1,1,10,10,4,37,1,1653,1,0.3565186,10.19388,1.96921,-1
19,F,1,1,10,11,4,40,4,2298,0,0.4563142,10.3721,2.441521,-1
19,F,1,1,10,12,2,38,2,1098,0,0.2132856,10.45521,1.143466,-1
19,F,1,1,10,13,3,40,4,2387,0,0.4699408,6.58273,3.899229,-1
19,F,1,1,10,14,3,39,3,3276,1,0.2012389,6.216929,1.784654,-1
19,F,1,1,10,15,1,37,1,1731,0,0.1958594,6.192914,1.715662,-1
19,F,1,1,10,16,1,40,4,3820,0,1.478181E-07,6.585485,0,-1
19,F,1,1,11,1,3,42,2,3175,0,0.4234647,6.562105,3.485319,-1
19,F,1,1,11,2,3,41,1,1842,0,0.4235085,6.185931,3.745125,-1
19,F,1,1,11,3,2,44,4,1509,0,0.1019932,10.39498,0.5446455,-1
19,F,1,1,11,4,4,41,1,2309,1,0.5160489,10.20625,2.827363,-1
19,F,1,1,11,5,1,44,4,3854,1,0.0237123,6.578924,0.1968319,-1
19,F,1,1,11,6,3,43,3,2987,0,0.4556348,6.213765,3.966004,-1
19,F,1,1,11,7,4,42,2,1387,0,0.8947844,10.45568,4.741484,-1
19,F,1,1,11,8,2,43,3,1420,0,0.7895573,10.21598,4.309526,-1
19,F,1,1,11,9,2,41,1,1720,0,0.6653103,10.19991,3.648246,-1
19,F,1,1,11,10,2,42,2,998,0,0.2927867,10.45324,1.563104,-1
19,F,1,1,11,11,3,44,4,3131,0,0.023413,6.58194,0.1938267,-1
19,F,1,1,11,12,1,41,1,2831,0,1.259239E-07,6.178981,0,-1
19,F,1,1,11,13,1,43,3,3131,1,0.3001328,6.189753,2.646045,-1
19,F,1,1,11,14,1,42,2,1209,0,0.4040228,6.57201,3.356897,-1
19,F,1,1,11,15,4,43,3,2398,0,0.488091,10.21903,2.663887,-1
19,F,1,1,11,16,4,44,4,2442,1,0.4870099,10.38403,2.635742,-1
19,F,1,1,12,1,3,46,2,1409,0,0.2085857,6.575276,1.722492,-1
19,F,1,1,12,2,3,47,3,1720,0,0.4834308,6.205123,4.237436,-1
19,F,1,1,12,3,1,45,1,1531,0,0.3245867,6.202688,2.867784,-1
19,F,1,1,12,4,4,48,4,1120,0,0.2852357,10.37118,1.539514,-1
19,F,1,1,12,5,4,46,2,1698,0,0.6100261,10.45484,3.232648,-1
19,F,1,1,12,6,2,45,1,1542,0,0.04625604,10.19608,0.254109,-1
19,F,1,1,12,7,2,48,4,1442,0,0.4830803,10.39379,2.62137,-1
19,F,1,1,12,8,3,45,1,1886,0,0.1991829,6.202259,1.75223,-1
19,F,1,1,12,9,4,47,3,1242,0,0.1531195,10.21669,0.8372003,-1
19,F,1,1,12,10,2,46,2,942,0,3.591511E-08,10.45349,0,-1
19,F,1,1,12,11,1,48,4,2465,0,0.08433185,6.582302,0.7002546,-1
19,F,1,1,12,12,2,47,3,2787,1,1.682932E-07,10.20825,0,-1
19,F,1,1,12,13,3,48,4,2698,0,0.2411964,6.595055,1.971197,-1
19,F,1,1,12,14,1,46,2,1831,0,0.3925045,6.573756,3.239242,-1
19,F,1,1,12,15,4,45,1,2787,0,0.2253732,10.18038,1.238437,-1
19,F,1,1,12,16,1,47,3,2287,0,0.4493059,6.209296,3.935272,-1
19,F,1,1,13,1,3,49,1,3654,2,5.467637E-08,6.152415,0,-1
19,F,1,1,13,2,2,50,2,943,0,0.1233083,10.45063,0.6573014,-1
19,F,1,1,13,3,2,52,4,1831,0,0.8419279,10.3896,4.477022,-1
19,F,1,1,13,4,1,50,2,2653,0,0.5550912,6.569604,4.616092,-1
19,F,1,1,13,5,1,51,3,3009,0,0.3291736,6.206508,2.889815,-1
19,F,1,1,13,6,4,49,1,1631,0,0.8196827,10.16754,4.493311,-1
19,F,1,1,13,7,4,50,2,1165,0,0.479618,10.45834,2.542528,-1
19,F,1,1,13,8,2,51,3,1353,0,0.7123551,10.21536,3.889575,-1
19,F,1,1,13,9,3,50,2,2109,1,0.3138693,6.563592,2.597064,-1
19,F,1,1,13,10,4,52,4,1898,0,0.7240725,10.37407,3.863611,-1
19,F,1,1,13,11,2,49,1,1287,0,0.4904949,10.20192,2.688972,-1
19,F,1,1,13,12,1,52,4,2598,0,0.4082756,6.585718,3.346558,-1
19,F,1,1,13,13,1,49,1,2231,1,0.08332205,6.186597,0.7343537,-1
19,F,1,1,13,14,3,51,3,3298,1,2.539978E-08,6.215186,0,-1
19,F,1,1,13,15,3,52,4,3042,0,0.4978365,6.585809,4.076502,-1
19,F,1,1,13,16,4,51,3,2043,1,0.1827851,10.19402,1.000342,-1
19,F,1,1,14,1,4,53,1,1331,0,0.6136888,10.16404,3.424913,-1
19,F,1,1,14,2,1,54,2,1887,1,4.738078E-08,6.569754,0,-1
19,F,1,1,14,3,3,56,4,3720,1,0.009967213,6.589296,0.07912937,-1
19,F,1,1,14,4,3,53,1,1920,0,9.758321E-08,6.166806,0,-1
19,F,1,1,14,5,3,54,2,1965,0,0.2089227,6.574098,1.730653,-1
19,F,1,1,14,6,1,55,3,1609,0,4.491024E-08,6.200929,0,-1
19,F,1,1,14,7,2,56,4,2265,0,0.6012667,10.39628,3.235795,-1
19,F,1,1,14,8,3,55,3,2765,2,7.14121E-08,6.211365,0,-1
19,F,1,1,14,9,2,54,2,1309,1,4.536094E-08,10.4491,0,-1
19,F,1,1,14,10,4,56,4,3153,2,0.1100202,10.37813,0.591822,-1
19,F,1,1,14,11,1,53,1,1820,2,0.1562781,6.19242,1.37202,-1
19,F,1,1,14,12,4,55,3,2254,2,0.5386836,10.22227,2.981437,-1
19,F,1,1,14,13,4,54,2,931,0,0.1019169,10.45233,0.5446455,-1
19,F,1,1,14,14,1,56,4,2864,2,0.2220322,6.579679,1.869697,-1
19,F,1,1,14,15,2,55,3,1276,1,0.05119424,10.20795,0.2797648,-1
19,F,1,1,14,16,2,53,1,1331,1,5.848718E-08,10.19588,0,-1
19,F,1,1,15,1,1,58,2,1309,1,4.112137E-08,6.57169,0,-1
19,F,1,1,15,2,1,59,3,2109,3,0.2524438,6.196163,2.242103,-1
19,F,1,1,15,3,4,60,4,1876,2,0.03456233,10.38044,0.1855749,-1
19,F,1,1,15,4,3,57,1,1020,1,0.416539,6.183812,3.683658,-1
19,F,1,1,15,5,1,60,4,3031,4,0.001825158,6.579967,0,-1
19,F,1,1,15,6,4,59,3,820,0,0.2579807,10.22207,1.405138,-1
19,F,1,1,15,7,3,58,2,1487,0,0.4535077,6.572172,3.743974,-1
19,F,1,1,15,8,2,59,3,1065,0,1.210513E-08,10.21233,0,-1
19,F,1,1,15,9,3,60,4,1809,1,0.1294353,6.576516,1.083901,-1
19,F,1,1,15,10,2,57,1,1165,0,0.4693541,10.17947,2.582932,-1
19,F,1,1,15,11,3,59,3,1798,0,0.451789,6.189915,3.98074,-1
19,F,1,1,15,12,4,57,1,1087,0,0.1432701,10.17168,0.7875819,-1
19,F,1,1,15,13,2,58,2,942,0,0.3939452,10.44289,2.11757,-1
19,F,1,1,15,14,2,60,4,1920,0,0.7889254,10.37544,4.281577,-1
19,F,1,1,15,15,4,58,2,887,0,1.579136E-07,10.44182,0.01978234,-1
19,F,1,1,15,16,1,57,1,2098,1,1.6168E-07,6.17997,0,-1
19,F,1,1,16,1,4,63,3,5265,5,0.1168988,10.23849,0.6379647,-1
19,F,1,1,16,2,1,61,1,1798,0,0.2803192,6.201511,2.475516,-1
19,F,1,1,16,3,4,62,2,865,0,0.1282534,10.45226,0.6841414,-1
19,F,1,1,16,4,2,61,1,1654,1,0.2888778,10.1914,1.597529,-1
19,F,1,1,16,5,2,62,2,920,0,0.1101782,10.45496,0.5885065,-1
19,F,1,1,16,6,2,63,3,1042,0,0.3445992,10.19834,1.909161,-1
19,F,1,1,16,7,1,64,4,2976,0,0.2398913,6.576489,2.024681,-1
19,F,1,1,16,8,4,61,1,998,0,0.2464085,10.19846,1.359123,-1
19,F,1,1,16,9,1,62,2,1654,0,0.207994,6.572356,1.727371,-1
19,F,1,1,16,10,4,64,4,1431,0,0.1710498,10.3717,0.9164255,-1
19,F,1,1,16,11,3,63,3,1664,0,0.06056977,6.204917,0.5293413,-1
19,F,1,1,16,12,3,64,4,2631,0,0.1781944,6.577629,1.475517,-1
19,F,1,1,16,13,3,61,1,1820,1,0.3767568,6.180871,3.293367,-1
19,F,1,1,16,14,3,62,2,1954,0,0.2162169,6.5555,1.783448,-1
19,F,1,1,16,15,2,64,4,1365,0,0.5367422,10.39049,2.862454,-1
19,F,1,1,16,16,1,63,3,1720,0,0.3788651,6.206242,3.326078,-1
19,F,1,1,17,1,2,65,1,1343,0,0.5439149,10.19939,2.981963,-1
19,F,1,1,17,2,4,66,2,987,0,0.3350521,10.43114,1.780043,-1
19,F,1,1,17,3,4,67,3,1142,0,0.7582684,10.19599,4.126162,-1
19,F,1,1,17,4,3,65,1,1676,0,0.377037,6.179296,3.302331,-1
19,F,1,1,17,5,1,68,4,2320,0,0.01675269,6.584896,0.1384764,-1
19,F,1,1,17,6,1,67,3,2487,2,0.2185275,6.196263,1.927728,-1
19,F,1,1,17,7,4,68,4,2976,1,0.1831119,10.38506,0.9787881,-1
19,F,1,1,17,8,4,65,1,1531,0,0.05587277,10.18796,0.3064671,-1
19,F,1,1,17,9,3,66,2,4187,1,2.644627E-07,6.554561,0,-1
19,F,1,1,17,10,2,67,3,1154,0,0.4750533,10.21511,2.592085,-1
19,F,1,1,17,11,3,68,4,1931,0,0.5051637,6.592757,4.138342,-1
19,F,1,1,17,12,3,67,3,2976,0,0.1782458,6.204255,1.578924,-1
19,F,1,1,17,13,2,66,2,1320,0,6.620989E-08,10.454,0,-1
19,F,1,1,17,14,2,68,4,3420,1,3.309177E-07,10.37867,0.01978234,-1
19,F,1,1,17,15,1,66,2,1898,1,0.2825198,6.56682,2.337662,-1
19,F,1,1,17,16,1,65,1,1720,0,0.4236878,6.191366,3.752124,-1
19,F,1,1,18,1,2,72,4,1865,0,0.0225663,10.38718,0.1219466,-1
19,F,1,1,18,2,4,69,1,1254,0,0.02887671,10.17405,0.1582588,-1
19,F,1,1,18,3,1,70,2,1465,0,0.178482,6.559767,1.484772,-1
19,F,1,1,18,4,3,69,1,1287,0,0.2808321,6.189837,2.465137,-1
19,F,1,1,18,5,3,70,2,1454,1,0.4695846,6.559769,3.877978,-1
19,F,1,1,18,6,4,71,3,1765,1,0.01694066,10.17654,0.09065409,-1
19,F,1,1,18,7,4,72,4,2542,1,0.30593,10.36366,1.650194,-1
19,F,1,1,18,8,2,71,3,2598,3,0.007352436,10.19076,0.03956468,-1
19,F,1,1,18,9,1,72,4,2743,0,0.2566638,6.575868,2.100589,-1
19,F,1,1,18,10,1,69,1,2331,1,0.1763493,6.177931,1.550029,-1
19,F,1,1,18,11,1,71,3,3609,1,0.2480455,6.193296,2.20478,-1
19,F,1,1,18,12,4,70,2,987,0,0.09221265,10.45079,0.4929749,-1
19,F,1,1,18,13,3,71,3,2887,0,0.03185323,6.202852,0.2804634,-1
19,F,1,1,18,14,3,72,4,3709,0,0.3793103,6.587071,3.084134,-1
19,F,1,1,18,15,2,70,2,1376,1,0.1478956,10.44002,0.7957386,-1
19,F,1,1,18,16,2,69,1,1509,0,0.4933643,10.1841,2.718006,-1
19,F,1,1,19,1,4,75,3,1098,0,0.4657466,10.19029,2.567579,-1
19,F,1,1,19,2,3,76,4,1309,0,0.07009609,6.589804,0.5828267,-1
19,F,1,1,19,3,3,75,3,2409,0,0.3129236,6.220114,2.742454,-1
19,F,1,1,19,4,1,73,1,2476,1,0.3584269,6.167507,3.157589,-1
19,F,1,1,19,5,2,74,2,2554,1,0.3641535,10.43953,1.948629,-1
19,F,1,1,19,6,2,73,1,1442,0,0.3925904,10.18033,2.160301,-1
19,F,1,1,19,7,1,76,4,3009,0,0.1791519,6.578113,1.471134,-1
19,F,1,1,19,8,4,73,1,1265,0,0.4810296,10.17752,2.639082,-1
19,F,1,1,19,9,4,76,4,998,0,0.5334189,10.37325,2.82674,-1
19,F,1,1,19,10,4,74,2,1065,0,0.2021226,10.44972,1.077018,-1
19,F,1,1,19,11,1,75,3,2031,0,2.284506E-07,6.207531,0.01978234,-1
19,F,1,1,19,12,1,74,2,1809,1,0.2895961,6.557635,2.406152,-1
19,F,1,1,19,13,2,76,4,1776,0,1.787554E-07,10.3784,0,-1
19,F,1,1,19,14,3,74,2,1220,0,0.06097083,6.559709,0.5070629,-1
19,F,1,1,19,15,3,73,1,2842,3,1.69491E-07,6.134027,0,-1
19,F,1,1,19,16,2,75,3,1498,1,0.1243205,10.19669,0.6801254,-1
19,F,1,1,20,1,2,80,4,1998,0,0.7074508,10.38637,3.783772,-1
19,F,1,1,20,2,2,79,3,2353,1,0.6895545,10.2079,3.755932,-1
19,F,1,1,20,3,3,77,1,2142,0,0.3298475,6.181823,2.899148,-1
19,F,1,1,20,4,3,79,3,2076,1,0.2506761,6.210204,2.197756,-1
19,F,1,1,20,5,2,77,1,1531,1,0.3756467,10.19771,2.059946,-1
19,F,1,1,20,6,1,79,3,2853,1,0.003963507,6.204741,0.03426402,-1
19,F,1,1,20,7,3,80,4,3576,1,8.562424E-08,6.589211,0,-1
19,F,1,1,20,8,4,77,1,2354,0,0.09526394,10.17709,0.5233933,-1
19,F,1,1,20,9,2,78,2,965,0,0.34415,10.43833,1.83323,-1
19,F,1,1,20,10,1,77,1,2143,0,5.81749E-08,6.174044,0,-1
19,F,1,1,20,11,3,78,2,1798,0,0.2051222,6.549189,1.691538,-1
19,F,1,1,20,12,4,80,4,1498,0,0.2488111,10.36706,1.322342,-1
19,F,1,1,20,13,1,78,2,1309,0,0.1600843,6.568694,1.323674,-1
19,F,1,1,20,14,1,80,4,3531,0,0.2807989,6.58362,2.295672,-1
19,F,1,1,20,15,4,79,3,1320,0,0.1506324,10.19801,0.8273254,-1
19,F,1,1,20,16,4,78,2,1042,0,2.224571E-07,10.45977,0,-1
19,F,1,1,21,1,3,81,1,2876,1,0.3357972,6.161762,2.943375,-1
19,F,1,1,21,2,2,83,3,976,0,0.04559943,10.20247,0.249446,-1
19,F,1,1,21,3,4,84,4,1231,0,0.6452735,10.38117,3.509838,-1
19,F,1,1,21,4,2,82,2,798,0,0.6076249,10.44054,3.255039,-1
19,F,1,1,21,5,1,83,3,3187,0,2.46398E-07,6.190382,0,-1
19,F,1,1,21,6,2,84,4,1831,0,0.4075194,10.39249,2.20478,-1
19,F,1,1,21,7,4,81,1,1765,0,0.4700631,10.13586,2.582553,-1
19,F,1,1,21,8,3,82,2,2009,1,0.06236042,6.566165,0.5226451,-1
19,F,1,1,21,9,1,84,4,3231,0,0.3376372,6.583189,2.772835,-1
19,F,1,1,21,10,4,83,3,1098,0,0.6030596,10.19257,3.293485,-1
19,F,1,1,21,11,2,81,1,1554,0,0.543267,10.1922,2.982422,-1
19,F,1,1,21,12,4,82,2,2042,1,0.6803428,10.44361,3.686315,-1
19,F,1,1,21,13,1,81,1,3153,0,0.3572877,6.17736,3.142861,-1
19,F,1,1,21,14,3,83,3,2354,0,0.04888155,6.213706,0.4302385,-1
19,F,1,1,21,15,3,84,4,2387,0,0.04296148,6.594296,0.354982,-1
19,F,1,1,21,16,1,82,2,1454,0,0.2543505,6.560405,2.107286,-1
19,F,1,1,22,1,1,87,3,1976,0,0.1848141,6.206843,1.634944,-1
19,F,1,1,22,2,4,86,2,1665,0,0.03927637,10.45741,0.2102893,-1
19,F,1,1,22,3,1,85,1,2076,0,0.3165264,6.175467,2.777067,-1
19,F,1,1,22,4,2,88,4,1676,0,0.4706003,10.38948,2.515206,-1
19,F,1,1,22,5,3,87,3,2276,1,8.237673E-08,6.215213,0,-1
19,F,1,1,22,6,3,88,4,1965,0,0.3559993,6.590938,2.959228,-1
19,F,1,1,22,7,2,86,2,664,0,0.5049547,10.4501,2.684528,-1
19,F,1,1,22,8,2,87,3,987,0,0.2465465,10.21442,1.344503,-1
19,F,1,1,22,9,1,86,2,1553,1,6.564711E-08,6.567159,0,-1
19,F,1,1,22,10,1,88,4,3509,1,0.1651225,6.58414,1.356529,-1
19,F,1,1,22,11,3,86,2,1054,0,0.1502636,6.563164,1.242538,-1
19,F,1,1,22,12,2,85,1,1420,0,0.01256659,10.18227,0.0656106,-1
19,F,1,1,22,13,4,88,4,1998,0,0.3212681,10.38353,1.739451,-1
19,F,1,1,22,14,3,85,1,1142,0,0.3577536,6.176131,3.129315,-1
19,F,1,1,22,15,4,87,3,1743,0,0.857567,10.22062,4.684082,-1
19,F,1,1,22,16,4,85,1,1342,0,0.399714,10.1992,2.201849,-1
19,F,1,1,23,1,4,92,4,4576,1,0.490496,10.39164,2.618382,-1
19,F,1,1,23,2,4,90,2,1287,0,0.2796103,10.44845,1.494624,-1
19,F,1,1,23,3,1,91,3,1598,0,0.3298303,6.208533,2.894282,-1
19,F,1,1,23,4,3,89,1,2042,1,0.2352628,6.159874,2.06137,-1
19,F,1,1,23,5,3,91,3,1442,0,0.3623558,6.214049,3.181,-1
19,F,1,1,23,6,3,92,4,2442,0,5.797794E-08,6.590032,0,-1
19,F,1,1,23,7,1,90,2,1365,0,0.1547413,6.566014,1.283899,-1
19,F,1,1,23,8,2,89,1,1554,0,0.141546,10.1979,0.7770769,-1
19,F,1,1,23,9,4,91,3,1076,0,1.768315E-07,10.20795,0,-1
19,F,1,1,23,10,2,90,2,1554,0,0.03409415,10.44479,0.1813082,-1
19,F,1,1,23,11,1,92,4,3020,0,0.003206708,6.582092,0.01978234,-1
19,F,1,1,23,12,3,90,2,2854,0,1.358109E-07,6.572231,0,-1
19,F,1,1,23,13,4,89,1,2476,0,0.5293487,10.15768,2.903736,-1
19,F,1,1,23,14,2,91,3,1231,0,0.2768649,10.2047,1.512455,-1
19,F,1,1,23,15,1,89,1,2665,0,0.1453648,6.180899,1.287704,-1
19,F,1,1,23,16,2,92,4,1764,0,0.07687164,10.3878,0.414487,-1
19,F,1,1,24,1,1,95,3,2320,0,1.213581E-07,6.197548,0,-1
19,F,1,1,24,2,2,96,4,2009,1,0.2486049,10.38844,1.325889,-1
19,F,1,1,24,3,4,95,3,1464,0,6.128196E-08,10.19227,0,-1
19,F,1,1,24,4,1,94,2,1509,0,0.1078117,6.564015,0.8961296,-1
19,F,1,1,24,5,4,96,4,2109,0,0.1045788,10.38623,0.564406,-1
19,F,1,1,24,6,2,94,2,2142,0,4.49853E-08,10.2652,0.01978234,-1
19,F,1,1,24,7,3,96,4,2587,0,0.1346803,6.596193,1.118376,-1
19,F,1,1,24,8,1,93,1,1887,0,0.04586351,6.202751,0.4054182,-1
19,F,1,1,24,9,2,95,3,1264,0,0.5024209,10.22457,2.738454,-1
19,F,1,1,24,10,4,94,2,976,0,0.4696289,10.46665,2.485065,-1
19,F,1,1,24,11,1,96,4,2765,0,0.2507131,6.599536,2.074054,-1
19,F,1,1,24,12,2,93,1,1875,1,0.4814211,10.21937,2.635965,-1
19,F,1,1,24,13,3,95,3,2042,1,5.529181E-08,6.220887,0,-1
19,F,1,1,24,14,3,93,1,3042,0,0.3833117,6.201349,3.367611,-1
19,F,1,1,24,15,3,94,2,1454,0,0.1936704,6.595037,1.598754,-1
19,F,1,1,24,16,4,93,1,1431,0,0.2389859,10.20266,1.308208,-1
19,F,1,1,25,1,3,98,2,4609,1,0.1197578,6.593563,0.9905132,-1
19,F,1,1,25,2,1,97,1,2042,0,0.1444566,6.209888,1.27993,-1
19,F,1,1,25,3,1,98,2,2187,0,0.2565839,6.590335,2.125504,-1
19,F,1,1,25,4,2,99,3,1453,0,0.5145653,10.22431,2.805539,-1
19,F,1,1,25,5,3,100,4,2065,0,0.2482574,6.607176,2.028254,-1
19,F,1,1,25,6,4,97,1,1509,0,0.8736851,10.22203,4.788802,-1
19,F,1,1,25,7,3,99,3,3231,2,0.2255488,6.228517,1.975461,-1
19,F,1,1,25,8,2,100,4,1842,0,0.3344101,10.41454,1.795914,-1
19,F,1,1,25,9,1,99,3,1665,0,2.711597E-08,6.220196,0,-1
19,F,1,1,25,10,3,97,1,1687,0,0.4156118,6.212906,3.636473,-1
19,F,1,1,25,11,4,98,2,954,0,0.06515393,10.47514,0.3471792,-1
19,F,1,1,25,12,4,99,3,1142,0,0.1169999,10.22772,0.6407191,-1
19,F,1,1,25,13,1,100,4,2176,0,0.4403582,6.597579,3.569193,-1
19,F,1,1,25,14,2,98,2,898,0,1.409656E-07,10.47445,0,-1
19,F,1,1,25,15,4,100,4,1476,0,0.233075,10.41006,1.240489,-1
19,F,1,1,25,16,2,97,1,1198,0,0.4775604,10.21775,2.613668,-1
19,F,1,1,26,1,3,104,4,2909,0,0.5295532,6.598212,4.277549,-1
19,F,1,1,26,2,2,102,2,1020,0,0.4937451,10.47016,2.61097,-1
19,F,1,1,26,3,2,104,4,1398,0,0.889797,10.40886,4.74908,-1
19,F,1,1,26,4,1,103,3,1965,0,0.2058542,6.218287,1.79918,-1
19,F,1,1,26,5,4,101,1,953,0,0.5320894,10.22058,2.911613,-1
19,F,1,1,26,6,4,103,3,1342,1,0.1516211,10.21618,0.8259051,-1
19,F,1,1,26,7,3,101,1,2187,1,6.034453E-08,6.206121,0,-1
19,F,1,1,26,8,4,102,2,842,0,0.7057847,10.47216,3.722259,-1
19,F,1,1,26,9,1,101,1,1665,0,1.485978E-07,6.204776,0,-1
19,F,1,1,26,10,2,103,3,1776,1,4.219106E-08,10.22486,0,-1
19,F,1,1,26,11,3,102,2,1754,0,0.1321464,6.592826,1.09289,-1
19,F,1,1,26,12,2,101,1,3287,0,0.5740309,10.22051,3.141179,-1
19,F,1,1,26,13,1,104,4,2976,0,0.2755531,6.601355,2.270555,-1
19,F,1,1,26,14,3,103,3,1954,0,0.3269961,6.21724,2.859307,-1
19,F,1,1,26,15,1,102,2,1476,0,0.2267146,6.593593,1.870535,-1
19,F,1,1,26,16,4,104,4,1576,0,0.8718147,10.38455,4.724556,-1
19,F,1,1,27,1,1,105,1,1509,0,0.2711405,6.203944,2.423255,-1
19,F,1,1,27,2,2,106,2,865,0,0.1021662,10.46763,0.5471546,-1
19,F,1,1,27,3,3,108,4,2353,1,0.1292212,6.60728,1.059433,-1
19,F,1,1,27,4,4,106,2,765,0,2.250716E-07,10.47196,0,-1
19,F,1,1,27,5,3,107,3,2154,0,4.673091E-08,6.217886,0,-1
19,F,1,1,27,6,3,105,1,1454,0,0.0247068,6.178775,0.2176059,-1
19,F,1,1,27,7,1,106,2,1520,0,0.07036024,6.592849,0.5878411,-1
19,F,1,1,27,8,4,105,1,2065,2,0.5503772,10.18523,3.053514,-1
19,F,1,1,27,9,1,108,4,2376,0,0.1253639,6.605196,1.028125,-1
19,F,1,1,27,10,3,106,2,2742,0,1.653581E-07,6.580788,0.01978234,-1
19,F,1,1,27,11,4,107,3,6165,2,0.7826489,10.21279,4.320827,-1
19,F,1,1,27,12,2,108,4,2143,0,0.5333732,10.41313,2.844619,-1
19,F,1,1,27,13,2,107,3,1176,0,0.7494842,10.23633,4.084805,-1
19,F,1,1,27,14,2,105,1,1453,0,0.4265594,10.21437,2.33967,-1
19,F,1,1,27,15,1,107,3,1987,0,0.3185252,6.22709,2.780871,-1
19,F,1,1,27,16,4,108,4,2242,0,1.203054E-07,10.41159,0,-1
19,F,1,1,28,1,1,111,3,2209,0,0.3526916,6.222956,3.081467,-1
19,F,1,1,28,2,1,110,2,1409,0,0.08470484,6.591364,0.7013714,-1
19,F,1,1,28,3,1,112,4,3376,0,0.2263114,6.606912,1.846314,-1
19,F,1,1,28,4,2,109,1,1320,0,0.4308596,10.21829,2.359413,-1
19,F,1,1,28,5,2,111,3,1642,0,0.003917238,10.22739,0.01978234,-1
19,F,1,1,28,6,2,112,4,1820,0,0.01825682,10.41295,0.09691329,-1
19,F,1,1,28,7,2,110,2,831,0,5.761848E-08,10.47663,0,-1
19,F,1,1,28,8,1,109,1,1709,0,0.3419671,6.208486,3.019734,-1
19,F,1,1,28,9,3,110,2,1720,0,0.3517334,6.594589,2.90178,-1
19,F,1,1,28,10,3,111,3,2876,0,0.02650731,6.223236,0.23239,-1
19,F,1,1,28,11,4,109,1,1265,0,0.6221386,10.17948,3.403811,-1
19,F,1,1,28,12,3,112,4,2776,0,0.04609586,6.61423,0.3815487,-1
19,F,1,1,28,13,4,111,3,1343,0,0.5781634,10.23206,3.150265,-1
19,F,1,1,28,14,4,110,2,831,0,0.0739995,10.45127,0.3941611,-1
19,F,1,1,28,15,3,109,1,2520,0,0.4454081,6.196647,3.884587,-1
19,F,1,1,28,16,4,112,4,2342,0,0.1110333,10.39224,0.5941319,-1
19,F,1,1,29,1,2,114,2,754,0,0.3917151,10.47794,2.07594,-1
19,F,1,1,29,2,4,115,3,1565,1,0.5552037,10.21895,3.014348,-1
19,F,1,1,29,3,1,116,4,2142,2,0.4193242,6.604574,3.396267,-1
19,F,1,1,29,4,2,115,3,787,0,0.5181564,10.25106,2.83628,-1
19,F,1,1,29,5,3,113,1,2520,2,0.09461971,6.211289,0.8346253,-1
19,F,1,1,29,6,2,116,4,1520,0,0.2726631,10.402,1.467404,-1
19,F,1,1,29,7,2,113,1,1042,0,0.6248578,10.2227,3.420222,-1
19,F,1,1,29,8,1,115,3,2442,1,0.138602,6.223492,1.210307,-1
19,F,1,1,29,9,3,116,4,3054,0,0.08167275,6.610715,0.6711472,-1
19,F,1,1,29,10,3,115,3,2887,2,0.201455,6.222361,1.75502,-1
19,F,1,1,29,11,1,114,2,931,0,0.211451,6.590345,1.751448,-1
19,F,1,1,29,12,1,113,1,1854,1,0.3390532,6.214391,2.962335,-1
19,F,1,1,29,13,4,116,4,2454,1,0.1852361,10.37979,0.9968149,-1
19,F,1,1,29,14,4,114,2,620,0,0.2125254,10.44464,1.129519,-1
19,F,1,1,29,15,4,113,1,1231,0,0.03211122,10.20886,0.1758294,-1
19,F,1,1,29,16,3,114,2,909,0,0.2713022,6.593379,2.229673,-1
19,F,1,1,30,1,1,119,3,1387,0,0.441091,6.221371,3.856052,-1
19,F,1,1,30,2,1,117,1,1420,0,0.4228475,6.217349,3.730719,-1
19,F,1,1,30,3,1,118,2,1165,0,0.1058049,6.592591,0.8742447,-1
19,F,1,1,30,4,3,117,1,2765,0,0.4558454,6.209051,4.017612,-1
19,F,1,1,30,5,1,120,4,2376,0,0.4859245,6.600883,3.929196,-1
19,F,1,1,30,6,4,118,2,898,0,0.4619505,10.47337,2.443124,-1
19,F,1,1,30,7,3,120,4,2242,0,0.4192384,6.606202,3.434218,-1
19,F,1,1,30,8,4,117,1,1109,0,0.7684644,10.20366,4.206449,-1
19,F,1,1,30,9,2,118,2,698,0,0.2933002,10.47411,1.581277,-1
19,F,1,1,30,10,2,117,1,1087,0,0.3048227,10.21711,1.669647,-1
19,F,1,1,30,11,4,120,4,2209,0,0.5960994,10.39898,3.206012,-1
19,F,1,1,30,12,3,119,3,2298,1,0.3550108,6.247712,3.106334,-1
19,F,1,1,30,13,2,120,4,1664,0,0.1418946,10.42011,0.7545922,-1
19,F,1,1,30,14,2,119,3,1154,0,0.7736331,10.24363,4.23258,-1
19,F,1,1,30,15,3,118,2,4598,0,0.302004,6.594558,2.487741,-1
19,F,1,1,30,16,4,119,3,1520,0,0.2968332,10.21586,1.617857,-1
19,F,1,1,1,1,8,4,4,15875,0,-1,-1,-1,0
19,F,1,1,1,2,5,1,1,2209,0,-1,-1,-1,0
19,F,1,1,1,3,7,4,4,3853,0,-1,-1,-1,0
19,F,1,1,1,4,5,2,2,2487,0,-1,-1,-1,1
19,F,1,1,1,5,6,4,4,1776,0,-1,-1,-1,0
19,F,1,1,1,6,8,2,2,3676,0,-1,-1,-1,1
19,F,1,1,1,7,5,3,3,2320,0,-1,-1,-1,0
19,F,1,1,1,8,6,2,2,2731,0,-1,-1,-1,0
19,F,1,1,1,9,6,3,3,2465,0,-1,-1,-1,0
19,F,1,1,1,10,7,1,1,1831,0,-1,-1,-1,0
19,F,1,1,1,11,7,3,3,1709,0,-1,-1,-1,1
19,F,1,1,1,12,6,1,1,1653,0,-1,-1,-1,0
19,F,1,1,1,13,8,3,3,1098,0,-1,-1,-1,0
19,F,1,1,1,14,7,2,2,2553,0,-1,-1,-1,1
19,F,1,1,1,15,8,1,1,1776,0,-1,-1,-1,1
19,F,1,1,1,16,5,4,4,1898,0,-1,-1,-1,0
19,F,1,1,2,1,8,3,3,3220,0,-1,-1,-1,0
19,F,1,1,2,2,5,1,1,1787,0,-1,-1,-1,0
19,F,1,1,2,3,5,4,4,2309,0,-1,-1,-1,1
19,F,1,1,2,4,8,2,2,1731,0,-1,-1,-1,1
19,F,1,1,2,5,7,3,3,5798,0,-1,-1,-1,0
19,F,1,1,2,6,8,1,1,1543,0,-1,-1,-1,0
19,F,1,1,2,7,6,3,3,1442,0,-1,-1,-1,1
19,F,1,1,2,8,7,4,4,1920,0,-1,-1,-1,0
19,F,1,1,2,9,5,2,2,1820,0,-1,-1,-1,1
19,F,1,1,2,10,8,4,4,2131,0,-1,-1,-1,0
19,F,1,1,2,11,7,2,2,3776,0,-1,-1,-1,1
19,F,1,1,2,12,7,1,1,1620,0,-1,-1,-1,0
19,F,1,1,2,13,6,2,2,1753,0,-1,-1,-1,0
19,F,1,1,2,14,6,4,4,2331,0,-1,-1,-1,1
19,F,1,1,2,15,5,3,3,1420,0,-1,-1,-1,0
19,F,1,1,2,16,6,1,1,3542,0,-1,-1,-1,0
