Age, Gender, Awareness Type, Session, Block, Trial, Set, Pattern, Quadrant, Response Time, Num Mistakes, Distance From Target, Camera Distance From Target, Angle Error (Degrees), FC Response
35,F,1,1,1,1,1,1,1,1909,0,0.07581294,6.098265,0.6783969,-1
35,F,1,1,1,2,3,2,2,9999,4,-1,-1,-1,-1
35,F,1,1,1,3,3,3,3,3642,0,0.269504,6.321922,2.350603,-1
35,F,1,1,1,4,1,4,4,9999,13,-1,-1,-1,-1
35,F,1,1,1,5,3,1,1,2187,0,0.07000723,6.089571,0.6296288,-1
35,F,1,1,1,6,1,3,3,5420,0,0.2441641,6.349029,2.114611,-1
35,F,1,1,1,7,2,4,4,5309,3,0.8599411,10.29075,4.621096,-1
35,F,1,1,1,8,1,2,2,4420,2,0.3915769,6.365165,3.339765,-1
35,F,1,1,1,9,4,3,3,5098,0,6.431242E-08,10.23956,0,-1
35,F,1,1,1,10,3,4,4,6909,1,0.3368857,6.478983,2.825146,-1
35,F,1,1,1,11,2,3,3,4920,0,0.2636952,10.24968,1.439399,-1
35,F,1,1,1,12,4,2,2,4898,3,0.05884721,10.27455,0.3195939,-1
35,F,1,1,1,13,2,1,1,7898,0,0.1525269,10.25029,0.8289794,-1
35,F,1,1,1,14,4,4,4,9853,2,0.06012829,10.31581,0.3250574,-1
35,F,1,1,1,15,4,1,1,2876,0,0.1849665,10.25146,1.011624,-1
35,F,1,1,1,16,2,2,2,4464,0,0.7265971,10.28777,3.908208,-1
35,F,1,1,2,1,1,8,4,5109,2,0.4561658,6.447081,3.811975,-1
35,F,1,1,2,2,1,6,2,3876,4,0.5033352,6.345413,4.307481,-1
35,F,1,1,2,3,1,5,1,2542,0,0.02110063,6.099371,0.1897456,-1
35,F,1,1,2,4,3,8,4,5587,2,0.5246971,6.466913,4.41894,-1
35,F,1,1,2,5,4,5,1,2220,0,0.2526794,10.23534,1.385645,-1
35,F,1,1,2,6,1,7,3,4531,0,0.4620949,6.346963,4.007412,-1
35,F,1,1,2,7,3,6,2,3909,3,0.05164421,6.36512,0.4405747,-1
35,F,1,1,2,8,2,8,4,4609,1,0.782504,10.3456,4.191991,-1
35,F,1,1,2,9,4,7,3,3242,2,0.1210085,10.19976,0.6575991,-1
35,F,1,1,2,10,2,5,1,2909,0,0.5544115,10.23559,3.068671,-1
35,F,1,1,2,11,3,7,3,4487,0,0.2963319,6.288853,2.586718,-1
35,F,1,1,2,12,2,6,2,2687,2,0.5304964,10.27061,2.866145,-1
35,F,1,1,2,13,3,5,1,2353,0,0.04700293,6.123184,0.4215088,-1
35,F,1,1,2,14,2,7,3,4698,0,0.1771561,10.23697,0.9679322,-1
35,F,1,1,2,15,4,6,2,2743,3,0.6026171,10.27753,3.265787,-1
35,F,1,1,2,16,4,8,4,6031,4,0.07072392,10.34482,0.3805216,-1
35,F,1,1,3,1,1,9,1,3265,0,0.163026,6.085716,1.47777,-1
35,F,1,1,3,2,2,12,4,3742,0,0.5501828,10.34381,2.946632,-1
35,F,1,1,3,3,1,10,2,2642,0,0.2817083,6.383923,2.395309,-1
35,F,1,1,3,4,3,9,1,2142,0,0.04989139,6.122696,0.4471871,-1
35,F,1,1,3,5,2,10,2,1409,0,0.4825679,10.28773,2.594501,-1
35,F,1,1,3,6,3,11,3,4665,1,0.4180965,6.344783,3.626769,-1
35,F,1,1,3,7,4,9,1,1809,0,0.4935667,10.21905,2.671151,-1
35,F,1,1,3,8,1,12,4,4353,0,0.468478,6.44373,3.915267,-1
35,F,1,1,3,9,3,10,2,1964,0,0.3314914,6.406231,2.831099,-1
35,F,1,1,3,10,1,11,3,5876,6,0.5350299,6.327889,4.727955,-1
35,F,1,1,3,11,2,9,1,2276,0,0.2900262,10.24714,1.598754,-1
35,F,1,1,3,12,4,12,4,5587,6,0.6067211,10.33806,3.251428,-1
35,F,1,1,3,13,2,11,3,4842,0,0.3238708,10.24469,1.748317,-1
35,F,1,1,3,14,4,10,2,7075,2,0.6084551,10.32249,3.269621,-1
35,F,1,1,3,15,4,11,3,3231,1,0.8702944,10.20873,4.720532,-1
35,F,1,1,3,16,3,12,4,6198,3,0.3914962,6.456649,3.32649,-1
35,F,1,1,4,1,3,14,2,1509,0,0.5259683,6.379314,4.482488,-1
35,F,1,1,4,2,3,13,1,3009,0,2.147803E-07,6.090511,0,-1
35,F,1,1,4,3,1,15,3,4531,0,0.2576129,6.33107,2.250468,-1
35,F,1,1,4,4,3,16,4,5887,2,0.5170715,6.487299,4.352892,-1
35,F,1,1,4,5,4,14,2,1420,0,0.3875565,10.28488,2.096392,-1
35,F,1,1,4,6,4,13,1,2253,0,0.4770203,10.18059,2.592236,-1
35,F,1,1,4,7,2,14,2,2998,4,0.7629572,10.19709,4.138673,-1
35,F,1,1,4,8,2,13,1,5487,0,3.481142E-07,10.23947,0,-1
35,F,1,1,4,9,2,16,4,2887,0,0.6052711,10.34583,3.238094,-1
35,F,1,1,4,10,2,15,3,4253,0,0.4591853,10.23849,2.484435,-1
35,F,1,1,4,11,1,14,2,2331,1,0.4385074,6.358691,3.744183,-1
35,F,1,1,4,12,1,16,4,5131,3,0.001785228,6.452067,0.01978234,-1
35,F,1,1,4,13,4,15,3,3186,0,0.8051826,10.20686,4.357389,-1
35,F,1,1,4,14,4,16,4,4898,1,0.7914178,10.32511,4.236003,-1
35,F,1,1,4,15,1,13,1,1965,0,0.330568,6.063386,3.040021,-1
35,F,1,1,4,16,3,15,3,6709,5,0.2798413,6.297472,2.45997,-1
35,F,1,1,5,1,4,18,2,9999,7,-1,-1,-1,-1
35,F,1,1,5,2,2,20,4,3798,4,0.8693162,10.32598,4.661613,-1
35,F,1,1,5,3,3,18,2,4853,10,0.3084087,6.35023,2.641973,-1
35,F,1,1,5,4,1,17,1,1620,0,5.663967E-08,6.084085,0,-1
35,F,1,1,5,5,2,18,2,3209,7,0.3389543,10.26659,1.829062,-1
35,F,1,1,5,6,3,20,4,7331,18,0.5516384,6.472885,4.679605,-1
35,F,1,1,5,7,3,19,3,5509,0,2.919756E-07,6.365409,0,-1
35,F,1,1,5,8,4,20,4,6020,6,0.6080679,10.30285,3.256662,-1
35,F,1,1,5,9,4,17,1,1821,0,8.750276E-08,10.26577,0,-1
35,F,1,1,5,10,1,18,2,3187,2,6.783751E-08,6.380765,0,-1
35,F,1,1,5,11,2,19,3,3031,0,0.5786042,10.25829,3.126248,-1
35,F,1,1,5,12,2,17,1,2187,0,0.221643,10.25374,1.222533,-1
35,F,1,1,5,13,4,19,3,3798,0,0.6861596,10.25842,3.708081,-1
35,F,1,1,5,14,3,17,1,1831,0,0.3904434,6.118719,3.477502,-1
35,F,1,1,5,15,1,20,4,5653,4,0.3734346,6.470578,3.181555,-1
35,F,1,1,5,16,1,19,3,4098,0,0.4909606,6.372353,4.240208,-1
35,F,1,1,6,1,4,24,4,4908,8,0.4541841,10.33931,2.419456,-1
35,F,1,1,6,2,4,21,1,2398,0,0.005386347,10.24059,0.03426402,-1
35,F,1,1,6,3,3,23,3,4398,1,0.4349508,6.343204,3.798905,-1
35,F,1,1,6,4,1,22,2,3787,3,0.4681038,6.369301,3.961261,-1
35,F,1,1,6,5,1,21,1,2198,0,0.0642425,6.093609,0.5784457,-1
35,F,1,1,6,6,3,22,2,3454,1,0.2627027,6.375495,2.229058,-1
35,F,1,1,6,7,4,23,3,3820,0,0.339863,10.25804,1.834084,-1
35,F,1,1,6,8,2,24,4,4209,0,0.680014,10.3722,3.633187,-1
35,F,1,1,6,9,1,23,3,8098,0,1.644867E-07,6.385021,0,-1
35,F,1,1,6,10,4,22,2,1698,0,0.5736828,10.25963,3.082166,-1
35,F,1,1,6,11,2,23,3,4042,0,0.07266322,10.23584,0.3956476,-1
35,F,1,1,6,12,3,24,4,6342,5,0.2599255,6.455033,2.177177,-1
35,F,1,1,6,13,2,22,2,7298,0,0.2118037,10.30873,1.142438,-1
35,F,1,1,6,14,2,21,1,1942,0,0.5450402,10.26442,2.93685,-1
35,F,1,1,6,15,1,24,4,5298,0,0.4085924,6.465181,3.483633,-1
35,F,1,1,6,16,3,21,1,3065,0,0.3014935,6.140196,2.678834,-1
35,F,1,1,7,1,3,27,3,5231,0,0.02966676,6.308321,0.2571706,-1
35,F,1,1,7,2,3,25,1,2665,0,1.67173E-07,6.129987,0,-1
35,F,1,1,7,3,2,28,4,3765,0,0.7849269,10.35803,4.200159,-1
35,F,1,1,7,4,1,27,3,4320,0,0.1640901,6.342198,1.422716,-1
35,F,1,1,7,5,2,26,2,1209,0,0.3261081,10.28643,1.757137,-1
35,F,1,1,7,6,2,27,3,2731,0,0.4163502,10.23912,2.249162,-1
35,F,1,1,7,7,1,28,4,5442,3,1.049672E-07,6.461423,0,-1
35,F,1,1,7,8,3,26,2,1587,0,0.1951232,6.38123,1.669295,-1
35,F,1,1,7,9,4,28,4,3576,2,0.7804146,10.33638,4.17903,-1
35,F,1,1,7,10,4,25,1,1842,0,0.7449131,10.25524,4.096103,-1
35,F,1,1,7,11,3,28,4,5842,5,0.488742,6.486639,4.115231,-1
35,F,1,1,7,12,1,25,1,1587,0,0.3098283,6.082598,2.83559,-1
35,F,1,1,7,13,4,26,2,3231,2,0.807943,10.26012,4.373675,-1
35,F,1,1,7,14,2,25,1,2987,0,0.7666152,10.25916,4.236188,-1
35,F,1,1,7,15,4,27,3,4853,0,0.3256825,10.23637,1.776191,-1
35,F,1,1,7,16,1,26,2,2787,1,0.5047678,6.386244,4.258506,-1
35,F,1,1,8,1,1,32,4,3120,0,0.5100133,6.460808,4.319241,-1
35,F,1,1,8,2,2,30,2,1876,0,0.8436144,10.30426,4.530127,-1
35,F,1,1,8,3,3,31,3,7153,0,0.1528625,6.374132,1.327954,-1
35,F,1,1,8,4,3,29,1,1853,0,0.06358491,6.117719,0.5709552,-1
35,F,1,1,8,5,4,32,4,3976,0,0.673338,10.32672,3.60804,-1
35,F,1,1,8,6,2,29,1,2409,0,0.07599086,10.25242,0.4149588,-1
35,F,1,1,8,7,3,30,2,2576,0,0.3202039,6.400148,2.745735,-1
35,F,1,1,8,8,2,31,3,2687,0,0.4633207,10.22955,2.505382,-1
35,F,1,1,8,9,4,29,1,1898,0,1.206999E-08,10.22189,0,-1
35,F,1,1,8,10,3,32,4,4198,3,0.5064938,6.464375,4.326173,-1
35,F,1,1,8,11,1,31,3,6687,2,0.4508623,6.329363,3.919915,-1
35,F,1,1,8,12,4,30,2,5498,0,0.6657596,10.27925,3.584957,-1
35,F,1,1,8,13,4,31,3,3542,2,0.6957322,10.16758,3.853156,-1
35,F,1,1,8,14,1,29,1,1709,0,0.2114272,6.071076,1.926712,-1
35,F,1,1,8,15,1,30,2,2765,2,0.5049579,6.380185,4.29067,-1
35,F,1,1,8,16,2,32,4,3742,2,0.5524204,10.31892,2.965505,-1
35,F,1,1,9,1,2,35,3,2642,0,0.7528128,10.22983,4.074965,-1
35,F,1,1,9,2,2,36,4,3387,0,0.7141402,10.33869,3.827764,-1
35,F,1,1,9,3,1,34,2,2376,0,0.3167618,6.385561,2.693409,-1
35,F,1,1,9,4,3,35,3,4287,2,0.3963326,6.284486,3.462945,-1
35,F,1,1,9,5,4,36,4,4298,0,0.5404418,10.3358,2.896649,-1
35,F,1,1,9,6,4,35,3,5398,0,0.8301923,10.20827,4.613927,-1
35,F,1,1,9,7,1,33,1,4709,2,0.3589973,6.077745,3.21132,-1
35,F,1,1,9,8,1,35,3,5131,1,0.3708805,6.329595,3.222457,-1
35,F,1,1,9,9,2,33,1,4875,0,0.2816746,10.23679,1.52675,-1
35,F,1,1,9,10,3,34,2,2476,0,0.05782034,6.370225,0.4929749,-1
35,F,1,1,9,11,3,36,4,4365,4,0.08213198,6.442375,0.6921035,-1
35,F,1,1,9,12,4,33,1,2576,0,0.5606689,10.23617,3.083309,-1
35,F,1,1,9,13,2,34,2,1309,0,0.5354287,10.28652,2.879296,-1
35,F,1,1,9,14,3,33,1,2365,1,0.4914006,6.049238,4.558531,-1
35,F,1,1,9,15,1,36,4,3620,0,0.4077584,6.440732,3.434503,-1
35,F,1,1,9,16,4,34,2,1764,0,0.1349749,10.26204,0.7300779,-1
35,F,1,1,10,1,2,39,3,4198,0,0.1723375,10.22074,0.9431533,-1
35,F,1,1,10,2,1,38,2,2376,0,0.3029529,6.38548,2.574126,-1
35,F,1,1,10,3,3,40,4,5564,2,0.4935954,6.453706,4.249759,-1
35,F,1,1,10,4,1,39,3,3287,0,0.3187141,6.426276,2.727998,-1
35,F,1,1,10,5,1,40,4,4187,5,1.602119E-07,6.502816,0,-1
35,F,1,1,10,6,2,37,1,2153,0,0.2939017,10.29473,1.61701,-1
35,F,1,1,10,7,2,40,4,3076,0,0.2748112,10.38326,1.469404,-1
35,F,1,1,10,8,4,39,3,7431,6,0.3828756,10.26057,2.075563,-1
35,F,1,1,10,9,4,37,1,1877,0,0.3490218,10.26705,1.902486,-1
35,F,1,1,10,10,2,38,2,1620,0,0.5976538,10.36547,3.227011,-1
35,F,1,1,10,11,3,37,1,2131,0,0.5016848,6.143977,4.441179,-1
35,F,1,1,10,12,3,38,2,2754,2,0.3043256,6.422979,2.561244,-1
35,F,1,1,10,13,3,39,3,4554,1,0.5229112,6.328947,4.577185,-1
35,F,1,1,10,14,1,37,1,2920,0,0.4674428,6.129853,4.18067,-1
35,F,1,1,10,15,4,38,2,1309,0,0.4846151,10.31611,2.59518,-1
35,F,1,1,10,16,4,40,4,5953,4,0.6622391,10.38278,3.578507,-1
35,F,1,1,11,1,1,42,2,1787,0,0.313986,6.43324,2.650701,-1
35,F,1,1,11,2,1,44,4,4953,5,1.992711E-07,6.482229,0,-1
35,F,1,1,11,3,1,43,3,4587,2,0.5445547,6.355949,4.716132,-1
35,F,1,1,11,4,2,41,1,2120,0,0.125414,10.285,0.6832828,-1
35,F,1,1,11,5,2,42,2,1787,2,0.8244269,10.32694,4.417831,-1
35,F,1,1,11,6,4,43,3,5386,0,0.5376639,10.26103,2.920005,-1
35,F,1,1,11,7,4,41,1,1676,0,0.2295739,10.25119,1.253514,-1
35,F,1,1,11,8,3,42,2,1731,0,0.2341233,6.410728,1.974966,-1
35,F,1,1,11,9,3,41,1,2475,0,0.02425461,6.118842,0.2158,-1
35,F,1,1,11,10,4,42,2,1431,0,0.2722076,10.34853,1.462596,-1
35,F,1,1,11,11,3,44,4,6375,5,0.03523261,6.473211,0.2980514,-1
35,F,1,1,11,12,3,43,3,4497,1,0.5395331,6.330369,4.658838,-1
35,F,1,1,11,13,2,44,4,3898,0,0.8838761,10.37817,4.721818,-1
35,F,1,1,11,14,1,41,1,1886,0,0.1004311,6.120644,0.8959111,-1
35,F,1,1,11,15,4,44,4,4531,2,0.8174326,10.36542,4.483973,-1
35,F,1,1,11,16,2,43,3,2731,0,0.4110852,10.26376,2.218938,-1
35,F,1,1,12,1,1,48,4,7198,13,0.2908657,6.516949,2.423416,-1
35,F,1,1,12,2,2,46,2,1854,1,0.826661,10.33003,4.512017,-1
35,F,1,1,12,3,3,48,4,3842,0,0.3321972,6.513621,2.798763,-1
35,F,1,1,12,4,4,46,2,1520,1,0.8601537,10.30923,4.602195,-1
35,F,1,1,12,5,4,45,1,1431,0,0.4077088,10.28848,2.20478,-1
35,F,1,1,12,6,2,47,3,4109,0,0.2320941,10.27118,1.251795,-1
35,F,1,1,12,7,3,45,1,7498,2,0.1266518,6.15351,1.135566,-1
35,F,1,1,12,8,3,47,3,3687,0,0.1454478,6.343775,1.261605,-1
35,F,1,1,12,9,2,48,4,1942,0,0.268946,10.39218,1.436132,-1
35,F,1,1,12,10,1,45,1,1609,0,0.02139028,6.126194,0.1907741,-1
35,F,1,1,12,11,1,47,3,3731,1,0.5044865,6.375806,4.356085,-1
35,F,1,1,12,12,1,46,2,2064,0,0.4945341,6.412173,4.189888,-1
35,F,1,1,12,13,4,48,4,3309,0,0.3994279,10.40103,2.139363,-1
35,F,1,1,12,14,2,45,1,2331,0,0.08440866,10.27808,0.4609765,-1
35,F,1,1,12,15,3,46,2,4520,6,0.3895943,6.369679,3.317827,-1
35,F,1,1,12,16,4,47,3,4020,0,0.3285103,10.22982,1.799289,-1
35,F,1,1,13,1,2,50,2,1142,0,0.6793604,10.31663,3.644058,-1
35,F,1,1,13,2,3,51,3,5198,2,3.577477E-08,6.310991,0,-1
35,F,1,1,13,3,4,49,1,1909,0,0.3149701,10.27708,1.705021,-1
35,F,1,1,13,4,1,51,3,3920,0,0.2878823,6.362508,2.487033,-1
35,F,1,1,13,5,1,49,1,2372,0,0.3808984,6.106918,3.392807,-1
35,F,1,1,13,6,2,51,3,3656,0,0.6595064,10.26085,3.562989,-1
35,F,1,1,13,7,3,49,1,3555,0,0.2205312,6.137135,1.967818,-1
35,F,1,1,13,8,2,52,4,2065,0,0.1347285,10.3789,0.721179,-1
35,F,1,1,13,9,4,50,2,1687,1,0.8179467,10.2905,4.373675,-1
35,F,1,1,13,10,1,52,4,4342,2,1.974611E-07,6.480648,0,-1
35,F,1,1,13,11,2,49,1,2164,0,0.2396347,10.26921,1.309105,-1
35,F,1,1,13,12,4,51,3,3531,0,0.6791332,10.25342,3.689129,-1
35,F,1,1,13,13,1,50,2,2953,2,0.2775229,6.403617,2.349187,-1
35,F,1,1,13,14,4,52,4,5398,1,0.6924173,10.36027,3.682807,-1
35,F,1,1,13,15,3,50,2,3276,2,1.287983E-07,6.40891,0,-1
35,F,1,1,13,16,3,52,4,4898,2,0.3282267,6.521182,2.793302,-1
35,F,1,1,14,1,4,55,3,3142,0,0.5087178,10.28522,2.75385,-1
35,F,1,1,14,2,2,54,2,1198,0,0.4062461,10.32112,2.181578,-1
35,F,1,1,14,3,2,53,1,1820,0,0.8790527,10.26928,4.769742,-1
35,F,1,1,14,4,3,54,2,1854,0,1.331636E-07,6.407804,0,-1
35,F,1,1,14,5,3,55,3,3376,0,0.5141193,6.367477,4.445763,-1
35,F,1,1,14,6,4,56,4,3642,0,0.493403,10.36838,2.63039,-1
35,F,1,1,14,7,1,53,1,1787,0,0.3303396,6.099434,3.014348,-1
35,F,1,1,14,8,1,55,3,3542,0,0.5452627,6.374005,4.707401,-1
35,F,1,1,14,9,1,56,4,3698,2,0.05316951,6.487378,0.4463111,-1
35,F,1,1,14,10,4,53,1,1476,0,0.5066332,10.30947,2.769656,-1
35,F,1,1,14,11,4,54,2,1442,0,0.2566116,10.35457,1.379275,-1
35,F,1,1,14,12,3,56,4,4987,6,1.104227E-07,6.503062,0,-1
35,F,1,1,14,13,2,55,3,4053,0,0.3649077,10.25789,1.985048,-1
35,F,1,1,14,14,2,56,4,5520,5,0.3940108,10.383,2.140369,-1
35,F,1,1,14,15,3,53,1,2698,0,6.200572E-08,6.156322,0,-1
35,F,1,1,14,16,1,54,2,1942,0,0.4558663,6.423048,3.855747,-1
35,F,1,1,15,1,3,59,3,4320,0,0.3867773,6.331992,3.337537,-1
35,F,1,1,15,2,1,60,4,5575,6,0.1631728,6.484977,1.386069,-1
35,F,1,1,15,3,2,57,1,2031,0,0.2142207,10.28561,1.177859,-1
35,F,1,1,15,4,2,60,4,3265,0,0.3720045,10.38296,1.984456,-1
35,F,1,1,15,5,4,57,1,1787,0,0.1354214,10.29085,0.7372789,-1
35,F,1,1,15,6,4,60,4,4698,2,0.5021924,10.38951,2.682923,-1
35,F,1,1,15,7,3,58,2,3842,2,0.05158735,6.433521,0.4414621,-1
35,F,1,1,15,8,1,57,1,2531,0,1.400965E-07,6.127947,0,-1
35,F,1,1,15,9,1,59,3,4620,3,0.07553163,6.371241,0.651921,-1
35,F,1,1,15,10,1,58,2,8387,2,0.3098967,6.43097,2.616587,-1
35,F,1,1,15,11,4,59,3,2554,0,0.6432607,10.28773,3.485431,-1
35,F,1,1,15,12,2,58,2,1976,2,0.270032,10.3455,1.468871,-1
35,F,1,1,15,13,2,59,3,5520,4,0.6914483,10.26676,3.761454,-1
35,F,1,1,15,14,4,58,2,1576,0,0.6237209,10.33983,3.337947,-1
35,F,1,1,15,15,3,57,1,5453,0,0.3834409,6.148824,3.404674,-1
35,F,1,1,15,16,3,60,4,5798,4,0.153464,6.485933,1.30161,-1
35,F,1,1,16,1,3,61,1,1854,0,0.5268333,6.150027,4.796405,-1
35,F,1,1,16,2,3,62,2,1843,0,0.3412268,6.435843,2.923355,-1
35,F,1,1,16,3,4,63,3,5909,0,0.7676505,10.27476,4.142646,-1
35,F,1,1,16,4,1,64,4,8687,6,0.5402622,6.487751,4.554318,-1
35,F,1,1,16,5,1,61,1,2009,0,1.726537E-07,6.12653,0.01978234,-1
35,F,1,1,16,6,4,64,4,6142,1,0.8815272,10.39288,4.729239,-1
35,F,1,1,16,7,2,63,3,4898,0,0.4415972,10.25382,2.392038,-1
35,F,1,1,16,8,2,61,1,1709,0,0.2557544,10.29108,1.393953,-1
35,F,1,1,16,9,3,64,4,5098,5,0.09162251,6.483734,0.7753122,-1
35,F,1,1,16,10,1,62,2,2420,0,0.05173066,6.440295,0.4374548,-1
35,F,1,1,16,11,4,61,1,2376,2,0.6336612,10.26346,3.406973,-1
35,F,1,1,16,12,2,64,4,4276,1,0.7855728,10.37605,4.196474,-1
35,F,1,1,16,13,1,63,3,4964,0,0.3100208,6.359143,2.679273,-1
35,F,1,1,16,14,4,62,2,1220,0,0.3702575,10.31107,1.978827,-1
35,F,1,1,16,15,3,63,3,4020,0,0.51301,6.307109,4.467825,-1
35,F,1,1,16,16,2,62,2,1265,0,0.09261154,10.33789,0.4985009,-1
35,F,1,1,17,1,4,65,1,1331,0,0.8480085,10.30642,4.553889,-1
35,F,1,1,17,2,4,66,2,2265,4,0.712473,10.31763,3.887409,-1
35,F,1,1,17,3,1,67,3,3865,0,0.2544407,6.367622,2.197934,-1
35,F,1,1,17,4,2,66,2,1453,1,0.8182118,10.34125,4.436148,-1
35,F,1,1,17,5,3,67,3,3464,0,0.2144377,6.368384,1.851923,-1
35,F,1,1,17,6,2,68,4,3220,0,0.0984249,10.38975,0.5263757,-1
35,F,1,1,17,7,4,67,3,2609,0,0.678623,10.23935,3.648192,-1
35,F,1,1,17,8,1,68,4,3409,0,0.3284886,6.483097,2.77008,-1
35,F,1,1,17,9,3,66,2,1898,0,0.2393397,6.455092,2.011589,-1
35,F,1,1,17,10,2,65,1,1942,0,0.2836839,10.29903,1.528543,-1
35,F,1,1,17,11,1,66,2,3276,3,0.327439,6.416902,2.785021,-1
35,F,1,1,17,12,3,68,4,5298,3,0.2937955,6.496703,2.448885,-1
35,F,1,1,17,13,2,67,3,4342,4,0.7910724,10.2492,4.355726,-1
35,F,1,1,17,14,3,65,1,2231,0,0.2444858,6.181827,2.166092,-1
35,F,1,1,17,15,4,68,4,3842,2,0.0494997,10.37644,0.2646699,-1
35,F,1,1,17,16,1,65,1,1909,0,0.1408989,6.145039,1.250857,-1
35,F,1,1,18,1,2,70,2,4676,0,0.3580673,10.367,1.917038,-1
35,F,1,1,18,2,1,71,3,4209,0,0.2620182,6.388148,2.25646,-1
35,F,1,1,18,3,1,70,2,2554,0,0.2996901,6.435747,2.51855,-1
35,F,1,1,18,4,4,72,4,4942,7,0.1512216,10.39084,0.8076981,-1
35,F,1,1,18,5,4,70,2,1431,0,0.5845713,10.34226,3.140929,-1
35,F,1,1,18,6,3,72,4,4776,0,0.4549421,6.515408,3.856407,-1
35,F,1,1,18,7,4,69,1,1565,0,0.543313,10.29705,2.9692,-1
35,F,1,1,18,8,4,71,3,4087,2,0.3270088,10.27586,1.77012,-1
35,F,1,1,18,9,3,69,1,5153,1,0.5011149,6.168102,4.435972,-1
35,F,1,1,18,10,2,71,3,4020,2,0.7380899,10.27412,3.979559,-1
35,F,1,1,18,11,1,72,4,5698,5,3.143335E-07,6.485723,0,-1
35,F,1,1,18,12,1,69,1,2076,0,2.157304E-07,6.098052,0,-1
35,F,1,1,18,13,3,70,2,1442,0,0.1059119,6.42259,0.901789,-1
35,F,1,1,18,14,2,69,1,1831,0,0.221387,10.27629,1.210307,-1
35,F,1,1,18,15,2,72,4,3409,0,1.89289E-07,10.38719,0,-1
35,F,1,1,18,16,3,71,3,4520,0,0.4587507,6.376998,3.957403,-1
35,F,1,1,19,1,2,74,2,1398,0,0.5184905,10.32577,2.8495,-1
35,F,1,1,19,2,1,75,3,3886,0,0.1206794,6.374046,1.040987,-1
35,F,1,1,19,3,1,76,4,3654,2,0.2545145,6.487783,2.12108,-1
35,F,1,1,19,4,2,75,3,2876,0,0.3802631,10.26488,2.052236,-1
35,F,1,1,19,5,4,76,4,5131,4,0.8131629,10.39708,4.396544,-1
35,F,1,1,19,6,4,73,1,2398,0,0.7206774,10.29443,3.968472,-1
35,F,1,1,19,7,1,74,2,1909,0,0.4499197,6.410451,3.812438,-1
35,F,1,1,19,8,3,75,3,4131,0,0.2182779,6.339003,1.906083,-1
35,F,1,1,19,9,3,73,1,1920,0,0.3659846,6.133074,3.323723,-1
35,F,1,1,19,10,3,76,4,3731,0,0.3181287,6.518299,2.690136,-1
35,F,1,1,19,11,1,73,1,1520,0,0.198957,6.140707,1.774316,-1
35,F,1,1,19,12,3,74,2,1887,0,0.2974293,6.443377,2.531341,-1
35,F,1,1,19,13,4,75,3,2276,0,0.4230061,10.27489,2.29243,-1
35,F,1,1,19,14,2,73,1,1465,0,0.3606859,10.29998,1.966923,-1
35,F,1,1,19,15,4,74,2,1220,0,0.5384292,10.33118,2.882626,-1
35,F,1,1,19,16,2,76,4,3376,0,0.001898717,10.3951,0,-1
35,F,1,1,20,1,1,78,2,2109,0,0.1156033,6.44139,0.9751828,-1
35,F,1,1,20,2,1,80,4,4342,0,0.524992,6.480049,4.467562,-1
35,F,1,1,20,3,4,77,1,1509,0,0.4403683,10.30435,2.367115,-1
35,F,1,1,20,4,2,80,4,2620,0,0.3123607,10.39273,1.664599,-1
35,F,1,1,20,5,3,78,2,1931,0,0.3553396,6.425126,2.986554,-1
35,F,1,1,20,6,2,79,3,3087,0,0.286508,10.28908,1.542435,-1
35,F,1,1,20,7,4,78,2,9999,0,-1,-1,-1,-1
35,F,1,1,20,8,3,79,3,4364,0,0.1344132,6.352636,1.155552,-1
35,F,1,1,20,9,1,77,1,1687,0,0.1284229,6.135105,1.144321,-1
35,F,1,1,20,10,4,80,4,3842,0,0.1893419,10.4022,1.010269,-1
35,F,1,1,20,11,3,77,1,8587,6,0.505306,6.146422,4.560679,-1
35,F,1,1,20,12,1,79,3,3342,0,0.09128114,6.377392,0.7868362,-1
35,F,1,1,20,13,3,80,4,4409,2,0.1065903,6.493715,0.9002688,-1
35,F,1,1,20,14,2,77,1,1465,0,0.5029818,10.29698,2.767959,-1
35,F,1,1,20,15,2,78,2,1098,0,0.2116517,10.3441,1.136428,-1
35,F,1,1,20,16,4,79,3,5398,0,0.7012371,10.25755,3.805034,-1
35,F,1,1,21,1,2,82,2,1742,2,0.4321893,10.26588,2.340925,-1
35,F,1,1,21,2,2,81,1,1453,0,0.1075568,10.21436,0.589503,-1
35,F,1,1,21,3,2,83,3,2842,0,0.3967354,10.24943,2.144206,-1
35,F,1,1,21,4,1,82,2,3809,4,0.528576,6.338811,4.696569,-1
35,F,1,1,21,5,1,81,1,1465,0,0.3329316,6.065944,3.035317,-1
35,F,1,1,21,6,1,84,4,3664,0,0.08613959,6.480378,0.7222635,-1
35,F,1,1,21,7,3,82,2,1609,0,0.007064711,6.351028,0.05595291,-1
35,F,1,1,21,8,4,81,1,1687,0,0.04831855,10.2124,0.2654082,-1
35,F,1,1,21,9,3,84,4,3809,0,0.1621672,6.501753,1.362862,-1
35,F,1,1,21,10,4,83,3,3708,0,0.5171105,10.24121,2.814108,-1
35,F,1,1,21,11,4,82,2,1265,0,0.6522454,10.25979,3.614384,-1
35,F,1,1,21,12,3,81,1,3920,5,1.087882E-07,6.052903,0,-1
35,F,1,1,21,13,1,83,3,3054,0,0.3148822,6.371874,2.718006,-1
35,F,1,1,21,14,2,84,4,3542,2,0.785904,10.36541,4.202024,-1
35,F,1,1,21,15,3,83,3,3815,0,1.909324E-08,6.373803,0,-1
35,F,1,1,21,16,4,84,4,5742,1,0.5135805,10.33564,2.72412,-1
35,F,1,1,22,1,4,86,2,1831,1,0.794559,10.27242,4.390169,-1
35,F,1,1,22,2,3,85,1,1987,0,0.3783631,6.104215,3.388823,-1
35,F,1,1,22,3,3,86,2,1876,0,0.1707232,6.369292,1.468871,-1
35,F,1,1,22,4,1,85,1,1987,0,0.1144999,6.040344,1.042489,-1
35,F,1,1,22,5,3,88,4,4509,2,9.540214E-08,6.48827,0,-1
35,F,1,1,22,6,4,85,1,2331,0,0.353925,10.22593,1.960744,-1
35,F,1,1,22,7,2,88,4,3386,1,0.1866145,10.37598,1.00833,-1
35,F,1,1,22,8,1,87,3,3654,0,0.04223998,6.383918,0.364769,-1
35,F,1,1,22,9,1,86,2,2265,0,0.2442869,6.324541,2.089378,-1
35,F,1,1,22,10,2,85,1,1676,0,0.341979,10.19906,1.899604,-1
35,F,1,1,22,11,4,88,4,4476,4,0.7126293,10.3397,3.920865,-1
35,F,1,1,22,12,3,87,3,4386,0,0.0288697,6.39079,0.249446,-1
35,F,1,1,22,13,1,88,4,4198,2,0.2949191,6.493584,2.496851,-1
35,F,1,1,22,14,4,87,3,5787,7,0.8386613,10.23211,4.56939,-1
35,F,1,1,22,15,2,86,2,1087,0,0.3858513,10.25499,2.125412,-1
35,F,1,1,22,16,2,87,3,2931,0,0.7003798,10.24608,3.787807,-1
35,F,1,1,23,1,2,92,4,3320,0,0.3961346,10.35223,2.119603,-1
35,F,1,1,23,2,1,91,3,3587,0,0.3194243,6.382952,2.752997,-1
35,F,1,1,23,3,3,92,4,4597,0,3.582095E-08,6.509126,0,-1
35,F,1,1,23,4,1,90,2,1676,0,0.1636574,6.328063,1.402629,-1
35,F,1,1,23,5,3,89,1,1520,0,0.2867407,6.045234,2.642195,-1
35,F,1,1,23,6,3,91,3,4775,4,0.01932572,6.324332,0.166689,-1
35,F,1,1,23,7,1,89,1,2598,2,0.1594639,6.050169,1.455084,-1
35,F,1,1,23,8,4,92,4,3009,0,0.452501,10.3324,2.408591,-1
35,F,1,1,23,9,4,90,2,1776,2,0.527577,10.25577,2.866896,-1
35,F,1,1,23,10,2,89,1,1609,0,0.187743,10.21489,1.037786,-1
35,F,1,1,23,11,3,90,2,1765,0,0.1057277,6.330763,0.9110718,-1
35,F,1,1,23,12,2,91,3,3142,0,0.804554,10.25621,4.346994,-1
35,F,1,1,23,13,4,89,1,1497,0,0.3787768,10.18191,2.089847,-1
35,F,1,1,23,14,1,92,4,3986,1,0.3842895,6.490944,3.265247,-1
35,F,1,1,23,15,2,90,2,1742,0,0.539662,10.26344,2.957309,-1
35,F,1,1,23,16,4,91,3,3853,0,0.6751155,10.25985,3.69491,-1
35,F,1,1,24,1,3,94,2,1764,0,0.02393665,6.342406,0.2055842,-1
35,F,1,1,24,2,4,96,4,2875,0,0.7904389,10.34289,4.230637,-1
35,F,1,1,24,3,4,93,1,1409,0,0.09856753,10.17292,0.5406791,-1
35,F,1,1,24,4,1,95,3,5620,6,3.903519E-08,6.378975,0,-1
35,F,1,1,24,5,1,94,2,2031,0,3.358856E-07,6.336758,0,-1
35,F,1,1,24,6,2,96,4,2587,0,0.7724487,10.36266,4.122696,-1
35,F,1,1,24,7,3,93,1,2376,0,0.4260522,6.071863,3.922562,-1
35,F,1,1,24,8,4,95,3,4242,0,0.8469656,10.21611,4.591371,-1
35,F,1,1,24,9,2,93,1,1687,0,0.6059983,10.21202,3.345505,-1
35,F,1,1,24,10,2,95,3,3820,3,0.379263,10.24823,2.078861,-1
35,F,1,1,24,11,1,96,4,3631,0,0.4582627,6.490034,3.89536,-1
35,F,1,1,24,12,2,94,2,1331,0,0.235054,10.26229,1.272878,-1
35,F,1,1,24,13,3,95,3,3642,0,0.3958442,6.384101,3.411395,-1
35,F,1,1,24,14,4,94,2,1176,0,0.380179,10.25849,2.086848,-1
35,F,1,1,24,15,1,93,1,1898,0,0.1787413,6.050159,1.637216,-1
35,F,1,1,24,16,3,96,4,4309,0,0.4510578,6.508178,3.806475,-1
35,F,1,1,25,1,1,99,3,3776,1,0.12015,6.370345,1.037598,-1
35,F,1,1,25,2,3,97,1,2776,2,0.1838222,6.026825,1.686208,-1
35,F,1,1,25,3,3,100,4,3387,0,1.128988E-07,6.481884,0,-1
35,F,1,1,25,4,2,98,2,1220,0,0.5645022,10.27042,3.091362,-1
35,F,1,1,25,5,1,97,1,1487,0,0.3495361,6.037515,3.232527,-1
35,F,1,1,25,6,1,100,4,3265,0,0.2157376,6.47834,1.802331,-1
35,F,1,1,25,7,2,99,3,2820,0,0.4815044,10.24577,2.604515,-1
35,F,1,1,25,8,3,98,2,1442,0,0.04009172,6.336755,0.3432113,-1
35,F,1,1,25,9,4,99,3,3520,2,0.7604734,10.2093,4.118989,-1
35,F,1,1,25,10,2,100,4,3998,0,0.5398795,10.35627,2.888257,-1
35,F,1,1,25,11,3,99,3,3664,0,0.3227859,6.390526,2.776856,-1
35,F,1,1,25,12,2,97,1,1776,0,0.510056,10.21742,2.827847,-1
35,F,1,1,25,13,4,98,2,6287,1,7.464853E-08,10.25443,0,-1
35,F,1,1,25,14,4,97,1,1442,0,0.6863071,10.21576,3.807144,-1
35,F,1,1,25,15,1,98,2,2220,1,0.4572129,6.338783,3.915117,-1
35,F,1,1,25,16,4,100,4,5387,6,0.3480697,10.33223,1.878365,-1
35,F,1,1,26,1,1,101,1,2253,0,0.2785395,6.075358,2.494028,-1
35,F,1,1,26,2,3,104,4,3587,0,0.2180129,6.5046,1.824241,-1
35,F,1,1,26,3,4,101,1,1676,0,0.7814705,10.18752,4.344921,-1
35,F,1,1,26,4,1,102,2,2665,0,0.2091626,6.345708,1.788269,-1
35,F,1,1,26,5,1,104,4,5231,6,1.374863E-07,6.485787,0,-1
35,F,1,1,26,6,3,103,3,4009,2,0.2845132,6.380575,2.470213,-1
35,F,1,1,26,7,2,102,2,1165,0,0.8173148,10.27377,4.52212,-1
35,F,1,1,26,8,2,103,3,2865,0,0.2514527,10.25367,1.358259,-1
35,F,1,1,26,9,4,102,2,1198,0,0.8470545,10.27009,4.641736,-1
35,F,1,1,26,10,4,103,3,3698,0,0.4041228,10.24656,2.20478,-1
35,F,1,1,26,11,2,104,4,3520,2,0.8053206,10.37407,4.303296,-1
35,F,1,1,26,12,3,101,1,1398,0,0.4284687,6.079683,3.893047,-1
35,F,1,1,26,13,1,103,3,3220,1,0.5378738,6.403052,4.628,-1
35,F,1,1,26,14,4,104,4,3309,0,3.907734E-08,10.37724,0,-1
35,F,1,1,26,15,2,101,1,1509,0,0.209643,10.26206,1.154366,-1
35,F,1,1,26,16,3,102,2,2387,0,0.222793,6.370593,1.89682,-1
35,F,1,1,27,1,2,105,1,2353,2,1.778884E-07,10.23033,0,-1
35,F,1,1,27,2,3,108,4,1554,0,0.2773473,6.542726,2.341677,-1
35,F,1,1,27,3,4,105,1,1431,0,0.6061,10.23037,3.357772,-1
35,F,1,1,27,4,4,106,2,1154,0,0.8543009,10.28584,4.592651,-1
35,F,1,1,27,5,2,108,4,3120,0,0.6905572,10.36459,3.692524,-1
35,F,1,1,27,6,4,107,3,2942,0,0.1523809,10.22015,0.8294513,-1
35,F,1,1,27,7,3,106,2,1509,0,0.0548954,6.364326,0.4673002,-1
35,F,1,1,27,8,1,107,3,3353,0,0.3962398,6.391876,3.4126,-1
35,F,1,1,27,9,1,106,2,1776,0,0.1436514,6.370302,1.223653,-1
35,F,1,1,27,10,1,105,1,1754,0,0.3796782,6.07221,3.422282,-1
35,F,1,1,27,11,2,107,3,3864,0,0.07878923,10.26149,0.429328,-1
35,F,1,1,27,12,3,105,1,1998,0,0.340151,6.065579,3.049408,-1
35,F,1,1,27,13,1,108,4,5609,5,0.3414626,6.508666,2.862044,-1
35,F,1,1,27,14,2,106,2,1065,0,0.5914146,10.28452,3.24944,-1
35,F,1,1,27,15,3,107,3,5187,2,0.09414899,6.362439,0.8137322,-1
35,F,1,1,27,16,4,108,4,6298,1,0.6177191,10.36536,3.269621,-1
35,F,1,1,28,1,1,109,1,1743,0,0.1043569,6.057565,0.9470872,-1
35,F,1,1,28,2,3,110,2,2109,0,0.1444632,6.36055,1.225092,-1
35,F,1,1,28,3,4,112,4,4376,0,0.4994144,10.37677,2.681391,-1
35,F,1,1,28,4,3,111,3,8909,0,0.3859996,6.356078,3.362084,-1
35,F,1,1,28,5,4,109,1,1665,0,0.2522798,10.24302,1.38211,-1
35,F,1,1,28,6,4,110,2,1198,0,0.1254799,10.26783,0.6781085,-1
35,F,1,1,28,7,3,112,4,2876,0,0.4526299,6.536293,3.784911,-1
35,F,1,1,28,8,4,111,3,4476,0,1.272731E-07,10.22342,0,-1
35,F,1,1,28,9,1,110,2,2265,2,0.3557454,6.360402,3.032413,-1
35,F,1,1,28,10,2,111,3,4698,0,0.3871854,10.26948,2.089566,-1
35,F,1,1,28,11,3,109,1,3265,0,0.1157793,6.065139,1.041362,-1
35,F,1,1,28,12,1,112,4,5531,5,0.5067263,6.499263,4.254549,-1
35,F,1,1,28,13,2,109,1,1854,0,1.337585E-07,10.21745,0,-1
35,F,1,1,28,14,2,112,4,2676,0,0.8691688,10.36841,4.679939,-1
35,F,1,1,28,15,1,111,3,3776,0,0.3761783,6.39196,3.240632,-1
35,F,1,1,28,16,2,110,2,4998,0,0.3229631,10.2902,1.749435,-1
35,F,1,1,29,1,3,115,3,3065,0,0.005261749,6.394894,0.04423466,-1
35,F,1,1,29,2,2,116,4,3676,0,0.1162993,10.35769,0.6230683,-1
35,F,1,1,29,3,4,114,2,2964,1,0.6353738,10.27165,3.503138,-1
35,F,1,1,29,4,3,116,4,3965,0,0.5364103,6.514255,4.524502,-1
35,F,1,1,29,5,1,114,2,2298,1,0.3665786,6.322546,3.127938,-1
35,F,1,1,29,6,3,113,1,1465,0,1.520564E-07,6.053049,0,-1
35,F,1,1,29,7,1,116,4,3298,0,0.2804342,6.494714,2.38113,-1
35,F,1,1,29,8,1,113,1,2031,0,0.161864,6.036994,1.48464,-1
35,F,1,1,29,9,2,115,3,3031,0,0.2695652,10.25238,1.456697,-1
35,F,1,1,29,10,4,113,1,1520,0,0.3566714,10.17435,1.970005,-1
35,F,1,1,29,11,1,115,3,3309,0,0.5141727,6.388536,4.430139,-1
35,F,1,1,29,12,2,114,2,1031,0,0.4102946,10.25652,2.264772,-1
35,F,1,1,29,13,4,116,4,2331,0,7.542101E-08,10.41083,0,-1
35,F,1,1,29,14,3,114,2,2476,0,9.400307E-08,6.398199,0.01978234,-1
35,F,1,1,29,15,2,113,1,1565,0,0.1104126,10.24694,0.605226,-1
35,F,1,1,29,16,4,115,3,3153,0,0.4096082,10.2848,2.219379,-1
35,F,1,1,30,1,2,117,1,1342,0,0.4005471,10.24725,2.213286,-1
35,F,1,1,30,2,1,120,4,4876,4,8.590586E-08,6.526771,0,-1
35,F,1,1,30,3,4,118,2,2231,4,0.329876,10.26373,1.809484,-1
35,F,1,1,30,4,3,120,4,2998,0,0.179098,6.505346,1.493838,-1
35,F,1,1,30,5,3,119,3,3209,0,0.3308651,6.36176,2.841245,-1
35,F,1,1,30,6,2,118,2,1287,0,0.3956693,10.28831,2.157129,-1
35,F,1,1,30,7,2,119,3,2565,0,0.210757,10.27267,1.136428,-1
35,F,1,1,30,8,4,117,1,1598,0,0.4644967,10.21268,2.561549,-1
35,F,1,1,30,9,4,119,3,6498,4,0.3730392,10.26592,2.033266,-1
35,F,1,1,30,10,1,118,2,2042,0,0.01655152,6.358122,0.1426525,-1
35,F,1,1,30,11,3,117,1,2542,2,0.3775299,6.071659,3.405076,-1
35,F,1,1,30,12,2,120,4,3798,0,0.2625847,10.37736,1.404999,-1
35,F,1,1,30,13,3,118,2,2342,1,0.4595737,6.34955,3.894003,-1
35,F,1,1,30,14,1,117,1,1642,0,1.074352E-07,6.069252,0,-1
35,F,1,1,30,15,1,119,3,4276,0,0.1325738,6.397434,1.139351,-1
35,F,1,1,30,16,4,120,4,6142,1,0.6980351,10.38,3.727201,-1
35,F,1,1,1,1,7,3,3,6187,0,-1,-1,-1,0
35,F,1,1,1,2,6,2,2,6609,0,-1,-1,-1,0
35,F,1,1,1,3,8,3,3,7320,0,-1,-1,-1,1
35,F,1,1,1,4,8,2,2,1976,0,-1,-1,-1,0
35,F,1,1,1,5,8,4,4,3965,0,-1,-1,-1,0
35,F,1,1,1,6,5,2,2,6553,0,-1,-1,-1,1
35,F,1,1,1,7,5,3,3,5709,0,-1,-1,-1,1
35,F,1,1,1,8,5,1,1,4487,0,-1,-1,-1,0
35,F,1,1,1,9,6,4,4,4653,0,-1,-1,-1,1
35,F,1,1,1,10,6,1,1,5709,0,-1,-1,-1,0
35,F,1,1,1,11,6,3,3,2309,0,-1,-1,-1,0
35,F,1,1,1,12,8,1,1,4453,0,-1,-1,-1,0
35,F,1,1,1,13,7,4,4,3409,0,-1,-1,-1,1
35,F,1,1,1,14,7,2,2,2131,0,-1,-1,-1,0
35,F,1,1,1,15,5,4,4,4576,0,-1,-1,-1,0
35,F,1,1,1,16,7,1,1,4331,0,-1,-1,-1,1
35,F,1,1,2,1,5,3,3,4542,0,-1,-1,-1,0
35,F,1,1,2,2,8,4,4,7031,0,-1,-1,-1,0
35,F,1,1,2,3,7,1,1,1998,0,-1,-1,-1,0
35,F,1,1,2,4,8,2,2,4020,0,-1,-1,-1,1
35,F,1,1,2,5,6,3,3,1798,0,-1,-1,-1,1
35,F,1,1,2,6,7,4,4,5653,0,-1,-1,-1,1
35,F,1,1,2,7,8,1,1,5264,0,-1,-1,-1,1
35,F,1,1,2,8,5,2,2,1742,0,-1,-1,-1,0
35,F,1,1,2,9,6,4,4,2854,0,-1,-1,-1,1
35,F,1,1,2,10,6,2,2,6109,0,-1,-1,-1,1
35,F,1,1,2,11,5,1,1,2987,0,-1,-1,-1,0
35,F,1,1,2,12,8,3,3,5042,0,-1,-1,-1,1
35,F,1,1,2,13,5,4,4,5576,0,-1,-1,-1,1
35,F,1,1,2,14,6,1,1,3453,0,-1,-1,-1,1
35,F,1,1,2,15,7,2,2,3853,0,-1,-1,-1,1
35,F,1,1,2,16,7,3,3,3965,0,-1,-1,-1,1
