Age, Gender, Awareness Type, Session, Block, Trial, Set, Pattern, Quadrant, Response Time, Num Mistakes, Distance From Target, Camera Distance From Target, Angle Error (Degrees), FC Response
21,F,1,1,1,1,1,4,4,4120,2,0.3672478,6.5112,3.057295,-1
21,F,1,1,1,2,1,1,1,1398,0,0.2674876,6.099217,2.433491,-1
21,F,1,1,1,3,3,2,2,1998,0,0.1616862,6.439693,1.361281,-1
21,F,1,1,1,4,2,3,3,1865,0,0.3129267,10.16553,1.718397,-1
21,F,1,1,1,5,4,1,1,1464,0,0.1865144,10.13561,1.026601,-1
21,F,1,1,1,6,1,2,2,1831,0,0.3481342,6.439267,2.939382,-1
21,F,1,1,1,7,3,4,4,5476,0,0.4747199,6.510075,4.035753,-1
21,F,1,1,1,8,1,3,3,1876,0,0.2618551,6.125042,2.340925,-1
21,F,1,1,1,9,2,2,2,1053,0,0.3604003,10.40737,1.927829,-1
21,F,1,1,1,10,2,4,4,2465,1,0.7334119,10.27006,3.941537,-1
21,F,1,1,1,11,4,3,3,4687,1,0.7631153,10.16758,4.188486,-1
21,F,1,1,1,12,2,1,1,1798,0,0.7427193,10.15931,4.152043,-1
21,F,1,1,1,13,4,2,2,4309,0,0.2164693,10.39379,1.162979,-1
21,F,1,1,1,14,4,4,4,2575,0,0.3818049,10.30629,2.06933,-1
21,F,1,1,1,15,3,3,3,3531,0,0.2011121,6.096608,1.791659,-1
21,F,1,1,1,16,3,1,1,1242,0,0.1866961,6.096824,1.687948,-1
21,F,1,1,2,1,1,8,4,1343,0,0.427189,6.496449,3.516526,-1
21,F,1,1,2,2,1,6,2,4376,0,0.4180135,6.433938,3.501181,-1
21,F,1,1,2,3,2,7,3,2187,1,0.8054253,10.16953,4.398682,-1
21,F,1,1,2,4,4,6,2,1565,0,0.1267204,10.37339,0.6827098,-1
21,F,1,1,2,5,2,8,4,1664,0,0.2635337,10.27087,1.445097,-1
21,F,1,1,2,6,1,5,1,1520,0,0.2039083,6.105082,1.84589,-1
21,F,1,1,2,7,3,8,4,1820,0,0.2023907,6.516056,1.686672,-1
21,F,1,1,2,8,1,7,3,1587,0,0.0758674,6.13343,0.6766641,-1
21,F,1,1,2,9,3,5,1,1220,0,0.08158879,6.117363,0.7346201,-1
21,F,1,1,2,10,2,6,2,3542,0,0.6517643,10.41691,3.529641,-1
21,F,1,1,2,11,2,5,1,1320,0,0.1090546,10.15665,0.6029587,-1
21,F,1,1,2,12,3,7,3,1431,0,0.1904168,6.120958,1.685279,-1
21,F,1,1,2,13,4,8,4,2186,0,0.4915063,10.26121,2.649445,-1
21,F,1,1,2,14,4,7,3,1353,0,0.2593119,10.18544,1.417203,-1
21,F,1,1,2,15,3,6,2,1387,0,0.2466142,6.442329,2.07226,-1
21,F,1,1,2,16,4,5,1,1264,0,0.5358493,10.19258,2.972626,-1
21,F,1,1,3,1,4,11,3,1220,0,0.2342259,10.16947,1.284661,-1
21,F,1,1,3,2,1,9,1,1109,0,0.2729675,6.110562,2.474883,-1
21,F,1,1,3,3,4,10,2,1942,0,0.5162576,10.36167,2.757189,-1
21,F,1,1,3,4,1,11,3,1320,0,0.4705604,6.124043,4.136922,-1
21,F,1,1,3,5,1,12,4,1576,0,0.3869099,6.496146,3.242625,-1
21,F,1,1,3,6,4,9,1,1653,0,0.7965801,10.1884,4.423193,-1
21,F,1,1,3,7,2,10,2,2720,0,0.8141752,10.41542,4.457818,-1
21,F,1,1,3,8,3,9,1,1254,0,0.1343539,6.110261,1.210307,-1
21,F,1,1,3,9,3,10,2,1931,0,0.04482993,6.450087,0.3784592,-1
21,F,1,1,3,10,2,11,3,1398,0,0.494928,10.16297,2.742882,-1
21,F,1,1,3,11,4,12,4,1309,0,0.6999457,10.31085,3.773771,-1
21,F,1,1,3,12,3,11,3,1109,0,0.3070776,6.150193,2.718078,-1
21,F,1,1,3,13,3,12,4,3698,3,6.887363E-08,6.513186,0,-1
21,F,1,1,3,14,2,9,1,1420,0,0.3291887,10.1429,1.827135,-1
21,F,1,1,3,15,1,10,2,1898,0,0.2092177,6.413313,1.773103,-1
21,F,1,1,3,16,2,12,4,1598,0,0.1299981,10.2349,0.7080355,-1
21,F,1,1,4,1,4,14,2,2431,0,4.388698E-08,10.38073,0.01978234,-1
21,F,1,1,4,2,3,16,4,3998,3,0.2032226,6.523158,1.71646,-1
21,F,1,1,4,3,4,13,1,2031,0,0.7516046,10.14071,4.195213,-1
21,F,1,1,4,4,3,14,2,2031,0,0.3026248,6.451479,2.562848,-1
21,F,1,1,4,5,3,13,1,2454,1,0.007273443,6.121245,0.0656106,-1
21,F,1,1,4,6,2,16,4,1676,0,0.1062704,10.23025,0.5787839,-1
21,F,1,1,4,7,3,15,3,1786,0,1.530947E-08,6.104814,0,-1
21,F,1,1,4,8,1,14,2,1975,0,4.412125E-07,6.421704,0,-1
21,F,1,1,4,9,1,16,4,4331,3,0.3430465,6.462984,2.845994,-1
21,F,1,1,4,10,1,15,3,1487,0,0.1603296,6.059231,1.443472,-1
21,F,1,1,4,11,4,16,4,1842,0,0.2643998,10.23367,1.444285,-1
21,F,1,1,4,12,2,15,3,2564,0,0.3852603,10.11637,2.097978,-1
21,F,1,1,4,13,1,13,1,1498,0,0.130229,6.063848,1.182006,-1
21,F,1,1,4,14,2,14,2,3542,0,0.7624686,10.38016,4.176452,-1
21,F,1,1,4,15,4,15,3,4142,1,0.3141988,10.13968,1.711322,-1
21,F,1,1,4,16,2,13,1,1354,0,0.2207482,10.13345,1.230034,-1
21,F,1,1,5,1,4,19,3,4898,2,0.507688,10.2037,2.805678,-1
21,F,1,1,5,2,2,18,2,4631,0,0.5331235,10.42899,2.843035,-1
21,F,1,1,5,3,1,20,4,3876,2,0.483286,6.518849,4.037694,-1
21,F,1,1,5,4,2,19,3,1931,0,0.4082459,10.20049,2.205401,-1
21,F,1,1,5,5,4,18,2,2220,0,0.1682807,10.38296,0.9063343,-1
21,F,1,1,5,6,3,17,1,2220,0,0.08438069,6.113533,0.7569224,-1
21,F,1,1,5,7,3,20,4,2920,1,0.4823638,6.546696,4.067268,-1
21,F,1,1,5,8,1,17,1,1542,0,0.2423983,6.107133,2.199003,-1
21,F,1,1,5,9,4,20,4,2142,0,0.1985787,10.35805,1.065327,-1
21,F,1,1,5,10,3,18,2,2142,0,0.1150867,6.487653,0.9811842,-1
21,F,1,1,5,11,3,19,3,2076,0,0.4349916,6.125865,3.911163,-1
21,F,1,1,5,12,4,17,1,1409,0,0.6856778,10.20532,3.800451,-1
21,F,1,1,5,13,1,18,2,1899,0,0.06821254,6.457073,0.5723243,-1
21,F,1,1,5,14,1,19,3,1687,0,0.2907023,6.16771,2.565825,-1
21,F,1,1,5,15,2,17,1,1964,0,0.4133037,10.18568,2.295672,-1
21,F,1,1,5,16,2,20,4,1698,0,1.875712E-07,10.29201,0,-1
21,F,1,1,6,1,1,22,2,1942,0,0.1121291,6.455945,0.9437756,-1
21,F,1,1,6,2,4,23,3,1742,0,0.382711,10.28064,2.076129,-1
21,F,1,1,6,3,4,21,1,1665,0,0.4340665,10.15278,2.416056,-1
21,F,1,1,6,4,2,24,4,1787,0,0.7515364,10.30156,4.136733,-1
21,F,1,1,6,5,3,23,3,2065,0,0.09794821,6.16138,0.8659236,-1
21,F,1,1,6,6,4,24,4,1776,1,0.6505772,10.36309,3.529641,-1
21,F,1,1,6,7,2,21,1,3898,0,0.4849734,10.20118,2.700087,-1
21,F,1,1,6,8,1,23,3,3554,4,0.2229977,6.169127,1.956548,-1
21,F,1,1,6,9,4,22,2,2664,0,0.2761485,10.39485,1.488852,-1
21,F,1,1,6,10,1,24,4,4087,2,1.365533E-07,6.531983,0,-1
21,F,1,1,6,11,2,22,2,2309,0,0.5345629,10.42957,2.855608,-1
21,F,1,1,6,12,3,24,4,3308,1,0.09960666,6.526958,0.8294513,-1
21,F,1,1,6,13,1,21,1,1387,0,1.97801E-07,6.127168,0,-1
21,F,1,1,6,14,2,23,3,3220,1,0.2878968,10.20504,1.554441,-1
21,F,1,1,6,15,3,21,1,1209,0,0.08804983,6.172766,0.7908052,-1
21,F,1,1,6,16,3,22,2,2542,0,0.3868842,6.496425,3.290095,-1
21,F,1,1,7,1,4,28,4,3231,0,1.738666E-07,10.31249,0,-1
21,F,1,1,7,2,1,27,3,2009,0,0.2745235,6.122978,2.419213,-1
21,F,1,1,7,3,2,25,1,1154,0,0.2621419,10.16014,1.458174,-1
21,F,1,1,7,4,4,26,2,2154,0,0.04387966,10.4261,0.2365626,-1
21,F,1,1,7,5,3,25,1,1431,0,1.658301E-07,6.134238,0,-1
21,F,1,1,7,6,4,27,3,2042,1,0.7416722,10.18174,4.097872,-1
21,F,1,1,7,7,2,28,4,1776,0,0.2409565,10.26271,1.297393,-1
21,F,1,1,7,8,2,27,3,3365,0,0.3844701,10.17729,2.081025,-1
21,F,1,1,7,9,1,28,4,2554,1,0.260782,6.498958,2.183909,-1
21,F,1,1,7,10,1,26,2,2009,0,7.825059E-08,6.455259,0,-1
21,F,1,1,7,11,1,25,1,1476,0,0.2161934,6.103008,1.962241,-1
21,F,1,1,7,12,2,26,2,2320,0,1.041058E-07,10.41781,0,-1
21,F,1,1,7,13,3,27,3,3320,0,0.07098391,6.08667,0.6342734,-1
21,F,1,1,7,14,4,25,1,1365,0,0.7669552,10.13352,4.270997,-1
21,F,1,1,7,15,3,28,4,3020,1,0.28255,6.542973,2.367198,-1
21,F,1,1,7,16,3,26,2,1376,0,0.004552146,6.454656,0.03426402,-1
21,F,1,1,8,1,1,32,4,8042,11,0.3747277,6.457008,3.159325,-1
21,F,1,1,8,2,2,29,1,1142,0,0.5558429,10.13378,3.115899,-1
21,F,1,1,8,3,1,30,2,1543,0,0.2394334,6.413621,2.025357,-1
21,F,1,1,8,4,3,29,1,1276,0,0.1029581,6.054112,0.9257729,-1
21,F,1,1,8,5,4,32,4,5465,4,0.7392905,10.22427,4.075493,-1
21,F,1,1,8,6,4,29,1,1053,0,6.613447E-08,10.09518,0,-1
21,F,1,1,8,7,4,31,3,2920,1,0.2128461,10.11061,1.163988,-1
21,F,1,1,8,8,3,32,4,4220,2,0.4929783,6.47125,4.10346,-1
21,F,1,1,8,9,1,29,1,1120,0,5.879928E-08,6.053959,0,-1
21,F,1,1,8,10,2,31,3,1465,0,0.245371,10.11201,1.338083,-1
21,F,1,1,8,11,3,30,2,1498,0,0.07920905,6.449861,0.6801254,-1
21,F,1,1,8,12,1,31,3,1409,0,0.2412199,6.066073,2.148036,-1
21,F,1,1,8,13,2,30,2,1164,0,0.5160134,10.37015,2.814943,-1
21,F,1,1,8,14,2,32,4,1542,0,0.1910598,10.21064,1.031735,-1
21,F,1,1,8,15,4,30,2,2143,1,0.3199659,10.33499,1.747645,-1
21,F,1,1,8,16,3,31,3,1987,0,0.1612425,6.084347,1.441708,-1
21,F,1,1,9,1,4,36,4,2853,0,0.5051216,10.22037,2.711155,-1
21,F,1,1,9,2,3,33,1,1331,0,0.1672998,6.089323,1.5229,-1
21,F,1,1,9,3,2,36,4,1509,0,0.6595322,10.22,3.538284,-1
21,F,1,1,9,4,1,33,1,1386,0,0.2540411,6.048044,2.325574,-1
21,F,1,1,9,5,3,35,3,2809,2,0.4439346,6.081185,4.003403,-1
21,F,1,1,9,6,4,34,2,1975,0,0.4941089,10.33394,2.699579,-1
21,F,1,1,9,7,2,33,1,4287,0,0.8060783,10.12524,4.524156,-1
21,F,1,1,9,8,1,34,2,1865,0,0.05887134,6.4268,0.5008504,-1
21,F,1,1,9,9,1,36,4,6031,5,0.4729216,6.463001,3.984231,-1
21,F,1,1,9,10,4,35,3,1364,0,0.4620117,10.12538,2.534818,-1
21,F,1,1,9,11,3,34,2,1864,0,0.05665091,6.423793,0.4801054,-1
21,F,1,1,9,12,3,36,4,9999,10,-1,-1,-1,-1
21,F,1,1,9,13,1,35,3,4120,3,0.3566787,6.043056,3.303516,-1
21,F,1,1,9,14,2,34,2,4809,2,0.112558,10.36768,0.6081289,-1
21,F,1,1,9,15,2,35,3,4109,0,0.5092463,10.10884,2.817375,-1
21,F,1,1,9,16,4,33,1,8842,8,0.07039786,10.31738,0.3830841,-1
21,F,1,1,10,1,3,38,2,1365,0,0.3450368,6.569285,2.854853,-1
21,F,1,1,10,2,3,37,1,1331,0,0.316419,6.228689,2.818973,-1
21,F,1,1,10,3,2,40,4,6520,13,0.521724,10.40148,2.768384,-1
21,F,1,1,10,4,4,37,1,1342,0,0.6109459,10.31224,3.351585,-1
21,F,1,1,10,5,2,39,3,3743,2,0.4300415,10.3017,2.3354,-1
21,F,1,1,10,6,2,38,2,5853,1,0.1775782,10.54319,0.9468806,-1
21,F,1,1,10,7,4,40,4,1976,0,0.7617536,10.39306,4.047043,-1
21,F,1,1,10,8,3,39,3,1965,0,0.3832873,6.209429,3.322662,-1
21,F,1,1,10,9,1,38,2,1843,0,0.244616,6.521578,2.03028,-1
21,F,1,1,10,10,1,37,1,1742,0,0.2782257,6.216258,2.487663,-1
21,F,1,1,10,11,3,40,4,1854,0,0.2886857,6.608536,2.377676,-1
21,F,1,1,10,12,4,39,3,1642,0,0.8113846,10.31761,4.347489,-1
21,F,1,1,10,13,1,40,4,1720,0,0.1890205,6.611763,1.556706,-1
21,F,1,1,10,14,4,38,2,1220,0,0.4793,10.48511,2.54068,-1
21,F,1,1,10,15,1,39,3,1565,0,0.528211,6.241782,4.612398,-1
21,F,1,1,10,16,2,37,1,1920,1,0.4136653,10.26925,2.272192,-1
21,F,1,1,11,1,4,44,4,1831,0,0.3618511,10.38098,1.930264,-1
21,F,1,1,11,2,2,42,2,1709,0,0.7562023,10.54716,4.046414,-1
21,F,1,1,11,3,1,44,4,1497,0,0.07686944,6.612622,0.6318005,-1
21,F,1,1,11,4,4,42,2,5097,0,0.1153983,10.49182,0.6167554,-1
21,F,1,1,11,5,3,44,4,4120,2,0.08093377,6.64893,0.6647022,-1
21,F,1,1,11,6,3,43,3,1598,0,0.4482788,6.276073,3.901739,-1
21,F,1,1,11,7,2,41,1,1209,0,0.8265011,10.28846,4.567718,-1
21,F,1,1,11,8,1,43,3,1487,0,0.314286,6.254848,2.737024,-1
21,F,1,1,11,9,1,41,1,1276,0,0.2189225,6.202755,1.957947,-1
21,F,1,1,11,10,2,43,3,1531,0,0.05802375,10.30151,0.3140353,-1
21,F,1,1,11,11,3,41,1,1443,0,1.69658E-07,6.195835,0,-1
21,F,1,1,11,12,2,44,4,1620,0,0.2183146,10.40097,1.165668,-1
21,F,1,1,11,13,3,42,2,1676,0,2.695747E-07,6.535842,0,-1
21,F,1,1,11,14,4,43,3,1675,0,0.3660603,10.35566,1.962939,-1
21,F,1,1,11,15,1,42,2,1565,0,0.008490374,6.526273,0.06852804,-1
21,F,1,1,11,16,4,41,1,3842,0,2.164082E-07,10.31168,0,-1
21,F,1,1,12,1,2,46,2,1476,0,0.3307831,10.53484,1.769457,-1
21,F,1,1,12,2,3,48,4,3709,2,3.008723E-07,6.658634,0,-1
21,F,1,1,12,3,4,45,1,1175,0,0.447326,10.27154,2.46474,-1
21,F,1,1,12,4,1,48,4,1376,0,5.756451E-08,6.61568,0,-1
21,F,1,1,12,5,4,47,3,1465,0,0.4461368,10.36645,2.401266,-1
21,F,1,1,12,6,3,45,1,2120,1,1.245213E-07,6.201446,0,-1
21,F,1,1,12,7,1,47,3,2131,0,0.3481899,6.247742,3.015712,-1
21,F,1,1,12,8,4,48,4,1353,0,0.5712322,10.41455,3.104506,-1
21,F,1,1,12,9,1,46,2,1887,0,6.214442E-08,6.528133,0,-1
21,F,1,1,12,10,1,45,1,1465,0,0.1519138,6.195311,1.358547,-1
21,F,1,1,12,11,2,47,3,2876,0,0.8406459,10.30205,4.500542,-1
21,F,1,1,12,12,2,48,4,1542,0,0.8397776,10.39215,4.435441,-1
21,F,1,1,12,13,3,47,3,2198,1,0.4101065,6.226066,3.559745,-1
21,F,1,1,12,14,4,46,2,1909,0,0.02411412,10.48144,0.1266688,-1
21,F,1,1,12,15,2,45,1,1509,0,0.3375008,10.26711,1.860253,-1
21,F,1,1,12,16,3,46,2,2820,0,6.250122E-08,6.532363,0,-1
21,F,1,1,13,1,3,52,4,2853,1,0.3980213,6.644156,3.285928,-1
21,F,1,1,13,2,2,50,2,1654,0,0.3931691,10.54058,2.103847,-1
21,F,1,1,13,3,4,52,4,2242,0,0.2037714,10.45662,1.092174,-1
21,F,1,1,13,4,1,50,2,1743,0,9.168767E-08,6.530711,0,-1
21,F,1,1,13,5,2,52,4,1443,0,0.4746913,10.40314,2.538984,-1
21,F,1,1,13,6,1,51,3,1331,0,0.4907208,6.25567,4.256619,-1
21,F,1,1,13,7,4,49,1,3531,0,0.6696845,10.28523,3.684136,-1
21,F,1,1,13,8,4,51,3,2331,1,0.7863495,10.35137,4.219883,-1
21,F,1,1,13,9,4,50,2,2664,1,0.8170802,10.4852,4.407756,-1
21,F,1,1,13,10,1,49,1,1409,0,0.1520434,6.186282,1.359843,-1
21,F,1,1,13,11,3,50,2,1987,0,0.1552627,6.56257,1.293466,-1
21,F,1,1,13,12,1,52,4,1731,0,0.09217266,6.610998,0.7564052,-1
21,F,1,1,13,13,3,49,1,3842,0,0.2962796,6.272032,2.625548,-1
21,F,1,1,13,14,2,51,3,4554,0,0.3153931,10.29733,1.693157,-1
21,F,1,1,13,15,2,49,1,1276,0,0.1940307,10.27493,1.062936,-1
21,F,1,1,13,16,3,51,3,1875,0,0.2897064,6.239935,2.511702,-1
21,F,1,1,14,1,4,53,1,1153,0,0.8573262,10.22113,4.747347,-1
21,F,1,1,14,2,2,56,4,1375,0,0.5664578,10.4038,3.005112,-1
21,F,1,1,14,3,3,53,1,1376,0,0.02159183,6.261211,0.1907741,-1
21,F,1,1,14,4,4,56,4,1120,0,0.06875896,10.41209,0.3679734,-1
21,F,1,1,14,5,1,55,3,1442,0,0.4033479,6.257663,3.484532,-1
21,F,1,1,14,6,3,54,2,3520,0,0.2655134,6.523343,2.21249,-1
21,F,1,1,14,7,4,55,3,1531,0,0.507904,10.31692,2.720957,-1
21,F,1,1,14,8,2,54,2,1776,0,0.3672953,10.53194,1.942493,-1
21,F,1,1,14,9,3,56,4,9308,17,0.3682748,6.592329,3.021354,-1
21,F,1,1,14,10,4,54,2,898,0,0.3642106,10.47454,1.956047,-1
21,F,1,1,14,11,3,55,3,2365,2,8.388924E-08,6.143747,0,-1
21,F,1,1,14,12,2,53,1,1176,0,0.2582167,10.21482,1.427522,-1
21,F,1,1,14,13,1,54,2,1576,0,0.01849008,6.477584,0.1545051,-1
21,F,1,1,14,14,1,53,1,1409,0,0.4718149,6.134354,4.296691,-1
21,F,1,1,14,15,2,55,3,6331,0,0.7824368,10.25304,4.288387,-1
21,F,1,1,14,16,1,56,4,4120,3,0.3488244,6.594121,2.891779,-1
21,F,1,1,15,1,1,58,2,1331,0,0.2981248,6.49051,2.481676,-1
21,F,1,1,15,2,4,57,1,1164,0,0.6388295,10.19161,3.542598,-1
21,F,1,1,15,3,3,58,2,1742,0,1.05367E-07,6.496222,0,-1
21,F,1,1,15,4,1,59,3,2531,2,0.3270655,6.196169,2.868398,-1
21,F,1,1,15,5,1,57,1,1365,0,0.417296,6.156673,3.760152,-1
21,F,1,1,15,6,4,60,4,2332,0,0.4388477,10.34254,2.344517,-1
21,F,1,1,15,7,2,58,2,1276,0,0.8661355,10.4868,4.604109,-1
21,F,1,1,15,8,3,59,3,7242,13,0.006673018,6.294825,0.06255726,-1
21,F,1,1,15,9,4,58,2,1965,0,0.4332625,10.47297,2.289184,-1
21,F,1,1,15,10,4,59,3,2442,1,0.836404,10.35193,4.573503,-1
21,F,1,1,15,11,3,57,1,1265,0,0.1011788,6.197639,0.8978747,-1
21,F,1,1,15,12,1,60,4,1475,0,1.224433E-07,6.620765,0,-1
21,F,1,1,15,13,2,57,1,3676,1,0.5221591,10.28653,2.870717,-1
21,F,1,1,15,14,2,60,4,1687,0,0.2762132,10.39603,1.46607,-1
21,F,1,1,15,15,2,59,3,1497,0,0.4429493,10.29944,2.373474,-1
21,F,1,1,15,16,3,60,4,1575,0,0.3887103,6.609272,3.203813,-1
21,F,1,1,16,1,2,63,3,4286,0,0.8212728,10.30059,4.398325,-1
21,F,1,1,16,2,4,62,2,1198,0,0.5737715,10.47969,3.077971,-1
21,F,1,1,16,3,2,64,4,1453,0,0.7316906,10.3949,3.886099,-1
21,F,1,1,16,4,1,61,1,1309,0,1.101723E-07,6.219594,0,-1
21,F,1,1,16,5,1,62,2,3609,1,0.1125979,6.528734,0.9375348,-1
21,F,1,1,16,6,3,63,3,1853,0,0.1664815,6.255966,1.446045,-1
21,F,1,1,16,7,3,64,4,1408,0,0.5169678,6.633237,4.276313,-1
21,F,1,1,16,8,1,63,3,1320,0,0.3268911,6.251383,2.819806,-1
21,F,1,1,16,9,2,61,1,1198,0,0.3246765,10.28359,1.78597,-1
21,F,1,1,16,10,2,62,2,3231,1,0.02347761,10.5388,0.1266688,-1
21,F,1,1,16,11,3,61,1,6420,0,1.786705E-07,6.268648,0,-1
21,F,1,1,16,12,4,63,3,2475,0,0.2786573,10.33075,1.505582,-1
21,F,1,1,16,13,3,62,2,5087,1,0.104319,6.566073,0.8681804,-1
21,F,1,1,16,14,4,64,4,4486,2,0.6838817,10.48888,3.611458,-1
21,F,1,1,16,15,4,61,1,1298,0,0.8345749,10.29569,4.59184,-1
21,F,1,1,16,16,1,64,4,1498,0,0.2898827,6.633096,2.380637,-1
21,F,1,1,17,1,4,67,3,1376,0,0.5827045,10.32005,3.162298,-1
21,F,1,1,17,2,2,66,2,1965,0,0.1979539,10.54509,1.048292,-1
21,F,1,1,17,3,2,68,4,1543,0,0.2722364,10.40551,1.443472,-1
21,F,1,1,17,4,3,66,2,3220,0,0.3265578,6.568254,2.730365,-1
21,F,1,1,17,5,2,65,1,1142,0,0.457964,10.28747,2.519793,-1
21,F,1,1,17,6,3,68,4,2165,1,0.1251696,6.633468,1.022973,-1
21,F,1,1,17,7,4,65,1,1154,0,0.3002544,10.31297,1.646394,-1
21,F,1,1,17,8,1,67,3,2131,0,0.4492124,6.26266,3.855696,-1
21,F,1,1,17,9,4,66,2,2764,0,0.2250598,10.54376,1.191405,-1
21,F,1,1,17,10,3,67,3,3365,1,0.1682329,6.221322,1.488983,-1
21,F,1,1,17,11,3,65,1,1287,0,0.3641394,6.220628,3.24944,-1
21,F,1,1,17,12,1,68,4,1809,1,0.2019392,6.634497,1.649126,-1
21,F,1,1,17,13,1,66,2,1654,0,0.2583751,6.522022,2.14375,-1
21,F,1,1,17,14,4,68,4,1531,0,0.2123667,10.41461,1.131769,-1
21,F,1,1,17,15,1,65,1,1398,0,0.1020744,6.200247,0.9059024,-1
21,F,1,1,17,16,2,67,3,3442,1,0.4908677,10.30907,2.625101,-1
21,F,1,1,18,1,1,69,1,1254,0,0.002232849,6.196671,0.01978234,-1
21,F,1,1,18,2,1,70,2,1720,0,2.177733E-07,6.524715,0,-1
21,F,1,1,18,3,4,72,4,1565,0,0.3732689,10.41651,1.976749,-1
21,F,1,1,18,4,4,70,2,4076,0,6.049786E-08,10.54105,0,-1
21,F,1,1,18,5,1,71,3,3431,0,0.170301,6.253241,1.50805,-1
21,F,1,1,18,6,2,70,2,1976,0,1.704271E-08,10.53837,0,-1
21,F,1,1,18,7,2,69,1,1365,0,0.4719057,10.25992,2.597291,-1
21,F,1,1,18,8,4,71,3,2109,0,0.01610343,10.30577,0.08846933,-1
21,F,1,1,18,9,4,69,1,1875,1,0.5773033,10.29789,3.114893,-1
21,F,1,1,18,10,3,72,4,1664,0,0.05808932,6.627949,0.4768338,-1
21,F,1,1,18,11,3,71,3,2076,1,0.3181337,6.20262,2.758609,-1
21,F,1,1,18,12,1,72,4,2076,0,0.04633958,6.625995,0.3805216,-1
21,F,1,1,18,13,3,70,2,4598,0,0.2514122,6.528021,2.08591,-1
21,F,1,1,18,14,3,69,1,1209,0,0.01228787,6.225772,0.1101434,-1
21,F,1,1,18,15,2,72,4,1443,0,0.06740508,10.40494,0.3593647,-1
21,F,1,1,18,16,2,71,3,1609,0,0.4485015,10.30519,2.399309,-1
21,F,1,1,19,1,4,74,2,1320,0,0.05118128,10.49238,0.2719625,-1
21,F,1,1,19,2,1,75,3,1676,0,0.2610229,6.255017,2.259321,-1
21,F,1,1,19,3,2,73,1,1176,0,0.5226632,10.27148,2.88052,-1
21,F,1,1,19,4,2,74,2,1431,0,0.3004702,10.53867,1.605716,-1
21,F,1,1,19,5,2,76,4,1331,0,0.3012286,10.40586,1.597407,-1
21,F,1,1,19,6,1,73,1,1542,0,0.07394326,6.205252,0.6549156,-1
21,F,1,1,19,7,1,76,4,1275,0,0.4514334,6.624295,3.713622,-1
21,F,1,1,19,8,4,73,1,1809,0,0.6197905,10.2442,3.366913,-1
21,F,1,1,19,9,3,75,3,1554,0,0.1666314,6.212922,1.475252,-1
21,F,1,1,19,10,1,74,2,1409,0,0.2855949,6.523271,2.380062,-1
21,F,1,1,19,11,4,75,3,1398,0,0.1338089,10.29941,0.7268545,-1
21,F,1,1,19,12,3,76,4,1654,0,0.05580182,6.633093,0.4579955,-1
21,F,1,1,19,13,2,75,3,2498,1,0.8206627,10.3041,4.393736,-1
21,F,1,1,19,14,3,74,2,1520,0,0.2679883,6.520788,2.224928,-1
21,F,1,1,19,15,3,73,1,1576,0,0.1864509,6.17926,1.667183,-1
21,F,1,1,19,16,4,76,4,1865,0,0.2613289,10.40628,1.385645,-1
21,F,1,1,20,1,3,78,2,2065,0,0.3705852,6.561946,3.104695,-1
21,F,1,1,20,2,1,80,4,2053,0,0.3969925,6.626132,3.244617,-1
21,F,1,1,20,3,2,79,3,3943,1,0.6686638,10.31144,3.575277,-1
21,F,1,1,20,4,3,77,1,2209,0,0.123859,6.199895,1.103049,-1
21,F,1,1,20,5,2,78,2,2086,0,0.3825521,10.53488,2.025647,-1
21,F,1,1,20,6,2,80,4,1454,0,0.5150663,10.40434,2.738883,-1
21,F,1,1,20,7,4,78,2,5209,0,0.6811482,10.53776,3.624122,-1
21,F,1,1,20,8,3,80,4,2887,2,0.01423988,6.63072,0.1186941,-1
21,F,1,1,20,9,1,79,3,2409,2,0.270272,6.244725,2.344768,-1
21,F,1,1,20,10,2,77,1,1231,0,0.1265492,10.28016,0.6906884,-1
21,F,1,1,20,11,3,79,3,4276,2,0.07360114,6.213912,0.6507192,-1
21,F,1,1,20,12,4,77,1,1353,0,0.3495608,10.23264,1.917651,-1
21,F,1,1,20,13,4,80,4,3109,0,0.1335776,10.4428,0.7102429,-1
21,F,1,1,20,14,4,79,3,2509,1,0.06256726,10.30038,0.3380413,-1
21,F,1,1,20,15,1,78,2,1698,0,0.2735257,6.518733,2.280875,-1
21,F,1,1,20,16,1,77,1,1354,0,0.3368289,6.180244,3.039699,-1
21,F,1,1,21,1,3,84,4,3887,2,0.4744547,6.631695,3.886351,-1
21,F,1,1,21,2,1,83,3,1264,0,0.268451,6.244704,2.344768,-1
21,F,1,1,21,3,3,81,1,1387,0,1.641612E-07,6.187833,0,-1
21,F,1,1,21,4,3,83,3,3220,3,0.2072684,6.255567,1.844193,-1
21,F,1,1,21,5,2,82,2,2420,0,0.8015319,10.529,4.242563,-1
21,F,1,1,21,6,2,83,3,2376,1,0.789891,10.29573,4.232025,-1
21,F,1,1,21,7,1,82,2,3120,1,0.5140374,6.510168,4.294822,-1
21,F,1,1,21,8,4,81,1,5576,5,0.8167591,10.1926,4.540276,-1
21,F,1,1,21,9,4,82,2,1709,0,0.5187271,10.47265,2.739954,-1
21,F,1,1,21,10,2,81,1,1820,0,0.8275903,10.24779,4.585779,-1
21,F,1,1,21,11,4,83,3,2743,0,0.5410264,10.3659,2.912554,-1
21,F,1,1,21,12,4,84,4,1698,0,0.07854635,10.44157,0.4196478,-1
21,F,1,1,21,13,3,82,2,2965,1,0.477266,6.537684,4.010148,-1
21,F,1,1,21,14,2,84,4,2020,1,0.2891026,10.40462,1.535569,-1
21,F,1,1,21,15,1,81,1,1787,1,0.3834231,6.18574,3.455474,-1
21,F,1,1,21,16,1,84,4,2876,0,0.005389427,6.630789,0.04423466,-1
21,F,1,1,22,1,1,86,2,2987,2,0.3158451,6.513432,2.635965,-1
21,F,1,1,22,2,4,88,4,1443,0,0.065089,10.41565,0.3488659,-1
21,F,1,1,22,3,2,87,3,2009,0,0.6648352,10.30791,3.609126,-1
21,F,1,1,22,4,3,85,1,2353,2,0.0888886,6.175632,0.7895671,-1
21,F,1,1,22,5,2,86,2,1198,0,0.3412989,10.53516,1.812725,-1
21,F,1,1,22,6,1,85,1,3942,3,0.5210053,6.180815,4.750194,-1
21,F,1,1,22,7,3,88,4,2542,2,0.0009442984,6.64441,0,-1
21,F,1,1,22,8,4,87,3,3831,3,0.7324349,10.31908,3.924658,-1
21,F,1,1,22,9,1,88,4,2732,1,0.4777051,6.637816,3.922363,-1
21,F,1,1,22,10,4,86,2,1454,0,0.8125494,10.49823,4.396544,-1
21,F,1,1,22,11,3,87,3,5609,8,0.2874596,6.276402,2.481676,-1
21,F,1,1,22,12,3,86,2,4332,1,0.09115487,6.583873,0.7545922,-1
21,F,1,1,22,13,4,85,1,1742,1,0.7312121,10.29774,4.024285,-1
21,F,1,1,22,14,1,87,3,2142,2,0.3093942,6.248397,2.758467,-1
21,F,1,1,22,15,2,85,1,9999,21,-1,-1,-1,-1
21,F,1,1,22,16,2,88,4,1731,0,0.5212563,10.40319,2.771564,-1
21,F,1,1,23,1,2,89,1,1498,0,0.4594408,10.25626,2.529484,-1
21,F,1,1,23,2,1,91,3,1609,0,0.4629052,6.223706,4.12393,-1
21,F,1,1,23,3,3,89,1,1854,1,0.03308924,6.20278,0.2934199,-1
21,F,1,1,23,4,2,92,4,1265,0,0.6071808,10.40839,3.220452,-1
21,F,1,1,23,5,2,90,2,2642,0,0.155485,10.54904,0.828271,-1
21,F,1,1,23,6,4,89,1,1798,0,0.2289657,10.22075,1.254762,-1
21,F,1,1,23,7,1,92,4,2098,0,0.3147604,6.635648,2.550292,-1
21,F,1,1,23,8,1,89,1,1076,0,0.307029,6.191588,2.752499,-1
21,F,1,1,23,9,4,91,3,1798,1,0.6282284,10.36963,3.381361,-1
21,F,1,1,23,10,1,90,2,1709,0,0.07500336,6.537968,0.6240098,-1
21,F,1,1,23,11,2,91,3,1653,1,0.4718612,10.30766,2.523829,-1
21,F,1,1,23,12,4,92,4,1965,0,0.4100556,10.42299,2.162837,-1
21,F,1,1,23,13,3,90,2,1854,0,0.3331027,6.536774,2.752073,-1
21,F,1,1,23,14,3,91,3,2142,1,0.2355213,6.202362,2.090034,-1
21,F,1,1,23,15,4,90,2,2176,0,0.55195,10.55647,2.918999,-1
21,F,1,1,23,16,3,92,4,2176,0,0.1226311,6.681766,1.006582,-1
21,F,1,1,24,1,1,95,3,2042,0,0.3484577,6.24577,3.033639,-1
21,F,1,1,24,2,2,96,4,1820,0,7.995351E-08,10.42836,0,-1
21,F,1,1,24,3,4,94,2,976,0,0.3748305,10.53723,2.013631,-1
21,F,1,1,24,4,4,93,1,1253,0,0.1882143,10.28067,1.032682,-1
21,F,1,1,24,5,3,96,4,2076,0,0.3755743,6.686706,3.06599,-1
21,F,1,1,24,6,4,95,3,1698,1,0.08767113,10.3424,0.4722982,-1
21,F,1,1,24,7,4,96,4,1231,0,0.2117597,10.4356,1.134877,-1
21,F,1,1,24,8,2,93,1,1165,0,0.5831138,10.25813,3.219236,-1
21,F,1,1,24,9,2,94,2,987,0,8.487704E-08,10.55229,0,-1
21,F,1,1,24,10,2,95,3,1520,0,0.5616245,10.32414,2.999505,-1
21,F,1,1,24,11,1,94,2,4798,2,0.05592294,6.549101,0.4639383,-1
21,F,1,1,24,12,3,93,1,1164,0,0.1030072,6.269249,0.9095671,-1
21,F,1,1,24,13,1,96,4,2554,1,0.495671,6.637429,4.070781,-1
21,F,1,1,24,14,1,93,1,1198,0,0.4217746,6.19798,3.788427,-1
21,F,1,1,24,15,3,95,3,1420,0,0.4674121,6.21813,4.047721,-1
21,F,1,1,24,16,3,94,2,4520,3,0.3860514,6.590909,3.219783,-1
21,F,1,1,25,1,2,99,3,3587,1,0.5762537,10.30245,3.084134,-1
21,F,1,1,25,2,1,98,2,1620,0,0.1039766,6.540762,0.8641139,-1
21,F,1,1,25,3,1,97,1,1443,0,0.06300402,6.208899,0.556375,-1
21,F,1,1,25,4,4,98,2,2242,0,0.4939542,10.55017,2.607219,-1
21,F,1,1,25,5,3,99,3,1953,0,0.2145402,6.221363,1.856356,-1
21,F,1,1,25,6,2,100,4,1554,0,0.5438486,10.41859,2.8778,-1
21,F,1,1,25,7,4,97,1,1342,0,0.3683074,10.27539,2.020714,-1
21,F,1,1,25,8,3,98,2,2731,0,0.05702323,6.580643,0.4739525,-1
21,F,1,1,25,9,4,99,3,1820,0,0.4727854,10.32992,2.529639,-1
21,F,1,1,25,10,4,100,4,1587,0,0.2623101,10.43305,1.389594,-1
21,F,1,1,25,11,1,99,3,1487,0,0.3355478,6.243598,2.901443,-1
21,F,1,1,25,12,3,97,1,1320,0,1.010222E-07,6.232879,0,-1
21,F,1,1,25,13,1,100,4,1375,0,0.2655998,6.641908,2.152405,-1
21,F,1,1,25,14,2,97,1,1142,0,0.4519347,10.27266,2.490179,-1
21,F,1,1,25,15,3,100,4,1298,0,0.1149785,6.645092,0.9503872,-1
21,F,1,1,25,16,2,98,2,4498,0,0.1829415,10.56272,0.9695482,-1
21,F,1,1,26,1,2,101,1,1176,0,0.5693045,10.25986,3.141615,-1
21,F,1,1,26,2,3,103,3,1476,0,0.08018897,6.267609,0.7008132,-1
21,F,1,1,26,3,1,104,4,1754,0,0.1780441,6.641688,1.460051,-1
21,F,1,1,26,4,1,101,1,1165,0,0.1672295,6.190424,1.495802,-1
21,F,1,1,26,5,3,102,2,2564,0,0.5066269,6.535842,4.174716,-1
21,F,1,1,26,6,4,103,3,1220,0,0.4679322,10.31521,2.556348,-1
21,F,1,1,26,7,3,101,1,1209,0,0.2648009,6.21384,2.372814,-1
21,F,1,1,26,8,2,102,2,2876,0,0.06574644,10.5556,0.3499859,-1
21,F,1,1,26,9,2,104,4,1587,0,0.5926673,10.41992,3.173545,-1
21,F,1,1,26,10,1,102,2,1864,1,0.3960712,6.540663,3.293129,-1
21,F,1,1,26,11,2,103,3,1031,0,0.8505173,10.29476,4.657913,-1
21,F,1,1,26,12,4,104,4,2020,0,1.512356E-07,10.51067,0,-1
21,F,1,1,26,13,4,102,2,1242,0,0.1971587,10.51536,1.049598,-1
21,F,1,1,26,14,3,104,4,1709,0,0.5029883,6.668839,4.050381,-1
21,F,1,1,26,15,1,103,3,1254,0,0.235985,6.289458,2.051759,-1
21,F,1,1,26,16,4,101,1,1309,1,0.446483,10.25468,2.411028,-1
21,F,1,1,27,1,4,106,2,1265,0,0.3884209,10.50624,2.0488,-1
21,F,1,1,27,2,4,107,3,1565,0,0.2953987,10.33466,1.595568,-1
21,F,1,1,27,3,2,106,2,1709,0,0.4738717,10.55451,2.509909,-1
21,F,1,1,27,4,3,107,3,1864,0,0.003077743,6.241226,0,-1
21,F,1,1,27,5,3,105,1,1420,0,0.02981168,6.250343,0.2624426,-1
21,F,1,1,27,6,1,107,3,1587,1,0.2509637,6.257737,2.185701,-1
21,F,1,1,27,7,3,106,2,2009,0,0.3718943,6.566344,3.078352,-1
21,F,1,1,27,8,2,108,4,1186,0,0.6405161,10.4083,3.397362,-1
21,F,1,1,27,9,2,105,1,1142,0,0.7931246,10.26519,4.376495,-1
21,F,1,1,27,10,1,106,2,1542,0,1.995655E-07,6.543669,0,-1
21,F,1,1,27,11,1,108,4,1676,1,0.2140056,6.645415,1.754239,-1
21,F,1,1,27,12,4,105,1,1476,1,7.588567E-08,10.24585,0,-1
21,F,1,1,27,13,3,108,4,1898,0,0.3239486,6.657111,2.646562,-1
21,F,1,1,27,14,2,107,3,1231,0,0.1320454,10.31735,0.7135413,-1
21,F,1,1,27,15,1,105,1,1164,0,0.09490005,6.192801,0.8453411,-1
21,F,1,1,27,16,4,108,4,1131,0,0.3131135,10.49207,1.682606,-1
21,F,1,1,28,1,3,111,3,1476,0,0.1000487,6.264736,0.8711056,-1
21,F,1,1,28,2,2,109,1,1198,0,0.2806665,10.27566,1.543196,-1
21,F,1,1,28,3,2,112,4,1075,0,0.0763251,10.43382,0.4087828,-1
21,F,1,1,28,4,4,109,1,2086,0,1.136639E-07,10.27993,0,-1
21,F,1,1,28,5,4,110,2,2909,0,0.2220429,10.5333,1.174032,-1
21,F,1,1,28,6,3,112,4,2843,2,0.01140954,6.708124,0.09278741,-1
21,F,1,1,28,7,1,109,1,1220,0,0.4725406,6.150331,4.267648,-1
21,F,1,1,28,8,1,110,2,1465,0,0.002880669,6.526006,0.02797646,-1
21,F,1,1,28,9,4,112,4,1331,0,6.730512E-08,10.43921,0.01978234,-1
21,F,1,1,28,10,4,111,3,1376,0,0.7944134,10.37833,4.328029,-1
21,F,1,1,28,11,1,112,4,1376,0,0.1663961,6.66118,1.358115,-1
21,F,1,1,28,12,3,110,2,1465,0,0.06811897,6.562253,0.5688952,-1
21,F,1,1,28,13,2,111,3,1420,0,0.4702659,10.33542,2.544452,-1
21,F,1,1,28,14,2,110,2,2042,0,0.302587,10.55021,1.615315,-1
21,F,1,1,28,15,3,109,1,1231,0,0.3009842,6.195978,2.64745,-1
21,F,1,1,28,16,1,111,3,1498,0,0.2898359,6.196301,2.606544,-1
21,F,1,1,29,1,1,113,1,1120,0,0.080737,6.193291,0.7165515,-1
21,F,1,1,29,2,4,116,4,1398,0,0.6047586,10.493,3.255099,-1
21,F,1,1,29,3,1,114,2,1354,0,0.03842054,6.532385,0.3202056,-1
21,F,1,1,29,4,2,115,3,1309,0,0.2328605,10.42769,1.257877,-1
21,F,1,1,29,5,3,114,2,1697,0,0.2418616,6.464151,2.046601,-1
21,F,1,1,29,6,4,113,1,1798,2,0.705805,10.18192,3.919666,-1
21,F,1,1,29,7,3,115,3,1832,0,0.3172413,6.216242,2.835037,-1
21,F,1,1,29,8,1,116,4,2753,2,0.3290939,6.591979,2.695733,-1
21,F,1,1,29,9,3,113,1,3276,1,0.1241616,6.221067,1.099673,-1
21,F,1,1,29,10,1,115,3,1620,1,0.3275636,6.19865,2.879025,-1
21,F,1,1,29,11,3,116,4,1309,0,0.3605358,6.615275,3.008433,-1
21,F,1,1,29,12,2,113,1,1587,1,0.6207261,10.22685,3.441394,-1
21,F,1,1,29,13,2,114,2,1231,0,1.506757E-07,10.4972,0.01978234,-1
21,F,1,1,29,14,4,115,3,1476,0,0.7953619,10.32348,4.309254,-1
21,F,1,1,29,15,4,114,2,2998,0,0.5198254,10.49881,2.773258,-1
21,F,1,1,29,16,2,116,4,1376,0,0.6224227,10.37335,3.317945,-1
21,F,1,1,30,1,1,119,3,1276,0,0.3868205,6.225323,3.490988,-1
21,F,1,1,30,2,4,118,2,4853,1,0.6155512,10.47983,3.303872,-1
21,F,1,1,30,3,1,120,4,1453,0,0.1890677,6.622593,1.584985,-1
21,F,1,1,30,4,1,117,1,1276,0,7.913219E-08,6.182826,0.01978234,-1
21,F,1,1,30,5,4,119,3,1287,0,2.033853E-07,10.33928,0,-1
21,F,1,1,30,6,3,117,1,1120,0,0.08295017,6.230207,0.7380747,-1
21,F,1,1,30,7,3,118,2,3676,1,0.5444859,6.367519,4.646249,-1
21,F,1,1,30,8,4,120,4,1120,0,0.3353216,10.38847,1.802006,-1
21,F,1,1,30,9,4,117,1,965,0,0.5254979,10.17141,2.921479,-1
21,F,1,1,30,10,2,119,3,1698,0,0.7414097,10.23829,3.992088,-1
21,F,1,1,30,11,2,117,1,1009,0,0.7204717,10.21893,3.991892,-1
21,F,1,1,30,12,2,120,4,3620,3,0.2706235,10.33934,1.465269,-1
21,F,1,1,30,13,1,118,2,1331,0,0.146786,6.465944,1.239384,-1
21,F,1,1,30,14,3,120,4,2687,2,0.3226628,6.61805,2.676934,-1
21,F,1,1,30,15,3,119,3,2043,1,0.3806307,6.164963,3.456891,-1
21,F,1,1,30,16,2,118,2,1565,0,0.6866631,10.48147,3.650446,-1
21,F,1,1,1,1,6,4,4,5764,0,-1,-1,-1,1
21,F,1,1,1,2,6,3,3,2331,0,-1,-1,-1,1
21,F,1,1,1,3,7,2,2,1409,0,-1,-1,-1,1
21,F,1,1,1,4,7,4,4,1175,0,-1,-1,-1,1
21,F,1,1,1,5,7,1,1,1565,0,-1,-1,-1,1
21,F,1,1,1,6,8,4,4,1565,0,-1,-1,-1,0
21,F,1,1,1,7,5,3,3,1709,0,-1,-1,-1,0
21,F,1,1,1,8,5,1,1,2009,0,-1,-1,-1,1
21,F,1,1,1,9,5,2,2,1842,0,-1,-1,-1,1
21,F,1,1,1,10,8,1,1,1043,0,-1,-1,-1,1
21,F,1,1,1,11,7,3,3,1165,0,-1,-1,-1,1
21,F,1,1,1,12,6,1,1,1687,0,-1,-1,-1,1
21,F,1,1,1,13,8,3,3,1098,0,-1,-1,-1,1
21,F,1,1,1,14,8,2,2,1187,0,-1,-1,-1,1
21,F,1,1,1,15,5,4,4,1820,0,-1,-1,-1,1
21,F,1,1,1,16,6,2,2,1020,0,-1,-1,-1,1
21,F,1,1,2,1,6,3,3,1087,0,-1,-1,-1,1
21,F,1,1,2,2,8,4,4,865,0,-1,-1,-1,1
21,F,1,1,2,3,8,3,3,1654,0,-1,-1,-1,0
21,F,1,1,2,4,6,1,1,987,0,-1,-1,-1,1
21,F,1,1,2,5,8,2,2,2298,0,-1,-1,-1,1
21,F,1,1,2,6,8,1,1,1954,0,-1,-1,-1,1
21,F,1,1,2,7,6,4,4,1198,0,-1,-1,-1,1
21,F,1,1,2,8,5,2,2,1142,0,-1,-1,-1,1
21,F,1,1,2,9,7,3,3,1431,0,-1,-1,-1,1
21,F,1,1,2,10,7,4,4,931,0,-1,-1,-1,1
21,F,1,1,2,11,7,1,1,1109,0,-1,-1,-1,1
21,F,1,1,2,12,7,2,2,953,0,-1,-1,-1,1
21,F,1,1,2,13,5,4,4,798,0,-1,-1,-1,1
21,F,1,1,2,14,6,2,2,887,0,-1,-1,-1,1
21,F,1,1,2,15,5,1,1,1831,0,-1,-1,-1,1
21,F,1,1,2,16,5,3,3,1031,0,-1,-1,-1,1
