Age, Gender, Awareness Type, Session, Block, Trial, Set, Pattern, Quadrant, Response Time, Num Mistakes, Distance From Target, Camera Distance From Target, Angle Error (Degrees), FC Response
29,F,1,1,1,1,1,4,4,5231,2,0.1852187,6.540594,1.539641,-1
29,F,1,1,1,2,1,3,3,3953,0,0.2183436,6.098645,1.981594,-1
29,F,1,1,1,3,3,4,4,8620,0,0.2128501,6.549742,1.764916,-1
29,F,1,1,1,4,2,1,1,3609,0,0.4035469,10.18686,2.20176,-1
29,F,1,1,1,5,3,2,2,2920,0,0.2528041,6.525829,2.104498,-1
29,F,1,1,1,6,3,3,3,3153,0,0.09022985,6.105573,0.8106001,-1
29,F,1,1,1,7,4,2,2,2864,0,0.290253,10.38494,1.555322,-1
29,F,1,1,1,8,4,1,1,5976,0,0.6013691,10.17451,3.31883,-1
29,F,1,1,1,9,4,4,4,5453,0,0.2740927,10.37161,1.472596,-1
29,F,1,1,1,10,2,2,2,5864,0,0.411799,10.39535,2.202115,-1
29,F,1,1,1,11,2,4,4,3242,0,0.6981236,10.37388,3.734443,-1
29,F,1,1,1,12,2,3,3,3109,0,0.6698574,10.18979,3.736016,-1
29,F,1,1,1,13,1,1,1,2354,0,0.1786723,6.154284,1.603155,-1
29,F,1,1,1,14,4,3,3,3364,0,0.4957836,10.14777,2.764633,-1
29,F,1,1,1,15,3,1,1,2531,0,0.1931782,6.157741,1.732574,-1
29,F,1,1,1,16,1,2,2,4409,2,0.2980078,6.519407,2.484907,-1
29,F,1,1,2,1,3,8,4,3242,0,0.3401904,6.529143,2.870649,-1
29,F,1,1,2,2,4,6,2,4609,0,0.2264943,10.39704,1.211439,-1
29,F,1,1,2,3,4,5,1,2309,0,0.7630883,10.18437,4.181794,-1
29,F,1,1,2,4,1,6,2,1553,0,0.1607205,6.533568,1.338376,-1
29,F,1,1,2,5,2,5,1,3632,2,0.4725986,10.18342,2.578609,-1
29,F,1,1,2,6,1,7,3,3198,0,6.378772E-08,6.117789,0.01978234,-1
29,F,1,1,2,7,2,6,2,5931,1,0.4570003,10.38906,2.448566,-1
29,F,1,1,2,8,2,8,4,1765,0,0.01059983,10.37854,0.05233916,-1
29,F,1,1,2,9,4,7,3,3576,0,0.475063,10.18205,2.610071,-1
29,F,1,1,2,10,4,8,4,5753,0,0.6685743,10.38029,3.647602,-1
29,F,1,1,2,11,3,6,2,3587,0,0.2473804,6.532184,2.060991,-1
29,F,1,1,2,12,1,8,4,2220,0,0.2480662,6.554971,2.051854,-1
29,F,1,1,2,13,1,5,1,3476,0,0.04882785,6.144917,0.4361108,-1
29,F,1,1,2,14,3,7,3,2953,0,1.570999E-07,6.099434,0,-1
29,F,1,1,2,15,3,5,1,2365,0,0.02046167,6.14565,0.1823843,-1
29,F,1,1,2,16,2,7,3,5220,0,0.6481572,10.19468,3.55837,-1
29,F,1,1,3,1,4,9,1,2876,0,0.535225,10.17663,2.904207,-1
29,F,1,1,3,2,1,12,4,3098,0,0.1456064,6.558294,1.210146,-1
29,F,1,1,3,3,2,10,2,3986,0,9.746915E-08,10.39794,0.01978234,-1
29,F,1,1,3,4,4,11,3,2931,0,0.166572,10.15502,0.9211111,-1
29,F,1,1,3,5,3,10,2,1709,0,0.5232654,6.5746,4.372556,-1
29,F,1,1,3,6,3,12,4,5253,0,0.2653755,6.556047,2.193031,-1
29,F,1,1,3,7,2,11,3,3509,0,0.5644746,10.16443,3.152998,-1
29,F,1,1,3,8,3,9,1,1887,0,1.970794E-07,6.156475,0,-1
29,F,1,1,3,9,1,11,3,3665,0,2.819472E-08,6.116336,0,-1
29,F,1,1,3,10,2,12,4,3287,0,0.2096803,10.37346,1.130039,-1
29,F,1,1,3,11,1,10,2,2109,1,0.4267453,6.532062,3.542377,-1
29,F,1,1,3,12,4,12,4,1865,0,0.2481972,10.3605,1.327217,-1
29,F,1,1,3,13,3,11,3,5442,0,5.600801E-08,6.121572,0,-1
29,F,1,1,3,14,2,9,1,1920,0,2.794104E-08,10.19161,0,-1
29,F,1,1,3,15,4,10,2,2442,0,0.726934,10.3615,3.888517,-1
29,F,1,1,3,16,1,9,1,2720,0,0.1149455,6.170328,1.014329,-1
29,F,1,1,4,1,3,14,2,2020,0,0.07872741,6.576059,0.6552143,-1
29,F,1,1,4,2,4,15,3,6354,0,1.586295E-07,10.1926,0,-1
29,F,1,1,4,3,1,14,2,4853,0,0.2331654,6.531932,1.926915,-1
29,F,1,1,4,4,3,13,1,3031,0,0.3928078,6.13244,3.534242,-1
29,F,1,1,4,5,4,16,4,7464,0,0.6536684,10.38807,3.48324,-1
29,F,1,1,4,6,2,14,2,1931,0,5.66134E-08,10.39827,0,-1
29,F,1,1,4,7,2,15,3,2175,0,0.07572521,10.18662,0.416371,-1
29,F,1,1,4,8,2,13,1,4387,2,0.8301588,10.18388,4.565659,-1
29,F,1,1,4,9,3,15,3,3209,0,8.014356E-08,6.110228,0,-1
29,F,1,1,4,10,1,13,1,2242,0,0.2553941,6.149916,2.24533,-1
29,F,1,1,4,11,3,16,4,2720,0,0.1232753,6.556415,1.025838,-1
29,F,1,1,4,12,1,15,3,2987,0,3.647844E-08,6.116818,0,-1
29,F,1,1,4,13,2,16,4,4709,0,0.5347393,10.37616,2.859444,-1
29,F,1,1,4,14,4,14,2,2931,1,0.4055099,10.37623,2.167176,-1
29,F,1,1,4,15,1,16,4,1665,0,0.06680887,6.566151,0.5626699,-1
29,F,1,1,4,16,4,13,1,1831,0,0.2695948,10.17942,1.471799,-1
29,F,1,1,5,1,3,20,4,5520,0,0.3191528,6.529149,2.662196,-1
29,F,1,1,5,2,1,17,1,1954,0,0.1251306,6.158482,1.105707,-1
29,F,1,1,5,3,1,20,4,2676,1,0.1723597,6.559204,1.435859,-1
29,F,1,1,5,4,2,17,1,1998,0,0.4551182,10.19439,2.482464,-1
29,F,1,1,5,5,1,19,3,4031,0,0.04755956,6.11734,0.427501,-1
29,F,1,1,5,6,2,20,4,7586,0,1.063579E-07,10.37412,0,-1
29,F,1,1,5,7,1,18,2,1965,0,0.1778613,6.535558,1.472862,-1
29,F,1,1,5,8,3,19,3,3587,0,0.03822891,6.11771,0.3403488,-1
29,F,1,1,5,9,2,18,2,2531,0,1.365117E-07,10.39756,0,-1
29,F,1,1,5,10,4,20,4,3264,0,0.03732331,10.3977,0.2017412,-1
29,F,1,1,5,11,4,17,1,2242,0,0.3996483,10.18858,2.197311,-1
29,F,1,1,5,12,2,19,3,2997,0,0.2054161,10.18565,1.128826,-1
29,F,1,1,5,13,3,18,2,3653,1,0.2392678,6.53751,2.012173,-1
29,F,1,1,5,14,4,19,3,3309,0,0.01543129,10.15793,0.08392937,-1
29,F,1,1,5,15,3,17,1,5764,0,0.4538579,6.159801,4.036141,-1
29,F,1,1,5,16,4,18,2,1920,0,0.2742994,10.37966,1.465269,-1
29,F,1,1,6,1,4,21,1,2020,0,0.2882228,10.18393,1.572217,-1
29,F,1,1,6,2,4,22,2,1731,0,0.4539188,10.36655,2.420912,-1
29,F,1,1,6,3,1,24,4,5387,0,0.004436584,6.568309,0.03426402,-1
29,F,1,1,6,4,1,21,1,2420,0,0.1814464,6.169172,1.597774,-1
29,F,1,1,6,5,1,22,2,1820,0,0.3888592,6.537009,3.236279,-1
29,F,1,1,6,6,3,21,1,2720,1,0.1576217,6.154757,1.388326,-1
29,F,1,1,6,7,2,22,2,4120,0,0.1695475,10.39938,0.9069818,-1
29,F,1,1,6,8,3,23,3,3920,0,0.1212266,6.113875,1.095215,-1
29,F,1,1,6,9,3,24,4,3376,0,0.5392863,6.556127,4.431201,-1
29,F,1,1,6,10,1,23,3,3965,0,0.003681303,6.123363,0.02797646,-1
29,F,1,1,6,11,2,21,1,2265,0,0.007306902,10.20303,0.04423466,-1
29,F,1,1,6,12,4,23,3,2986,0,0.1853496,10.15801,1.024693,-1
29,F,1,1,6,13,4,24,4,3253,0,0.4737039,10.4042,2.520725,-1
29,F,1,1,6,14,3,22,2,1553,0,0.4806557,6.538139,4.015077,-1
29,F,1,1,6,15,2,23,3,2798,0,0.04140514,10.18717,0.2281412,-1
29,F,1,1,6,16,2,24,4,2764,0,0.267792,10.38136,1.429713,-1
29,F,1,1,7,1,2,27,3,2620,0,0.02391606,10.19009,0.1297215,-1
29,F,1,1,7,2,4,28,4,3887,0,0.3748322,10.36489,1.999293,-1
29,F,1,1,7,3,4,27,3,3131,0,0.5943396,10.1859,3.301916,-1
29,F,1,1,7,4,1,28,4,1498,0,0.4294603,6.561062,3.574948,-1
29,F,1,1,7,5,4,25,1,5342,0,0.09565599,10.1943,0.5230194,-1
29,F,1,1,7,6,1,26,2,4787,2,2.278206E-07,6.531116,0,-1
29,F,1,1,7,7,1,25,1,3565,0,6.910678E-08,6.154814,0,-1
29,F,1,1,7,8,3,27,3,9364,0,0.07377512,6.119425,0.6641131,-1
29,F,1,1,7,9,2,28,4,2020,0,0.2144071,10.38383,1.146201,-1
29,F,1,1,7,10,3,26,2,2198,1,0.1551847,6.569953,1.295884,-1
29,F,1,1,7,11,1,27,3,3009,0,1.837004E-07,6.125072,0,-1
29,F,1,1,7,12,4,26,2,2420,0,0.201044,10.37743,1.074108,-1
29,F,1,1,7,13,3,28,4,2286,0,0.2681919,6.520597,2.232743,-1
29,F,1,1,7,14,3,25,1,2742,0,0.3223215,6.15711,2.824661,-1
29,F,1,1,7,15,2,26,2,1609,0,0.1426975,10.39416,0.7638705,-1
29,F,1,1,7,16,2,25,1,1987,0,0.472623,10.19006,2.577242,-1
29,F,1,1,8,1,4,31,3,3187,0,0.7642043,10.15121,4.262367,-1
29,F,1,1,8,2,4,30,2,1687,0,0.191697,10.39045,1.037409,-1
29,F,1,1,8,3,3,31,3,6464,0,0.08131295,6.130223,0.7308815,-1
29,F,1,1,8,4,3,29,1,3854,0,0.1501227,6.154446,1.323378,-1
29,F,1,1,8,5,1,32,4,1965,0,0.2485585,6.562423,2.057094,-1
29,F,1,1,8,6,1,31,3,4109,0,0.02101026,6.124367,0.1876719,-1
29,F,1,1,8,7,2,29,1,2120,0,0.743327,10.19299,4.123693,-1
29,F,1,1,8,8,2,32,4,1898,0,0.3274747,10.37782,1.767908,-1
29,F,1,1,8,9,4,29,1,2042,0,0.00961291,10.19105,0.05233916,-1
29,F,1,1,8,10,1,30,2,3020,1,0.490987,6.529339,4.081351,-1
29,F,1,1,8,11,3,32,4,2865,0,0.06999186,6.525043,0.5851721,-1
29,F,1,1,8,12,1,29,1,1887,0,0.3284999,6.157096,2.899081,-1
29,F,1,1,8,13,2,30,2,1809,0,0.5321581,10.39579,2.835037,-1
29,F,1,1,8,14,4,32,4,8742,1,0.2136859,10.39654,1.157413,-1
29,F,1,1,8,15,2,31,3,3520,0,0.5722445,10.18753,3.189912,-1
29,F,1,1,8,16,3,30,2,1465,0,0.2265625,6.531397,1.886474,-1
29,F,1,1,9,1,3,36,4,1565,0,0.2861894,6.521944,2.394737,-1
29,F,1,1,9,2,3,34,2,2087,1,0.01249792,6.581296,0.1027921,-1
29,F,1,1,9,3,2,36,4,1287,0,0.09959193,10.37028,0.5363187,-1
29,F,1,1,9,4,4,35,3,3076,1,0.1774219,10.18652,0.9809847,-1
29,F,1,1,9,5,4,36,4,1798,0,0.08642572,10.35683,0.4656223,-1
29,F,1,1,9,6,3,33,1,1809,0,8.310201E-08,6.18544,0,-1
29,F,1,1,9,7,2,34,2,3254,0,0.3872081,10.40706,2.070937,-1
29,F,1,1,9,8,3,35,3,2998,0,1.349631E-07,6.096206,0,-1
29,F,1,1,9,9,1,36,4,1187,0,0.161628,6.558867,1.34523,-1
29,F,1,1,9,10,1,34,2,1187,0,0.04330939,6.551539,0.3609945,-1
29,F,1,1,9,11,4,33,1,1342,0,0.4375393,10.20988,2.373556,-1
29,F,1,1,9,12,1,35,3,2742,0,0.06279391,6.113808,0.5605795,-1
29,F,1,1,9,13,1,33,1,1898,0,0.2626433,6.182196,2.305032,-1
29,F,1,1,9,14,4,34,2,1309,0,0.3711987,10.41214,2.010226,-1
29,F,1,1,9,15,2,35,3,4654,0,1.177972E-07,10.18385,0,-1
29,F,1,1,9,16,2,33,1,2131,0,0.2830025,10.21437,1.551165,-1
29,F,1,1,10,1,4,38,2,1354,0,0.6897505,10.38475,3.655966,-1
29,F,1,1,10,2,2,39,3,2398,0,0.8519838,10.19678,4.726463,-1
29,F,1,1,10,3,1,40,4,2576,0,0.2688855,6.560623,2.233882,-1
29,F,1,1,10,4,1,38,2,1409,0,0.2778793,6.543208,2.294905,-1
29,F,1,1,10,5,3,39,3,2309,0,0.3975571,6.101917,3.529697,-1
29,F,1,1,10,6,4,37,1,4298,0,0.05667601,10.22285,0.3090104,-1
29,F,1,1,10,7,2,38,2,1453,0,0.6780716,10.4204,3.603859,-1
29,F,1,1,10,8,1,39,3,2242,0,0.09463476,6.112407,0.8420942,-1
29,F,1,1,10,9,3,37,1,1987,0,9.309052E-08,6.170308,0,-1
29,F,1,1,10,10,3,40,4,1554,0,0.1750623,6.554374,1.46567,-1
29,F,1,1,10,11,3,38,2,1276,0,0.3898493,6.554541,3.248054,-1
29,F,1,1,10,12,1,37,1,2598,0,2.270655E-08,6.189597,0,-1
29,F,1,1,10,13,4,39,3,3542,1,0.2687042,10.15986,1.47565,-1
29,F,1,1,10,14,2,40,4,2442,0,0.3850311,10.37536,2.057094,-1
29,F,1,1,10,15,2,37,1,2054,0,0.08887169,10.21868,0.4865827,-1
29,F,1,1,10,16,4,40,4,2120,0,0.01298557,10.36337,0.06852804,-1
29,F,1,1,11,1,3,41,1,1742,0,0.01895017,6.194852,0.166689,-1
29,F,1,1,11,2,1,43,3,3375,0,0.3859751,6.122273,3.433819,-1
29,F,1,1,11,3,2,42,2,1431,0,0.02266697,10.42128,0.1219466,-1
29,F,1,1,11,4,4,44,4,2520,1,0.2897704,10.39954,1.547375,-1
29,F,1,1,11,5,4,41,1,1376,0,0.3709602,10.22224,2.032688,-1
29,F,1,1,11,6,4,42,2,1176,0,0.6379878,10.39587,3.407892,-1
29,F,1,1,11,7,4,43,3,2909,0,0.5856388,10.17346,3.225554,-1
29,F,1,1,11,8,2,44,4,1887,0,0.03540553,10.3725,0.1907741,-1
29,F,1,1,11,9,2,43,3,2576,0,0.4979088,10.19879,2.731153,-1
29,F,1,1,11,10,2,41,1,1709,0,0.3728929,10.22237,2.03442,-1
29,F,1,1,11,11,1,42,2,1676,1,0.5582842,6.550514,4.64317,-1
29,F,1,1,11,12,3,44,4,5953,0,1.559532E-07,6.522951,0,-1
29,F,1,1,11,13,3,43,3,2576,0,0.0001271674,6.094816,0,-1
29,F,1,1,11,14,1,44,4,2342,1,0.3338572,6.555343,2.77121,-1
29,F,1,1,11,15,1,41,1,1431,0,0.3175043,6.186996,2.788673,-1
29,F,1,1,11,16,3,42,2,1354,0,0.4086619,6.54835,3.393211,-1
29,F,1,1,12,1,2,45,1,1431,0,0.0980937,10.21122,0.5355885,-1
29,F,1,1,12,2,3,48,4,2565,0,0.3129359,6.549064,2.584069,-1
29,F,1,1,12,3,1,47,3,2198,0,0.201142,6.117152,1.802331,-1
29,F,1,1,12,4,4,45,1,1753,0,0.196224,10.21873,1.066979,-1
29,F,1,1,12,5,2,48,4,2776,0,0.3238157,10.3708,1.753123,-1
29,F,1,1,12,6,2,46,2,1276,0,0.2473306,10.41946,1.321306,-1
29,F,1,1,12,7,3,45,1,1298,0,0.3436589,6.193799,3.033769,-1
29,F,1,1,12,8,4,47,3,1876,0,0.132509,10.15073,0.7311491,-1
29,F,1,1,12,9,4,46,2,1342,0,1.470064E-07,10.42198,0,-1
29,F,1,1,12,10,4,48,4,2231,0,0.7029142,10.36601,3.813722,-1
29,F,1,1,12,11,3,47,3,1998,0,0.1279459,6.104896,1.141753,-1
29,F,1,1,12,12,3,46,2,1353,0,0.1311685,6.557733,1.085344,-1
29,F,1,1,12,13,1,45,1,2320,2,1.340706E-07,6.188297,0,-1
29,F,1,1,12,14,1,46,2,1054,0,0.4071059,6.548654,3.38495,-1
29,F,1,1,12,15,1,48,4,2320,3,0.2120577,6.555979,1.769125,-1
29,F,1,1,12,16,2,47,3,2465,0,0.5011647,10.18948,2.771281,-1
29,F,1,1,13,1,4,52,4,1498,0,0.09236287,10.41129,0.4949555,-1
29,F,1,1,13,2,2,50,2,1365,0,0.450684,10.39587,2.41638,-1
29,F,1,1,13,3,1,51,3,1998,0,0.3436381,6.148137,3.045297,-1
29,F,1,1,13,4,3,49,1,2253,1,0.3961597,6.169917,3.516693,-1
29,F,1,1,13,5,1,52,4,1620,0,0.2762896,6.571262,2.293369,-1
29,F,1,1,13,6,4,49,1,1564,0,0.4748849,10.18967,2.593972,-1
29,F,1,1,13,7,2,51,3,5220,2,0.003721037,10.20857,0,-1
29,F,1,1,13,8,4,50,2,1287,0,0.09552707,10.40178,0.509757,-1
29,F,1,1,13,9,3,52,4,4453,0,0.09360071,6.547519,0.7845948,-1
29,F,1,1,13,10,3,50,2,1642,0,6.484054E-08,6.600673,0,-1
29,F,1,1,13,11,1,49,1,2587,0,0.1360697,6.183809,1.199262,-1
29,F,1,1,13,12,4,51,3,2265,0,0.3652929,10.22078,2.015089,-1
29,F,1,1,13,13,2,52,4,3565,0,0.1103474,10.41181,0.5934729,-1
29,F,1,1,13,14,1,50,2,1509,0,0.1281127,6.557851,1.063305,-1
29,F,1,1,13,15,3,51,3,2454,0,0.3500747,6.152551,3.118976,-1
29,F,1,1,13,16,2,49,1,2409,2,0.7017876,10.22474,3.818391,-1
29,F,1,1,14,1,1,56,4,1387,0,0.1912233,6.588038,1.587699,-1
29,F,1,1,14,2,3,55,3,2787,0,0.1576968,6.136223,1.4201,-1
29,F,1,1,14,3,1,53,1,4120,1,0.5128316,6.177399,4.514013,-1
29,F,1,1,14,4,2,55,3,2587,0,0.2689098,10.21063,1.487142,-1
29,F,1,1,14,5,2,54,2,2020,1,0.8854541,10.42549,4.837602,-1
29,F,1,1,14,6,1,55,3,3042,0,0.3103445,6.144505,2.752926,-1
29,F,1,1,14,7,1,54,2,1731,0,0.3993888,6.56681,3.293485,-1
29,F,1,1,14,8,4,56,4,3242,0,0.4548863,10.39383,2.476544,-1
29,F,1,1,14,9,4,53,1,3242,1,0.8221276,10.21786,4.52316,-1
29,F,1,1,14,10,2,56,4,2175,0,0.3625185,10.40956,1.955047,-1
29,F,1,1,14,11,2,53,1,1987,0,0.8054719,10.22312,4.384231,-1
29,F,1,1,14,12,4,54,2,1965,0,0.5736585,10.39531,3.036155,-1
29,F,1,1,14,13,4,55,3,4375,1,1.47433E-07,10.21704,0,-1
29,F,1,1,14,14,3,56,4,1531,0,2.045699E-07,6.592952,0,-1
29,F,1,1,14,15,3,54,2,1142,0,0.2412751,6.556979,1.998118,-1
29,F,1,1,14,16,3,53,1,4120,1,0.5096397,6.179879,4.467036,-1
29,F,1,1,15,1,2,58,2,2965,0,0.52022,10.42458,2.762225,-1
29,F,1,1,15,2,2,60,4,1920,0,0.3461869,10.40745,1.868755,-1
29,F,1,1,15,3,3,58,2,1931,0,0.3674331,6.555112,3.034027,-1
29,F,1,1,15,4,4,57,1,6876,4,0.5003597,10.19685,2.712744,-1
29,F,1,1,15,5,2,59,3,2765,0,0.3601292,10.21149,1.97338,-1
29,F,1,1,15,6,4,58,2,2342,0,0.1173885,10.40414,0.629007,-1
29,F,1,1,15,7,3,57,1,3853,2,0.4016019,6.161767,3.534464,-1
29,F,1,1,15,8,3,60,4,2087,0,0.1736274,6.533435,1.438174,-1
29,F,1,1,15,9,3,59,3,2631,0,0.3526483,6.138886,3.130941,-1
29,F,1,1,15,10,4,60,4,4565,0,1.354605E-07,10.40188,0,-1
29,F,1,1,15,11,1,58,2,1242,0,0.3754303,6.549655,3.12067,-1
29,F,1,1,15,12,2,57,1,3009,1,0.5252805,10.20787,2.858828,-1
29,F,1,1,15,13,1,59,3,2820,0,0.3147403,6.13419,2.796944,-1
29,F,1,1,15,14,1,60,4,1387,0,1.49491E-07,6.589145,0,-1
29,F,1,1,15,15,1,57,1,2787,0,0.4157165,6.180901,3.656074,-1
29,F,1,1,15,16,4,59,3,2265,0,0.4227195,10.18801,2.324732,-1
29,F,1,1,16,1,4,64,4,1942,0,8.281964E-08,10.39407,0,-1
29,F,1,1,16,2,3,63,3,2887,0,0.4996002,6.139701,4.424388,-1
29,F,1,1,16,3,4,61,1,6420,0,0.8736051,10.20499,4.781228,-1
29,F,1,1,16,4,2,63,3,1709,0,0.8647883,10.21904,4.741691,-1
29,F,1,1,16,5,2,61,1,2976,1,0.663623,10.2126,3.632594,-1
29,F,1,1,16,6,2,64,4,2331,0,0.3941832,10.40048,2.128541,-1
29,F,1,1,16,7,4,63,3,8409,3,0.6721938,10.18737,3.694168,-1
29,F,1,1,16,8,3,61,1,4887,1,0.1940859,6.15228,1.706856,-1
29,F,1,1,16,9,3,62,2,2709,0,0.4463998,6.550309,3.710457,-1
29,F,1,1,16,10,1,63,3,4376,0,0.3837261,6.141583,3.403868,-1
29,F,1,1,16,11,1,61,1,4309,0,0.4818492,6.171932,4.24441,-1
29,F,1,1,16,12,4,62,2,3965,0,0.4586708,10.38993,2.460766,-1
29,F,1,1,16,13,1,64,4,2165,0,0.0491317,6.579989,0.4102162,-1
29,F,1,1,16,14,2,62,2,1776,0,0.8241137,10.41703,4.440826,-1
29,F,1,1,16,15,3,64,4,1809,0,0.2227607,6.532063,1.852135,-1
29,F,1,1,16,16,1,62,2,1865,0,0.4056084,6.549868,3.371562,-1
29,F,1,1,17,1,3,68,4,3276,0,7.681363E-08,6.535748,0,-1
29,F,1,1,17,2,1,65,1,4342,1,0.5225856,6.168395,4.606492,-1
29,F,1,1,17,3,4,68,4,8898,0,0.06314856,10.39479,0.339197,-1
29,F,1,1,17,4,4,67,3,2865,0,0.4888187,10.17445,2.680076,-1
29,F,1,1,17,5,1,68,4,2487,0,0.195315,6.581345,1.645324,-1
29,F,1,1,17,6,3,67,3,5920,1,0.1519976,6.130267,1.370022,-1
29,F,1,1,17,7,2,65,1,2887,0,0.7737641,10.20591,4.218305,-1
29,F,1,1,17,8,4,66,2,4965,2,0.4003908,10.38474,2.161479,-1
29,F,1,1,17,9,4,65,1,6909,3,0.27115,10.1367,1.483189,-1
29,F,1,1,17,10,3,66,2,2898,0,0.2403836,6.54654,1.992821,-1
29,F,1,1,17,11,2,67,3,2431,0,0.4120633,10.19383,2.27133,-1
29,F,1,1,17,12,2,66,2,3698,1,0.7701701,10.40146,4.152043,-1
29,F,1,1,17,13,2,68,4,3054,0,0.0776534,10.39713,0.4177785,-1
29,F,1,1,17,14,3,65,1,2742,0,0.394335,6.161336,3.498327,-1
29,F,1,1,17,15,1,67,3,3031,0,0.4877544,6.130113,4.338064,-1
29,F,1,1,17,16,1,66,2,2065,0,0.3027258,6.542188,2.509284,-1
29,F,1,1,18,1,3,72,4,3587,0,0.211241,6.556158,1.785641,-1
29,F,1,1,18,2,3,70,2,2420,0,0.2149951,6.5528,1.784106,-1
29,F,1,1,18,3,3,71,3,3865,0,0.4308952,6.144577,3.873987,-1
29,F,1,1,18,4,1,69,1,5809,2,0.2854413,6.133521,2.52507,-1
29,F,1,1,18,5,1,70,2,4020,2,0.2528413,6.540618,2.11794,-1
29,F,1,1,18,6,2,71,3,2698,0,0.3040779,10.18131,1.682025,-1
29,F,1,1,18,7,2,72,4,3331,0,0.1814506,10.38196,0.9801866,-1
29,F,1,1,18,8,4,69,1,2776,0,0.8504027,10.16391,4.628339,-1
29,F,1,1,18,9,2,70,2,2176,0,0.7467744,10.38636,3.980839,-1
29,F,1,1,18,10,2,69,1,2342,0,0.7373785,10.17723,4.030606,-1
29,F,1,1,18,11,4,72,4,2554,0,0.3334303,10.36559,1.803851,-1
29,F,1,1,18,12,1,71,3,3342,0,0.2562921,6.122067,2.28139,-1
29,F,1,1,18,13,3,69,1,4553,2,0.4662113,6.128281,4.122268,-1
29,F,1,1,18,14,4,71,3,3220,0,0.6643989,10.14166,3.656877,-1
29,F,1,1,18,15,4,70,2,2931,0,0.6889139,10.35951,3.670292,-1
29,F,1,1,18,16,1,72,4,2353,0,0.2937343,6.559511,2.427371,-1
29,F,1,1,19,1,2,74,2,2142,0,0.6217809,10.39001,3.332253,-1
29,F,1,1,19,2,4,76,4,2331,0,0.1624529,10.36223,0.8699816,-1
29,F,1,1,19,3,4,73,1,2164,0,0.5582945,10.16267,3.053771,-1
29,F,1,1,19,4,1,74,2,1942,0,0.1066319,6.534423,0.8886743,-1
29,F,1,1,19,5,1,75,3,4776,0,0.03999506,6.113688,0.3566318,-1
29,F,1,1,19,6,1,76,4,2298,0,9.451557E-08,6.566777,0,-1
29,F,1,1,19,7,4,75,3,3231,0,0.7235936,10.18693,3.977541,-1
29,F,1,1,19,8,1,73,1,2520,0,0.3863621,6.141395,3.41839,-1
29,F,1,1,19,9,3,74,2,2242,0,0.3764656,6.571964,3.141054,-1
29,F,1,1,19,10,2,76,4,2854,0,0.1083415,10.37564,0.5804718,-1
29,F,1,1,19,11,4,74,2,2254,0,0.08056189,10.3608,0.4325065,-1
29,F,1,1,19,12,3,73,1,2120,0,0.5088906,6.152098,4.52329,-1
29,F,1,1,19,13,2,75,3,2642,0,0.5576016,10.18447,3.063499,-1
29,F,1,1,19,14,3,76,4,9220,0,0.1118866,6.573472,0.9425307,-1
29,F,1,1,19,15,2,73,1,4509,2,0.5453339,10.17875,2.984325,-1
29,F,1,1,19,16,3,75,3,5176,0,1.525221E-07,6.104442,0,-1
29,F,1,1,20,1,3,78,2,5487,2,0.114454,6.530052,0.9540861,-1
29,F,1,1,20,2,2,77,1,3897,1,0.6683221,10.18333,3.650446,-1
29,F,1,1,20,3,4,79,3,2854,0,0.8328288,10.16435,4.605343,-1
29,F,1,1,20,4,2,80,4,2153,0,0.08173301,10.38115,0.4396856,-1
29,F,1,1,20,5,2,78,2,4165,2,0.4924559,10.38713,2.629124,-1
29,F,1,1,20,6,4,80,4,3220,0,3.802393E-07,10.3807,0,-1
29,F,1,1,20,7,2,79,3,3287,0,0.5042373,10.18649,2.769727,-1
29,F,1,1,20,8,4,78,2,2787,0,0.4058901,10.36357,2.157401,-1
29,F,1,1,20,9,1,79,3,5853,0,0.05403824,6.112876,0.4825446,-1
29,F,1,1,20,10,4,77,1,5386,2,0.8175588,10.1998,4.443384,-1
29,F,1,1,20,11,1,80,4,2476,0,2.357077E-07,6.566639,0.01978234,-1
29,F,1,1,20,12,1,78,2,2909,0,0.2076681,6.525432,1.729296,-1
29,F,1,1,20,13,3,79,3,4575,0,0.4741757,6.127387,4.216354,-1
29,F,1,1,20,14,1,77,1,3298,0,0.4922038,6.151183,4.349786,-1
29,F,1,1,20,15,3,80,4,2843,0,1.374974E-07,6.564871,0.01978234,-1
29,F,1,1,20,16,3,77,1,3154,0,0.3814639,6.144779,3.373188,-1
29,F,1,1,21,1,1,84,4,1820,0,3.311525E-08,6.603086,0,-1
29,F,1,1,21,2,3,81,1,3820,1,0.5199488,6.162996,4.593674,-1
29,F,1,1,21,3,4,84,4,3387,0,2.128612E-08,10.4447,0,-1
29,F,1,1,21,4,4,81,1,3431,1,0.4476103,10.20107,2.439757,-1
29,F,1,1,21,5,2,82,2,2553,0,0.6840934,10.40707,3.65677,-1
29,F,1,1,21,6,2,84,4,3342,0,0.261871,10.41925,1.407921,-1
29,F,1,1,21,7,1,81,1,6176,5,0.4744082,6.158676,4.186615,-1
29,F,1,1,21,8,3,83,3,6320,1,0.2185883,6.147499,1.936439,-1
29,F,1,1,21,9,3,82,2,2587,0,0.2864211,6.587034,2.403222,-1
29,F,1,1,21,10,3,84,4,4687,0,0.1745766,6.557987,1.454008,-1
29,F,1,1,21,11,4,83,3,4920,0,3.21238E-08,10.17945,0,-1
29,F,1,1,21,12,1,82,2,1864,0,0.3753473,6.55055,3.165392,-1
29,F,1,1,21,13,1,83,3,2742,0,0.309725,6.160147,2.740098,-1
29,F,1,1,21,14,2,81,1,2542,0,0.5039421,10.18917,2.750152,-1
29,F,1,1,21,15,4,82,2,2687,0,0.7260151,10.38979,3.861887,-1
29,F,1,1,21,16,2,83,3,3142,0,0.1294138,10.2147,0.7091401,-1
29,F,1,1,22,1,3,88,4,3198,0,0.09188446,6.545456,0.7625886,-1
29,F,1,1,22,2,4,86,2,1942,0,0.4116601,10.37281,2.209037,-1
29,F,1,1,22,3,4,88,4,1976,0,0.1039943,10.39625,0.5584812,-1
29,F,1,1,22,4,3,87,3,4676,1,0.4659215,6.166059,4.118418,-1
29,F,1,1,22,5,2,88,4,3220,0,1.619575E-07,10.41042,0.01978234,-1
29,F,1,1,22,6,3,85,1,5876,2,0.2063231,6.142234,1.824133,-1
29,F,1,1,22,7,1,86,2,2576,0,0.527101,6.529366,4.396143,-1
29,F,1,1,22,8,2,87,3,3676,0,0.3207786,10.19925,1.759808,-1
29,F,1,1,22,9,4,85,1,5931,1,0.559804,10.17932,3.058255,-1
29,F,1,1,22,10,3,86,2,2376,0,0.4820866,6.541604,3.990959,-1
29,F,1,1,22,11,2,85,1,6887,3,0.7297184,10.18981,3.983789,-1
29,F,1,1,22,12,1,87,3,4286,0,2.621869E-08,6.151325,0,-1
29,F,1,1,22,13,2,86,2,3809,1,0.8869289,10.39096,4.767277,-1
29,F,1,1,22,14,1,88,4,2609,0,0.2556241,6.590966,2.123846,-1
29,F,1,1,22,15,1,85,1,5898,3,0.2440694,6.150445,2.175199,-1
29,F,1,1,22,16,4,87,3,3476,0,0.5835627,10.1772,3.199533,-1
29,F,1,1,23,1,3,90,2,2087,0,0.09734203,6.542806,0.8106001,-1
29,F,1,1,23,2,3,91,3,3386,0,0.4979636,6.146049,4.407178,-1
29,F,1,1,23,3,4,92,4,3042,0,0.02231113,10.39679,0.1186941,-1
29,F,1,1,23,4,4,89,1,4320,2,0.1172273,10.17481,0.6434618,-1
29,F,1,1,23,5,2,91,3,3931,0,0.5085595,10.21421,2.785724,-1
29,F,1,1,23,6,1,92,4,2698,0,0.07746722,6.595324,0.6425489,-1
29,F,1,1,23,7,1,90,2,2231,0,0.3709184,6.539498,3.087306,-1
29,F,1,1,23,8,3,89,1,4865,1,0.5122958,6.144512,4.509976,-1
29,F,1,1,23,9,1,91,3,3353,0,0.4736728,6.156291,4.185632,-1
29,F,1,1,23,10,2,92,4,4698,0,3.535071E-07,10.4112,0,-1
29,F,1,1,23,11,4,90,2,2864,0,0.2671341,10.39145,1.425052,-1
29,F,1,1,23,12,4,91,3,2476,0,0.3212128,10.17304,1.756803,-1
29,F,1,1,23,13,1,89,1,8965,3,1.107339E-07,6.138443,0,-1
29,F,1,1,23,14,3,92,4,2809,0,1.077636E-07,6.556002,0,-1
29,F,1,1,23,15,2,89,1,2409,0,0.2753003,10.19097,1.501678,-1
29,F,1,1,23,16,2,90,2,6398,2,0.8575987,10.39499,4.56909,-1
29,F,1,1,24,1,1,95,3,4775,0,0.1267497,6.130488,1.128999,-1
29,F,1,1,24,2,1,96,4,2009,0,0.02881084,6.581153,0.2398483,-1
29,F,1,1,24,3,3,93,1,4098,1,0.494608,6.143776,4.401486,-1
29,F,1,1,24,4,2,95,3,2942,0,0.1664506,10.19247,0.9145018,-1
29,F,1,1,24,5,4,93,1,2742,0,0.7983879,10.18052,4.347129,-1
29,F,1,1,24,6,3,94,2,1865,0,0.3610524,6.532551,3.012854,-1
29,F,1,1,24,7,1,93,1,3353,1,0.3051425,6.143237,2.691227,-1
29,F,1,1,24,8,2,96,4,2286,0,0.4249921,10.39282,2.31672,-1
29,F,1,1,24,9,4,94,2,1664,0,0.6359349,10.38933,3.40243,-1
29,F,1,1,24,10,4,95,3,2497,0,0.2626401,10.16058,1.448884,-1
29,F,1,1,24,11,1,94,2,2064,0,0.3835998,6.531609,3.196778,-1
29,F,1,1,24,12,4,96,4,2908,0,0.2405732,10.42103,1.282832,-1
29,F,1,1,24,13,2,94,2,2198,0,0.4686675,10.38689,2.499985,-1
29,F,1,1,24,14,2,93,1,2509,0,0.8378097,10.17719,4.580607,-1
29,F,1,1,24,15,3,95,3,4820,0,0.2347118,6.146525,2.082905,-1
29,F,1,1,24,16,3,96,4,2776,0,3.692342E-07,6.587682,0,-1
29,F,1,1,25,1,4,99,3,3542,1,0.2276777,10.16848,1.249135,-1
29,F,1,1,25,2,3,100,4,2120,0,0.2371799,6.581682,1.965629,-1
29,F,1,1,25,3,1,98,2,2698,1,0.4198363,6.533659,3.49816,-1
29,F,1,1,25,4,1,97,1,2231,0,0.5261626,6.161686,4.642538,-1
29,F,1,1,25,5,3,99,3,6276,3,0.4897045,6.146183,4.334857,-1
29,F,1,1,25,6,2,98,2,2742,0,0.3970957,10.38809,2.15004,-1
29,F,1,1,25,7,3,97,1,2565,0,0.4749302,6.133551,4.232673,-1
29,F,1,1,25,8,2,100,4,2765,0,0.03995846,10.39962,0.2139789,-1
29,F,1,1,25,9,1,99,3,5231,0,0.446682,6.146296,3.959778,-1
29,F,1,1,25,10,4,98,2,2698,0,0.8002503,10.37545,4.245471,-1
29,F,1,1,25,11,2,97,1,2709,0,0.7275489,10.17801,3.976458,-1
29,F,1,1,25,12,1,100,4,2154,0,0.07572843,6.580236,0.6299395,-1
29,F,1,1,25,13,3,98,2,2031,0,0.203639,6.540399,1.693157,-1
29,F,1,1,25,14,4,100,4,2120,0,0.327674,10.3941,1.746525,-1
29,F,1,1,25,15,2,99,3,2331,0,0.7021585,10.19743,3.840277,-1
29,F,1,1,25,16,4,97,1,2631,0,0.4430469,10.17812,2.420184,-1
29,F,1,1,26,1,4,104,4,3165,0,0.07528118,10.41752,0.4049353,-1
29,F,1,1,26,2,2,101,1,4409,1,0.3907409,10.17977,2.131756,-1
29,F,1,1,26,3,1,104,4,3098,0,0.2315793,6.57502,1.932493,-1
29,F,1,1,26,4,4,101,1,6431,1,0.7384021,10.17193,4.017223,-1
29,F,1,1,26,5,1,103,3,4020,1,3.629114E-08,6.129428,0,-1
29,F,1,1,26,6,2,102,2,3154,1,0.7580227,10.3821,4.082695,-1
29,F,1,1,26,7,2,103,3,2320,0,0.3199162,10.18465,1.757805,-1
29,F,1,1,26,8,4,102,2,1920,0,0.6133513,10.36564,3.261108,-1
29,F,1,1,26,9,4,103,3,2953,0,0.8351393,10.19298,4.575687,-1
29,F,1,1,26,10,1,101,1,2587,0,0.5135009,6.137647,4.547346,-1
29,F,1,1,26,11,3,104,4,2109,0,0.116727,6.534139,0.9723696,-1
29,F,1,1,26,12,3,103,3,3442,1,1.314096E-07,6.141063,0,-1
29,F,1,1,26,13,3,102,2,2154,0,0.1283638,6.564632,1.071371,-1
29,F,1,1,26,14,3,101,1,3409,1,0.4956592,6.144763,4.38432,-1
29,F,1,1,26,15,1,102,2,2231,0,0.1529087,6.529872,1.274415,-1
29,F,1,1,26,16,2,104,4,2120,0,0.02241578,10.39501,0.1203313,-1
29,F,1,1,27,1,3,105,1,6398,3,0.3368598,6.12917,2.970847,-1
29,F,1,1,27,2,4,108,4,2853,0,0.2446781,10.39019,1.323378,-1
29,F,1,1,27,3,4,107,3,5031,0,0.02519274,10.15873,0.1384764,-1
29,F,1,1,27,4,4,105,1,2309,0,0.2698956,10.15024,1.473792,-1
29,F,1,1,27,5,1,108,4,2053,0,0.4086411,6.559266,3.421023,-1
29,F,1,1,27,6,2,107,3,2453,0,0.156755,10.19132,0.861165,-1
29,F,1,1,27,7,1,106,2,1809,0,0.1729507,6.520647,1.4432,-1
29,F,1,1,27,8,2,108,4,2520,0,0.2744666,10.38536,1.465269,-1
29,F,1,1,27,9,2,105,1,3387,1,0.7873081,10.17525,4.304797,-1
29,F,1,1,27,10,1,107,3,3331,0,1.776309E-07,6.130965,0.01978234,-1
29,F,1,1,27,11,1,105,1,2065,0,0.4197381,6.127525,3.721628,-1
29,F,1,1,27,12,2,106,2,1954,0,0.8283713,10.37033,4.423104,-1
29,F,1,1,27,13,3,108,4,2065,0,2.268522E-07,6.544026,0.01978234,-1
29,F,1,1,27,14,3,106,2,1798,0,0.4119817,6.570631,3.442986,-1
29,F,1,1,27,15,3,107,3,4654,1,0.3685152,6.154115,3.268124,-1
29,F,1,1,27,16,4,106,2,3520,0,0.6902655,10.35798,3.697664,-1
29,F,1,1,28,1,1,109,1,4098,1,0.4138535,6.135325,3.66506,-1
29,F,1,1,28,2,3,111,3,3609,0,3.110274E-08,6.114776,0,-1
29,F,1,1,28,3,2,112,4,2420,0,0.1116608,10.39743,0.5974163,-1
29,F,1,1,28,4,4,111,3,2831,0,0.3032357,10.17898,1.664599,-1
29,F,1,1,28,5,2,109,1,1798,0,0.8032044,10.17568,4.391685,-1
29,F,1,1,28,6,1,112,4,2009,0,8.302833E-08,6.574915,0,-1
29,F,1,1,28,7,2,110,2,2265,0,0.2276034,10.38302,1.216757,-1
29,F,1,1,28,8,4,112,4,2120,0,0.02446146,10.39109,0.1297215,-1
29,F,1,1,28,9,4,109,1,2820,0,0.5655438,10.1686,3.074726,-1
29,F,1,1,28,10,2,111,3,2731,0,0.3100678,10.19886,1.701229,-1
29,F,1,1,28,11,4,110,2,2531,1,0.5534385,10.38101,2.967815,-1
29,F,1,1,28,12,3,112,4,2920,0,0.27108,6.54514,2.270555,-1
29,F,1,1,28,13,3,110,2,2153,0,0.2317389,6.527171,1.928844,-1
29,F,1,1,28,14,1,111,3,2965,0,0.09406527,6.135505,0.8376676,-1
29,F,1,1,28,15,1,110,2,1742,0,0.1452466,6.536578,1.227485,-1
29,F,1,1,28,16,3,109,1,3598,1,0.3521896,6.124879,3.089335,-1
29,F,1,1,29,1,1,115,3,3787,0,0.2416227,6.147663,2.141923,-1
29,F,1,1,29,2,2,114,2,1831,0,0.4886588,10.39112,2.605868,-1
29,F,1,1,29,3,1,113,1,3098,1,0.5229349,6.158326,4.616686,-1
29,F,1,1,29,4,1,114,2,1798,0,0.3967251,6.521883,3.309378,-1
29,F,1,1,29,5,1,116,4,1964,0,0.1433617,6.562073,1.199099,-1
29,F,1,1,29,6,3,115,3,3398,0,0.3085559,6.144428,2.735235,-1
29,F,1,1,29,7,3,114,2,2109,0,0.2677813,6.521291,2.226423,-1
29,F,1,1,29,8,4,113,1,2520,0,0.3512722,10.17737,1.91295,-1
29,F,1,1,29,9,3,116,4,3164,0,0.01351236,6.536322,0.1153499,-1
29,F,1,1,29,10,2,115,3,3165,0,0.5712316,10.21768,3.12725,-1
29,F,1,1,29,11,4,116,4,3098,0,0.1583283,10.37986,0.8538629,-1
29,F,1,1,29,12,4,115,3,2909,0,0.1438095,10.20838,0.7883269,-1
29,F,1,1,29,13,4,114,2,3220,0,0.1800272,10.36798,0.9632712,-1
29,F,1,1,29,14,2,113,1,2320,0,0.1863438,10.19162,1.017026,-1
29,F,1,1,29,15,2,116,4,3831,0,0.1576366,10.39277,0.842791,-1
29,F,1,1,29,16,3,113,1,2265,0,0.4026841,6.15606,3.575551,-1
29,F,1,1,30,1,4,119,3,2809,0,0.4293589,10.16846,2.355428,-1
29,F,1,1,30,2,3,118,2,1987,0,0.2170487,6.538903,1.804827,-1
29,F,1,1,30,3,1,119,3,2420,0,0.3799328,6.141402,3.369006,-1
29,F,1,1,30,4,2,120,4,3031,0,1.772198E-07,10.38393,0,-1
29,F,1,1,30,5,2,117,1,2242,0,0.4372285,10.18951,2.385811,-1
29,F,1,1,30,6,3,120,4,2487,0,0.2399939,6.51721,2.000076,-1
29,F,1,1,30,7,2,118,2,1965,0,0.6343729,10.38999,3.469216,-1
29,F,1,1,30,8,1,117,1,1820,0,0.4939856,6.152529,4.364575,-1
29,F,1,1,30,9,4,118,2,1576,0,0.5536644,10.35932,2.947363,-1
29,F,1,1,30,10,1,120,4,1665,0,0.2856118,6.561882,2.387779,-1
29,F,1,1,30,11,2,119,3,2420,0,0.7257215,10.21026,3.978723,-1
29,F,1,1,30,12,4,117,1,4376,2,0.08490602,10.17804,0.4668813,-1
29,F,1,1,30,13,4,120,4,2131,0,0.1151941,10.37806,0.616438,-1
29,F,1,1,30,14,1,118,2,1954,0,0.09470563,6.519755,0.7915472,-1
29,F,1,1,30,15,3,117,1,4476,1,0.2533231,6.14232,2.233795,-1
29,F,1,1,30,16,3,119,3,3453,0,1.4331E-07,6.152097,0,-1
29,F,1,1,1,1,5,1,1,2631,0,-1,-1,-1,0
29,F,1,1,1,2,6,3,3,3187,0,-1,-1,-1,0
29,F,1,1,1,3,7,2,2,4209,0,-1,-1,-1,1
29,F,1,1,1,4,5,4,4,2220,0,-1,-1,-1,0
29,F,1,1,1,5,6,1,1,2998,0,-1,-1,-1,0
29,F,1,1,1,6,7,4,4,2898,0,-1,-1,-1,0
29,F,1,1,1,7,5,3,3,4198,0,-1,-1,-1,1
29,F,1,1,1,8,8,1,1,1876,0,-1,-1,-1,0
29,F,1,1,1,9,6,4,4,1920,0,-1,-1,-1,0
29,F,1,1,1,10,7,3,3,3653,0,-1,-1,-1,0
29,F,1,1,1,11,5,2,2,7309,0,-1,-1,-1,0
29,F,1,1,1,12,7,1,1,2476,0,-1,-1,-1,0
29,F,1,1,1,13,8,2,2,2787,0,-1,-1,-1,0
29,F,1,1,1,14,8,3,3,2576,0,-1,-1,-1,0
29,F,1,1,1,15,6,2,2,3331,0,-1,-1,-1,0
29,F,1,1,1,16,8,4,4,7242,0,-1,-1,-1,0
29,F,1,1,2,1,8,4,4,2287,0,-1,-1,-1,0
29,F,1,1,2,2,7,1,1,2220,0,-1,-1,-1,1
29,F,1,1,2,3,8,3,3,8942,0,-1,-1,-1,1
29,F,1,1,2,4,8,2,2,1931,0,-1,-1,-1,0
29,F,1,1,2,5,6,1,1,7798,0,-1,-1,-1,0
29,F,1,1,2,6,5,2,2,3198,0,-1,-1,-1,0
29,F,1,1,2,7,6,4,4,1731,0,-1,-1,-1,0
29,F,1,1,2,8,7,2,2,3664,0,-1,-1,-1,1
29,F,1,1,2,9,6,3,3,8053,0,-1,-1,-1,1
29,F,1,1,2,10,5,1,1,1465,0,-1,-1,-1,0
29,F,1,1,2,11,7,3,3,2242,0,-1,-1,-1,0
29,F,1,1,2,12,6,2,2,4098,0,-1,-1,-1,1
29,F,1,1,2,13,7,4,4,3609,0,-1,-1,-1,0
29,F,1,1,2,14,5,3,3,5275,0,-1,-1,-1,0
29,F,1,1,2,15,5,4,4,4876,0,-1,-1,-1,0
29,F,1,1,2,16,8,1,1,5787,0,-1,-1,-1,1
