Age, Gender, Awareness Type, Session, Block, Trial, Set, Pattern, Quadrant, Response Time, Num Mistakes, Distance From Target, Camera Distance From Target, Angle Error (Degrees), FC Response
20,F,1,1,1,1,2,3,3,4653,0,0.5116025,10.1787,2.806027,-1
20,F,1,1,1,2,3,2,2,6153,1,0.3228277,6.483716,2.733159,-1
20,F,1,1,1,3,4,1,1,5198,0,0.4271509,10.07068,2.344684,-1
20,F,1,1,1,4,3,4,4,2620,0,0.44887,6.397062,3.892594,-1
20,F,1,1,1,5,2,1,1,9999,0,-1,-1,-1,-1
20,F,1,1,1,6,2,2,2,1587,0,0.4717064,10.21815,2.553743,-1
20,F,1,1,1,7,3,1,1,1809,0,0.3994171,6.073942,3.613734,-1
20,F,1,1,1,8,2,4,4,6376,2,0.5334737,10.3354,2.847713,-1
20,F,1,1,1,9,1,3,3,2331,0,1.239952E-07,6.05788,0,-1
20,F,1,1,1,10,4,4,4,2276,0,1.15125E-07,10.33588,0.01978234,-1
20,F,1,1,1,11,4,3,3,2442,0,0.2242524,10.13959,1.233846,-1
20,F,1,1,1,12,1,4,4,6453,0,0.1739922,6.351664,1.499852,-1
20,F,1,1,1,13,1,2,2,6398,1,0.1089032,6.478199,0.917919,-1
20,F,1,1,1,14,3,3,3,3265,0,7.838756E-08,6.107985,0,-1
20,F,1,1,1,15,4,2,2,2720,0,0.2203995,10.21896,1.20788,-1
20,F,1,1,1,16,1,1,1,6065,0,0.09537685,6.019028,0.8659236,-1
20,F,1,1,2,1,4,7,3,5431,1,0.3422752,10.20357,1.865191,-1
20,F,1,1,2,2,1,8,4,4087,1,0.3879486,6.342029,3.312985,-1
20,F,1,1,2,3,1,6,2,4876,0,0.2201136,6.474652,1.859622,-1
20,F,1,1,2,4,2,5,1,9999,0,-1,-1,-1,-1
20,F,1,1,2,5,4,6,2,2076,0,0.3802482,10.20283,2.051282,-1
20,F,1,1,2,6,4,5,1,3198,0,0.6134912,10.10543,3.379972,-1
20,F,1,1,2,7,1,7,3,2364,0,9.658662E-08,6.06702,0,-1
20,F,1,1,2,8,1,5,1,6376,0,0.417812,6.010474,3.905602,-1
20,F,1,1,2,9,4,8,4,2064,0,0.2691012,10.33414,1.442522,-1
20,F,1,1,2,10,3,7,3,2465,0,0.2755331,6.090226,2.455989,-1
20,F,1,1,2,11,3,6,2,2398,0,0.3532248,6.457654,2.958235,-1
20,F,1,1,2,12,2,7,3,3764,0,0.400135,10.15971,2.189727,-1
20,F,1,1,2,13,2,6,2,2109,0,0.1993432,10.20971,1.081551,-1
20,F,1,1,2,14,3,8,4,4598,0,0.06799248,6.352732,0.5855064,-1
20,F,1,1,2,15,3,5,1,2387,0,0.4514396,6.04763,4.113993,-1
20,F,1,1,2,16,2,8,4,1742,0,0.6647044,10.33369,3.591396,-1
20,F,1,1,3,1,4,11,3,6053,0,0.6525351,10.15221,3.573305,-1
20,F,1,1,3,2,2,9,1,9999,1,-1,-1,-1,-1
20,F,1,1,3,3,1,12,4,4353,2,0.3326602,6.346385,2.842967,-1
20,F,1,1,3,4,3,9,1,2965,0,0.5133883,6.055947,4.635613,-1
20,F,1,1,3,5,2,12,4,2131,0,0.2132879,10.34183,1.14944,-1
20,F,1,1,3,6,4,10,2,9999,0,-1,-1,-1,-1
20,F,1,1,3,7,3,12,4,3220,1,0.3116769,6.357991,2.686787,-1
20,F,1,1,3,8,1,11,3,5331,0,0.005214063,6.056913,0.04423466,-1
20,F,1,1,3,9,4,9,1,7487,2,2.217838E-07,10.11536,0,-1
20,F,1,1,3,10,1,10,2,2264,0,0.3745754,6.483585,3.171879,-1
20,F,1,1,3,11,1,9,1,3998,0,0.1505147,6.022661,1.379417,-1
20,F,1,1,3,12,2,11,3,4153,0,2.338722E-08,10.17205,0,-1
20,F,1,1,3,13,4,12,4,1909,0,0.5664676,10.34123,3.020706,-1
20,F,1,1,3,14,2,10,2,1831,0,0.5740595,10.20818,3.114516,-1
20,F,1,1,3,15,3,11,3,7642,0,0.09085437,6.064178,0.8230571,-1
20,F,1,1,3,16,3,10,2,8320,2,0.2770924,6.446404,2.331542,-1
20,F,1,1,4,1,1,16,4,5720,0,0.02686071,6.366996,0.2298502,-1
20,F,1,1,4,2,2,14,2,2309,0,0.4645557,10.21215,2.518939,-1
20,F,1,1,4,3,3,13,1,7220,1,0.06394631,6.075995,0.5801346,-1
20,F,1,1,4,4,2,15,3,4942,0,8.764749E-08,10.18713,0,-1
20,F,1,1,4,5,4,16,4,9999,1,-1,-1,-1,-1
20,F,1,1,4,6,1,15,3,2198,0,0.2499082,6.072873,2.230375,-1
20,F,1,1,4,7,2,13,1,9999,1,-1,-1,-1,-1
20,F,1,1,4,8,3,14,2,1842,0,0.5456031,6.481795,4.624104,-1
20,F,1,1,4,9,2,16,4,4165,0,0.7045015,10.35562,3.746379,-1
20,F,1,1,4,10,3,15,3,4998,0,0.1036855,6.077725,0.9234449,-1
20,F,1,1,4,11,4,13,1,9999,0,-1,-1,-1,-1
20,F,1,1,4,12,4,14,2,4843,1,7.445908E-08,10.25626,0,-1
20,F,1,1,4,13,1,13,1,5409,1,0.06244609,6.041209,0.5650989,-1
20,F,1,1,4,14,1,14,2,2486,0,0.01603711,6.481847,0.1341704,-1
20,F,1,1,4,15,3,16,4,2420,0,0.388671,6.368754,3.345739,-1
20,F,1,1,4,16,4,15,3,3787,0,0.6616147,10.13742,3.667517,-1
20,F,1,1,5,1,2,18,2,1375,0,0.8272688,10.24017,4.497276,-1
20,F,1,1,5,2,2,17,1,9999,1,-1,-1,-1,-1
20,F,1,1,5,3,4,18,2,7209,3,0.7096545,10.20825,3.863307,-1
20,F,1,1,5,4,1,19,3,3320,0,1.18902E-08,6.145789,0,-1
20,F,1,1,5,5,3,17,1,1843,0,0.195763,6.103736,1.755577,-1
20,F,1,1,5,6,1,18,2,7298,1,0.1718327,6.527531,1.449154,-1
20,F,1,1,5,7,2,20,4,2331,0,0.4795133,10.42982,2.573214,-1
20,F,1,1,5,8,3,18,2,3031,0,0.4958568,6.50063,4.095434,-1
20,F,1,1,5,9,3,20,4,5909,0,0.2037396,6.400091,1.754908,-1
20,F,1,1,5,10,4,17,1,1898,0,0.4681944,10.13264,2.573518,-1
20,F,1,1,5,11,2,19,3,2409,0,0.2961437,10.24182,1.618462,-1
20,F,1,1,5,12,1,20,4,3365,1,0.1206968,6.407019,1.026601,-1
20,F,1,1,5,13,4,19,3,4742,0,0.7210329,10.26862,3.928747,-1
20,F,1,1,5,14,4,20,4,1609,0,0.6185145,10.42465,3.288071,-1
20,F,1,1,5,15,3,19,3,2642,0,0.3395922,6.144755,2.996305,-1
20,F,1,1,5,16,1,17,1,3242,0,1.021808E-07,6.098352,0,-1
20,F,1,1,6,1,3,24,4,3487,0,0.02299619,6.40463,0.1968319,-1
20,F,1,1,6,2,1,23,3,2531,0,0.3492839,6.117322,3.141117,-1
20,F,1,1,6,3,4,24,4,4031,1,0.06712603,10.39938,0.3609945,-1
20,F,1,1,6,4,2,22,2,1820,0,3.826887E-07,10.26638,0,-1
20,F,1,1,6,5,2,24,4,1854,0,0.614941,10.40313,3.335248,-1
20,F,1,1,6,6,3,21,1,3387,0,0.1661105,6.128737,1.510384,-1
20,F,1,1,6,7,1,24,4,3265,1,0.09314676,6.405752,0.7967216,-1
20,F,1,1,6,8,1,21,1,3898,0,0.05720396,6.10198,0.5132,-1
20,F,1,1,6,9,2,23,3,1909,0,0.7587143,10.22864,4.189094,-1
20,F,1,1,6,10,1,22,2,2076,0,0.1058792,6.526247,0.8864697,-1
20,F,1,1,6,11,2,21,1,9999,1,-1,-1,-1,-1
20,F,1,1,6,12,3,22,2,1676,0,0.1943796,6.527649,1.634584,-1
20,F,1,1,6,13,4,23,3,7909,2,0.2639359,10.22446,1.444285,-1
20,F,1,1,6,14,4,21,1,2420,0,0.4997797,10.12626,2.77474,-1
20,F,1,1,6,15,3,23,3,4243,0,0.1038839,6.168236,0.9236568,-1
20,F,1,1,6,16,4,22,2,3254,0,0.1963138,10.26466,1.059987,-1
20,F,1,1,7,1,3,27,3,1920,0,0.2098507,6.12865,1.851923,-1
20,F,1,1,7,2,1,28,4,2998,1,0.5392855,6.40362,4.563771,-1
20,F,1,1,7,3,4,25,1,4509,2,0.02200212,10.1623,0.1219466,-1
20,F,1,1,7,4,2,27,3,1631,0,0.1286852,10.22371,0.6985759,-1
20,F,1,1,7,5,3,25,1,9999,6,-1,-1,-1,-1
20,F,1,1,7,6,3,26,2,1687,0,0.1389637,6.525864,1.17869,-1
20,F,1,1,7,7,4,27,3,1698,0,0.3455783,10.21647,1.874715,-1
20,F,1,1,7,8,1,25,1,2365,0,0.264436,6.105943,2.40786,-1
20,F,1,1,7,9,1,27,3,2453,0,0.4720674,6.119383,4.246993,-1
20,F,1,1,7,10,4,28,4,2065,0,0.5803146,10.40618,3.077526,-1
20,F,1,1,7,11,1,26,2,1931,0,0.1504978,6.543803,1.255697,-1
20,F,1,1,7,12,2,25,1,9999,1,-1,-1,-1,-1
20,F,1,1,7,13,3,28,4,6098,0,0.4119739,6.398673,3.550603,-1
20,F,1,1,7,14,4,26,2,2209,0,6.352051E-08,10.26488,0,-1
20,F,1,1,7,15,2,28,4,2575,1,0.1969795,10.40957,1.052205,-1
20,F,1,1,7,16,2,26,2,1787,0,0.4438868,10.28503,2.390564,-1
20,F,1,1,8,1,4,29,1,6776,4,0.2373769,10.10579,1.31239,-1
20,F,1,1,8,2,2,31,3,9999,6,-1,-1,-1,-1
20,F,1,1,8,3,1,29,1,7342,0,0.1866863,6.106169,1.692926,-1
20,F,1,1,8,4,4,31,3,4642,0,0.854621,10.20964,4.615201,-1
20,F,1,1,8,5,1,32,4,3509,1,0.2444365,6.3922,2.075186,-1
20,F,1,1,8,6,3,30,2,2765,0,0.245161,6.515406,2.031821,-1
20,F,1,1,8,7,2,32,4,3709,1,0.5624424,10.39982,3.051205,-1
20,F,1,1,8,8,3,31,3,9999,6,-1,-1,-1,-1
20,F,1,1,8,9,4,30,2,1776,0,0.810639,10.25398,4.38999,-1
20,F,1,1,8,10,1,31,3,4976,2,0.4639611,6.102264,4.087297,-1
20,F,1,1,8,11,2,30,2,1742,0,0.4400339,10.28426,2.408591,-1
20,F,1,1,8,12,3,29,1,3309,1,0.421402,6.127527,3.792044,-1
20,F,1,1,8,13,4,32,4,6698,3,0.5690722,10.43424,3.025951,-1
20,F,1,1,8,14,2,29,1,9999,1,-1,-1,-1,-1
20,F,1,1,8,15,3,32,4,3598,0,0.07892502,6.423502,0.6760855,-1
20,F,1,1,8,16,1,30,2,5654,1,0.210445,6.542944,1.766579,-1
20,F,1,1,9,1,2,33,1,9999,0,-1,-1,-1,-1
20,F,1,1,9,2,1,35,3,5342,1,8.764589E-08,6.101613,0,-1
20,F,1,1,9,3,1,36,4,3086,1,0.3044919,6.388165,2.61202,-1
20,F,1,1,9,4,2,34,2,1765,0,0.230604,10.27911,1.246312,-1
20,F,1,1,9,5,4,35,3,2342,0,0.2749435,10.24736,1.496848,-1
20,F,1,1,9,6,4,34,2,8331,0,0.6905414,10.30059,3.720207,-1
20,F,1,1,9,7,2,35,3,5354,2,0.6681623,10.2113,3.629035,-1
20,F,1,1,9,8,2,36,4,3098,1,0.4680122,10.40448,2.552516,-1
20,F,1,1,9,9,4,33,1,2309,0,0.5761881,10.13039,3.211991,-1
20,F,1,1,9,10,3,36,4,5487,0,0.2659616,6.388326,2.295161,-1
20,F,1,1,9,11,1,33,1,3620,0,0.165555,6.081441,1.504152,-1
20,F,1,1,9,12,1,34,2,4320,0,0.2139707,6.542326,1.795478,-1
20,F,1,1,9,13,3,33,1,4753,1,0.09651084,6.075818,0.8742447,-1
20,F,1,1,9,14,3,34,2,8920,1,0.1562609,6.507315,1.302061,-1
20,F,1,1,9,15,3,35,3,3153,0,0.291706,6.103913,2.576559,-1
20,F,1,1,9,16,4,36,4,1609,0,0.1858363,10.4003,0.9916978,-1
20,F,1,1,10,1,4,38,2,1665,0,0.08425242,10.31138,0.4554249,-1
20,F,1,1,10,2,3,37,1,2076,0,9.743558E-08,6.083271,0,-1
20,F,1,1,10,3,1,39,3,1731,0,0.0100359,6.095552,0.08846933,-1
20,F,1,1,10,4,1,37,1,2720,0,5.231471E-08,6.099436,0,-1
20,F,1,1,10,5,4,39,3,2442,0,0.5510282,10.25528,2.99356,-1
20,F,1,1,10,6,2,37,1,9999,0,-1,-1,-1,-1
20,F,1,1,10,7,2,40,4,2698,1,0.8550492,10.40245,4.646291,-1
20,F,1,1,10,8,2,39,3,2053,0,0.448784,10.22223,2.43156,-1
20,F,1,1,10,9,4,37,1,2276,0,0.1038628,10.16208,0.5699261,-1
20,F,1,1,10,10,2,38,2,3276,0,0.406621,10.27769,2.200782,-1
20,F,1,1,10,11,3,40,4,4209,1,0.4897028,6.387705,4.203142,-1
20,F,1,1,10,12,1,38,2,2242,0,0.5233747,6.519431,4.385348,-1
20,F,1,1,10,13,1,40,4,2576,1,0.2967412,6.370636,2.530103,-1
20,F,1,1,10,14,3,39,3,5787,0,0.06048942,6.100397,0.5377761,-1
20,F,1,1,10,15,3,38,2,3153,1,0.1723162,6.512928,1.462863,-1
20,F,1,1,10,16,4,40,4,5120,3,0.3808608,10.39791,2.0374,-1
20,F,1,1,11,1,2,41,1,9999,3,-1,-1,-1,-1
20,F,1,1,11,2,3,43,3,6831,1,8.654723E-08,6.188468,0,-1
20,F,1,1,11,3,1,42,2,2998,0,0.1938499,6.584311,1.616405,-1
20,F,1,1,11,4,1,44,4,1987,0,0.3267184,6.471472,2.767677,-1
20,F,1,1,11,5,4,43,3,3165,0,0.4820423,10.285,2.590952,-1
20,F,1,1,11,6,2,42,2,1942,0,0.5048563,10.31949,2.761587,-1
20,F,1,1,11,7,2,43,3,1898,0,0.7376084,10.29387,4.037694,-1
20,F,1,1,11,8,1,41,1,2809,0,0.4242125,6.141111,3.879695,-1
20,F,1,1,11,9,4,42,2,8542,0,0.4366267,10.35195,2.334981,-1
20,F,1,1,11,10,3,44,4,5653,1,0.2546102,6.476017,2.158036,-1
20,F,1,1,11,11,3,42,2,1898,0,0.364238,6.570529,3.005698,-1
20,F,1,1,11,12,1,43,3,2187,0,0.188171,6.175816,1.676431,-1
20,F,1,1,11,13,4,41,1,2031,0,0.6943238,10.23969,3.832672,-1
20,F,1,1,11,14,2,44,4,2787,1,0.7305824,10.48382,3.933331,-1
20,F,1,1,11,15,3,41,1,4153,2,0.1740155,6.117489,1.576815,-1
20,F,1,1,11,16,4,44,4,6909,0,9.274603E-08,10.52452,0,-1
20,F,1,1,12,1,4,45,1,3476,0,0.3331503,10.24944,1.832376,-1
20,F,1,1,12,2,3,47,3,2165,0,0.2947555,6.197517,2.587323,-1
20,F,1,1,12,3,4,48,4,1420,0,0.4354703,10.47912,2.299165,-1
20,F,1,1,12,4,3,45,1,2165,0,0.1057998,6.148919,0.9427382,-1
20,F,1,1,12,5,4,46,2,1920,0,1.436505E-07,10.36056,0,-1
20,F,1,1,12,6,2,48,4,2131,0,0.2819034,10.47315,1.498155,-1
20,F,1,1,12,7,1,45,1,2720,0,0.1226143,6.144849,1.102339,-1
20,F,1,1,12,8,3,46,2,3887,0,0.35772,6.568421,2.947164,-1
20,F,1,1,12,9,1,47,3,2087,0,0.2912141,6.175802,2.562542,-1
20,F,1,1,12,10,3,48,4,4476,1,0.4927611,6.4564,4.185305,-1
20,F,1,1,12,11,2,46,2,1687,0,0.289463,10.338,1.571594,-1
20,F,1,1,12,12,4,47,3,3609,1,0.157968,10.29333,0.8616194,-1
20,F,1,1,12,13,2,45,1,9198,1,0.7049841,10.16296,3.921514,-1
20,F,1,1,12,14,2,47,3,9999,7,-1,-1,-1,-1
20,F,1,1,12,15,1,46,2,2231,0,0.2644978,6.540487,2.220084,-1
20,F,1,1,12,16,1,48,4,2520,0,0.2994901,6.432353,2.55244,-1
20,F,1,1,13,1,3,51,3,2165,0,0.1768959,6.193431,1.545477,-1
20,F,1,1,13,2,1,50,2,2409,0,0.4268017,6.576324,3.564857,-1
20,F,1,1,13,3,3,52,4,2976,0,0.5165744,6.462436,4.385036,-1
20,F,1,1,13,4,4,51,3,1831,0,0.1930775,10.2705,1.043802,-1
20,F,1,1,13,5,2,50,2,1576,0,0.3652929,10.32067,1.955647,-1
20,F,1,1,13,6,2,49,1,9999,0,-1,-1,-1,-1
20,F,1,1,13,7,1,52,4,2409,1,0.2069937,6.450065,1.758473,-1
20,F,1,1,13,8,2,51,3,1765,0,0.7067342,10.28677,3.854528,-1
20,F,1,1,13,9,4,52,4,2387,1,0.35761,10.50565,1.921423,-1
20,F,1,1,13,10,3,50,2,2431,0,0.09226973,6.578016,0.7737964,-1
20,F,1,1,13,11,4,49,1,3742,0,0.1106055,10.23189,0.6065179,-1
20,F,1,1,13,12,4,50,2,1731,0,0.1462178,10.35042,0.7932757,-1
20,F,1,1,13,13,1,51,3,3231,0,0.08238985,6.165733,0.7316842,-1
20,F,1,1,13,14,1,49,1,3354,0,4.925062E-08,6.135475,0.01978234,-1
20,F,1,1,13,15,2,52,4,1253,0,0.1840735,10.46527,0.9849661,-1
20,F,1,1,13,16,3,49,1,1609,0,0.1833956,6.184952,1.633507,-1
20,F,1,1,14,1,4,54,2,1298,0,0.3086245,10.29157,1.664951,-1
20,F,1,1,14,2,4,56,4,9999,10,-1,-1,-1,-1
20,F,1,1,14,3,4,53,1,1976,0,0.2480825,10.14286,1.375724,-1
20,F,1,1,14,4,4,55,3,1587,0,0.545849,10.23069,2.940181,-1
20,F,1,1,14,5,2,53,1,9999,2,-1,-1,-1,-1
20,F,1,1,14,6,3,55,3,3731,0,0.1575184,6.136467,1.409588,-1
20,F,1,1,14,7,1,53,1,2487,0,0.1636843,6.092814,1.484376,-1
20,F,1,1,14,8,3,56,4,5353,1,0.3368017,6.431512,2.847232,-1
20,F,1,1,14,9,1,54,2,1809,0,0.1932375,6.549284,1.619067,-1
20,F,1,1,14,10,3,53,1,2787,0,0.2836869,6.134619,2.58581,-1
20,F,1,1,14,11,1,56,4,3409,1,0.3710708,6.439358,3.140805,-1
20,F,1,1,14,12,2,54,2,1431,0,0.02097576,10.28644,0.1119058,-1
20,F,1,1,14,13,2,55,3,1831,0,0.6503487,10.2534,3.56826,-1
20,F,1,1,14,14,3,54,2,1431,0,0.5479326,6.530725,4.596488,-1
20,F,1,1,14,15,2,56,4,9865,1,0.7650364,10.39451,4.135028,-1
20,F,1,1,14,16,1,55,3,3020,0,0.1036709,6.159593,0.9117159,-1
20,F,1,1,15,1,4,58,2,1542,0,0.4514942,10.32836,2.463548,-1
20,F,1,1,15,2,3,60,4,7064,5,0.3726521,6.404629,3.175025,-1
20,F,1,1,15,3,1,57,1,2898,0,0.03591283,6.085779,0.3232465,-1
20,F,1,1,15,4,3,59,3,1642,0,1.249702E-07,6.130406,0,-1
20,F,1,1,15,5,2,60,4,1198,0,0.3331119,10.42564,1.76835,-1
20,F,1,1,15,6,2,57,1,9999,1,-1,-1,-1,-1
20,F,1,1,15,7,2,59,3,1842,0,0.3267765,10.25982,1.765471,-1
20,F,1,1,15,8,4,57,1,2154,0,0.3381084,10.16008,1.878261,-1
20,F,1,1,15,9,1,58,2,1865,0,0.2022973,6.544903,1.696736,-1
20,F,1,1,15,10,4,59,3,3153,0,0.5016196,10.23602,2.702405,-1
20,F,1,1,15,11,1,60,4,3053,1,2.040397E-08,6.436037,0,-1
20,F,1,1,15,12,3,58,2,1387,0,0.130858,6.527558,1.091995,-1
20,F,1,1,15,13,1,59,3,3320,3,0.1012523,6.129385,0.9099972,-1
20,F,1,1,15,14,2,58,2,2553,0,0.4959252,10.2747,2.721532,-1
20,F,1,1,15,15,3,57,1,2898,0,0.06645595,6.107068,0.6010084,-1
20,F,1,1,15,16,4,60,4,1442,0,0.08252756,10.46975,0.4419051,-1
20,F,1,1,16,1,4,63,3,9999,7,-1,-1,-1,-1
20,F,1,1,16,2,2,61,1,9999,0,-1,-1,-1,-1
20,F,1,1,16,3,2,64,4,1309,0,0.8065181,10.45483,4.250772,-1
20,F,1,1,16,4,4,62,2,2664,0,0.4122094,10.30306,2.257934,-1
20,F,1,1,16,5,2,63,3,7575,5,3.26923E-07,10.37519,0,-1
20,F,1,1,16,6,1,61,1,3098,0,0.342871,6.191806,3.050692,-1
20,F,1,1,16,7,1,62,2,2053,0,1.334071E-07,6.605184,0,-1
20,F,1,1,16,8,3,63,3,4731,0,0.06185463,6.239483,0.5457222,-1
20,F,1,1,16,9,1,64,4,9999,5,-1,-1,-1,-1
20,F,1,1,16,10,1,63,3,3142,0,5.742497E-08,6.181988,0,-1
20,F,1,1,16,11,3,62,2,3953,0,0.2846051,6.5609,2.346353,-1
20,F,1,1,16,12,3,64,4,4387,1,2.564757E-07,6.466626,0,-1
20,F,1,1,16,13,4,61,1,2520,0,0.4024187,10.1911,2.190173,-1
20,F,1,1,16,14,2,62,2,1397,0,0.6029259,10.32513,3.248416,-1
20,F,1,1,16,15,3,61,1,2509,0,0.0525408,6.172435,0.4693892,-1
20,F,1,1,16,16,4,64,4,5431,0,0.1662933,10.49357,0.8798226,-1
20,F,1,1,17,1,1,67,3,1887,0,0.1965062,6.197697,1.709606,-1
20,F,1,1,17,2,4,66,2,1298,0,0.255973,10.31624,1.373873,-1
20,F,1,1,17,3,3,65,1,3209,0,2.277617E-08,6.210083,0,-1
20,F,1,1,17,4,3,68,4,3420,1,0.01367033,6.477743,0.1153499,-1
20,F,1,1,17,5,1,66,2,2509,0,0.10349,6.586985,0.8620735,-1
20,F,1,1,17,6,4,68,4,4131,0,0.8941541,10.48615,4.700071,-1
20,F,1,1,17,7,2,66,2,1509,0,0.03725928,10.32045,0.2007689,-1
20,F,1,1,17,8,1,65,1,2809,0,0.06768525,6.144672,0.6055493,-1
20,F,1,1,17,9,3,66,2,1676,0,0.447625,6.573752,3.662762,-1
20,F,1,1,17,10,3,67,3,2420,0,0.07190008,6.202891,0.6385778,-1
20,F,1,1,17,11,2,68,4,1353,0,0.3562651,10.49588,1.879927,-1
20,F,1,1,17,12,2,67,3,3198,0,0.3606759,10.3055,1.961443,-1
20,F,1,1,17,13,1,68,4,9108,7,0.442259,6.47183,3.744864,-1
20,F,1,1,17,14,4,65,1,1909,0,0.4353449,10.18908,2.399391,-1
20,F,1,1,17,15,4,67,3,2742,0,0.3997991,10.28126,2.185343,-1
20,F,1,1,17,16,2,65,1,9731,1,0.4175833,10.1482,2.288414,-1
20,F,1,1,18,1,4,72,4,1398,0,1.184224E-07,10.46735,0,-1
20,F,1,1,18,2,3,69,1,3298,0,0.03992873,6.159845,0.3577275,-1
20,F,1,1,18,3,2,70,2,1309,0,1.348522E-07,10.33635,0,-1
20,F,1,1,18,4,2,71,3,9364,6,0.8142951,10.34871,4.449594,-1
20,F,1,1,18,5,1,69,1,2898,0,1.076931E-07,6.180172,0,-1
20,F,1,1,18,6,4,71,3,2954,0,0.1104125,10.31602,0.5934729,-1
20,F,1,1,18,7,4,70,2,2031,0,0.7744753,10.33108,4.154495,-1
20,F,1,1,18,8,3,72,4,4220,0,0.3313482,6.511627,2.790638,-1
20,F,1,1,18,9,2,69,1,6454,0,0.6283575,10.12967,3.418504,-1
20,F,1,1,18,10,1,72,4,3120,1,0.2946137,6.43545,2.48207,-1
20,F,1,1,18,11,4,69,1,1898,0,0.09970883,10.17387,0.5471546,-1
20,F,1,1,18,12,3,70,2,3386,1,0.3161047,6.575775,2.697838,-1
20,F,1,1,18,13,2,72,4,1398,0,0.468179,10.47015,2.502176,-1
20,F,1,1,18,14,3,71,3,3453,0,0.2593381,6.240764,2.301037,-1
20,F,1,1,18,15,1,70,2,2142,0,3.17496E-07,6.596727,0,-1
20,F,1,1,18,16,1,71,3,1709,0,0.1903905,6.207325,1.654576,-1
20,F,1,1,19,1,2,74,2,1587,0,0.1905218,10.33658,1.024502,-1
20,F,1,1,19,2,3,73,1,1886,0,0.03332744,6.15884,0.2960753,-1
20,F,1,1,19,3,1,76,4,4387,2,0.2989264,6.496922,2.498262,-1
20,F,1,1,19,4,2,73,1,8031,0,1.886878E-07,10.12905,0,-1
20,F,1,1,19,5,1,75,3,5587,0,0.1797211,6.183533,1.569351,-1
20,F,1,1,19,6,4,73,1,8975,3,0.6364299,10.11054,3.551926,-1
20,F,1,1,19,7,3,75,3,2731,0,0.1781725,6.183122,1.564981,-1
20,F,1,1,19,8,4,76,4,7553,1,2.384015E-07,10.50166,0,-1
20,F,1,1,19,9,3,74,2,1653,0,0.2983316,6.577218,2.460288,-1
20,F,1,1,19,10,1,73,1,3486,0,0.1907341,6.129488,1.725217,-1
20,F,1,1,19,11,4,74,2,2164,0,6.96689E-08,10.30515,0,-1
20,F,1,1,19,12,3,76,4,2397,0,0.5464632,6.487183,4.650084,-1
20,F,1,1,19,13,2,75,3,3131,0,0.5786668,10.29845,3.112693,-1
20,F,1,1,19,14,1,74,2,1631,0,0.2960436,6.581514,2.484198,-1
20,F,1,1,19,15,2,76,4,1387,0,0.4397222,10.49633,2.363391,-1
20,F,1,1,19,16,4,75,3,3687,0,0.3883544,10.2859,2.095738,-1
20,F,1,1,20,1,4,77,1,1598,0,0.2419341,10.24315,1.335448,-1
20,F,1,1,20,2,2,80,4,1342,0,0.00016383,10.48112,0,-1
20,F,1,1,20,3,4,78,2,1287,0,0.3210504,10.3004,1.72306,-1
20,F,1,1,20,4,4,79,3,4142,2,1.647511E-07,10.27422,0,-1
20,F,1,1,20,5,2,77,1,7454,0,0.4292316,10.1189,2.35468,-1
20,F,1,1,20,6,1,79,3,3520,0,1.743064E-07,6.12333,0,-1
20,F,1,1,20,7,2,78,2,2098,1,0.8430232,10.31114,4.531856,-1
20,F,1,1,20,8,2,79,3,1887,0,0.1432754,10.25234,0.7798419,-1
20,F,1,1,20,9,3,77,1,1876,0,0.1706785,6.120317,1.545477,-1
20,F,1,1,20,10,1,80,4,2354,0,1.008901E-07,6.449465,0,-1
20,F,1,1,20,11,3,78,2,2920,0,0.00274024,6.592457,0,-1
20,F,1,1,20,12,3,80,4,3598,1,0.3031828,6.447927,2.592161,-1
20,F,1,1,20,13,1,78,2,4209,1,0.03248825,6.599781,0.2697954,-1
20,F,1,1,20,14,3,79,3,2676,0,0.3701147,6.226727,3.25558,-1
20,F,1,1,20,15,4,80,4,1831,1,0.1256198,10.52705,0.6705639,-1
20,F,1,1,20,16,1,77,1,2931,0,0.2863494,6.144213,2.606919,-1
20,F,1,1,21,1,3,82,2,3053,1,7.675262E-08,6.569899,0,-1
20,F,1,1,21,2,1,84,4,2098,0,0.3388709,6.457686,2.846476,-1
20,F,1,1,21,3,4,82,2,1353,0,0.09130725,10.32595,0.4937682,-1
20,F,1,1,21,4,1,83,3,1909,0,8.285822E-09,6.207184,0,-1
20,F,1,1,21,5,3,84,4,2276,0,5.148917E-07,6.467383,0,-1
20,F,1,1,21,6,4,83,3,1520,0,0.1924641,10.28394,1.044177,-1
20,F,1,1,21,7,1,81,1,2209,0,0.07836729,6.163445,0.6968932,-1
20,F,1,1,21,8,3,83,3,2442,0,0.3171348,6.221068,2.769939,-1
20,F,1,1,21,9,4,81,1,1586,0,0.45374,10.26729,2.478203,-1
20,F,1,1,21,10,2,84,4,1165,0,0.3058266,10.47165,1.638411,-1
20,F,1,1,21,11,2,83,3,2165,0,0.6684885,10.31115,3.592159,-1
20,F,1,1,21,12,1,82,2,4065,0,8.29163E-08,6.592963,0,-1
20,F,1,1,21,13,3,81,1,3231,0,0.321818,6.149368,2.90468,-1
20,F,1,1,21,14,4,84,4,1276,0,0.8872492,10.47806,4.818979,-1
20,F,1,1,21,15,2,81,1,5853,0,0.1140352,10.1799,0.6240098,-1
20,F,1,1,21,16,2,82,2,1498,0,0.2602449,10.32114,1.414439,-1
20,F,1,1,22,1,4,88,4,1042,0,0.5920661,10.46812,3.183769,-1
20,F,1,1,22,2,1,87,3,1631,0,6.360411E-08,6.191072,0,-1
20,F,1,1,22,3,1,88,4,1742,0,0.3363113,6.461003,2.853276,-1
20,F,1,1,22,4,4,85,1,1920,0,0.6767783,10.24371,3.733867,-1
20,F,1,1,22,5,4,87,3,2098,0,0.331912,10.26879,1.806128,-1
20,F,1,1,22,6,2,85,1,8598,2,0.2083007,10.15255,1.147054,-1
20,F,1,1,22,7,2,88,4,1076,0,0.1612558,10.484,0.8607104,-1
20,F,1,1,22,8,2,86,2,2231,1,0.6237762,10.33329,3.353396,-1
20,F,1,1,22,9,3,88,4,3754,0,3.000451E-07,6.458842,0,-1
20,F,1,1,22,10,1,86,2,4154,0,7.147514E-08,6.585008,0,-1
20,F,1,1,22,11,2,87,3,1576,0,0.2668401,10.30087,1.449829,-1
20,F,1,1,22,12,4,86,2,1465,0,0.7354909,10.31265,3.99503,-1
20,F,1,1,22,13,1,85,1,2976,0,1.839701E-07,6.15022,0,-1
20,F,1,1,22,14,3,86,2,2620,0,0.3750675,6.604738,3.049665,-1
20,F,1,1,22,15,3,87,3,3354,0,0.1708253,6.18746,1.493576,-1
20,F,1,1,22,16,3,85,1,3631,1,0.2622857,6.163523,2.366619,-1
20,F,1,1,23,1,4,90,2,1309,0,2.403204E-08,10.37261,0,-1
20,F,1,1,23,2,2,91,3,1143,0,1.450179E-07,10.29822,0,-1
20,F,1,1,23,3,3,89,1,1831,1,1.05665E-07,6.208737,0,-1
20,F,1,1,23,4,2,90,2,1354,0,0.3681983,10.33456,1.993705,-1
20,F,1,1,23,5,4,92,4,1298,0,0.3560278,10.51456,1.903412,-1
20,F,1,1,23,6,4,91,3,6031,4,0.4944694,10.29318,2.650553,-1
20,F,1,1,23,7,1,90,2,1265,0,0.09169424,6.60457,0.7597608,-1
20,F,1,1,23,8,2,92,4,8031,5,0.5898503,10.501,3.191998,-1
20,F,1,1,23,9,4,89,1,1398,0,0.3281941,10.20998,1.789254,-1
20,F,1,1,23,10,3,91,3,3064,0,0.008776993,6.177765,0.07661668,-1
20,F,1,1,23,11,3,90,2,1743,0,1.436756E-07,6.61164,0,-1
20,F,1,1,23,12,1,91,3,2965,0,0.08695807,6.208182,0.7656615,-1
20,F,1,1,23,13,3,92,4,2542,1,0.175918,6.46243,1.475782,-1
20,F,1,1,23,14,2,89,1,5842,0,0.6893216,10.21309,3.717785,-1
20,F,1,1,23,15,1,92,4,2465,0,0.5533059,6.467305,4.665645,-1
20,F,1,1,23,16,1,89,1,2876,0,0.2450117,6.178954,2.197667,-1
20,F,1,1,24,1,2,96,4,1276,0,0.2895378,10.49514,1.528799,-1
20,F,1,1,24,2,3,93,1,1609,0,2.682648E-08,6.206325,0,-1
20,F,1,1,24,3,2,95,3,1709,0,0.2553281,10.32287,1.369594,-1
20,F,1,1,24,4,4,94,2,1331,0,0.2904235,10.39022,1.5788,-1
20,F,1,1,24,5,4,95,3,4420,0,0.3044173,10.34898,1.63865,-1
20,F,1,1,24,6,3,94,2,2009,0,0.338151,6.608752,2.776292,-1
20,F,1,1,24,7,2,93,1,7920,2,0.1736005,10.16359,0.9540861,-1
20,F,1,1,24,8,3,96,4,3354,0,0.2743621,6.443161,2.333471,-1
20,F,1,1,24,9,3,95,3,2554,0,0.4853292,6.183791,4.23184,-1
20,F,1,1,24,10,4,93,1,1976,1,0.7862572,10.18606,4.366056,-1
20,F,1,1,24,11,1,96,4,3131,1,0.3293391,6.438278,2.772905,-1
20,F,1,1,24,12,1,94,2,1776,0,0.1669603,6.604758,1.400535,-1
20,F,1,1,24,13,4,96,4,887,0,0.8061689,10.51274,4.243994,-1
20,F,1,1,24,14,1,93,1,3720,0,0.277416,6.156065,2.501629,-1
20,F,1,1,24,15,2,94,2,1942,1,0.5541729,10.33496,2.97065,-1
20,F,1,1,24,16,1,95,3,1520,0,0.3340365,6.172122,2.914233,-1
20,F,1,1,25,1,1,98,2,1376,0,8.079552E-08,6.605211,0,-1
20,F,1,1,25,2,2,97,1,7309,0,0.2045935,10.16453,1.116976,-1
20,F,1,1,25,3,1,99,3,2442,0,0.4503982,6.175159,3.952452,-1
20,F,1,1,25,4,2,100,4,1054,0,0.2005322,10.47483,1.064776,-1
20,F,1,1,25,5,2,99,3,2442,0,0.2820439,10.2791,1.520327,-1
20,F,1,1,25,6,4,98,2,1598,0,6.698944E-08,10.37082,0,-1
20,F,1,1,25,7,4,97,1,1242,0,0.3353149,10.20115,1.856356,-1
20,F,1,1,25,8,3,98,2,1620,0,9.666373E-08,6.5799,0,-1
20,F,1,1,25,9,3,100,4,7409,6,0.1424595,6.425576,1.219328,-1
20,F,1,1,25,10,1,97,1,2331,0,0.1871873,6.149977,1.662599,-1
20,F,1,1,25,11,2,98,2,1431,0,0.3779329,10.3141,2.038553,-1
20,F,1,1,25,12,3,97,1,1398,0,0.3020954,6.148562,2.731082,-1
20,F,1,1,25,13,4,100,4,1265,0,0.1412665,10.47431,0.7556288,-1
20,F,1,1,25,14,3,99,3,5142,0,0.05103855,6.222585,0.4515415,-1
20,F,1,1,25,15,1,100,4,2276,0,0.520641,6.471509,4.400195,-1
20,F,1,1,25,16,4,99,3,1998,0,0.5157357,10.27894,2.765059,-1
20,F,1,1,26,1,1,104,4,2276,1,0.35759,6.468754,3.051077,-1
20,F,1,1,26,2,3,101,1,2287,0,0.2997366,6.1394,2.713176,-1
20,F,1,1,26,3,3,102,2,2931,0,9.491374E-08,6.565004,0,-1
20,F,1,1,26,4,1,101,1,3131,1,0.06999183,6.118632,0.6271377,-1
20,F,1,1,26,5,2,104,4,1076,0,0.243913,10.47607,1.308806,-1
20,F,1,1,26,6,2,101,1,8976,1,0.803475,10.14013,4.398414,-1
20,F,1,1,26,7,2,103,3,1431,0,0.2791824,10.35544,1.515041,-1
20,F,1,1,26,8,4,101,1,1253,0,0.1910829,10.22017,1.045301,-1
20,F,1,1,26,9,3,104,4,1287,0,0.3281242,6.50875,2.79155,-1
20,F,1,1,26,10,3,103,3,2654,0,0.3482492,6.2133,3.020771,-1
20,F,1,1,26,11,1,102,2,2854,0,7.802149E-08,6.594403,0,-1
20,F,1,1,26,12,4,103,3,9999,6,-1,-1,-1,-1
20,F,1,1,26,13,4,104,4,4576,0,0.6070035,10.5204,3.188009,-1
20,F,1,1,26,14,4,102,2,1720,0,0.1076427,10.35346,0.5831623,-1
20,F,1,1,26,15,1,103,3,3142,0,0.1397869,6.226987,1.215953,-1
20,F,1,1,26,16,2,102,2,1276,0,0.3051927,10.3552,1.660125,-1
20,F,1,1,27,1,4,108,4,1553,0,0.2671236,10.52327,1.408338,-1
20,F,1,1,27,2,2,106,2,1076,0,0.3801284,10.35011,2.072827,-1
20,F,1,1,27,3,4,105,1,1842,0,0.2530164,10.21126,1.374443,-1
20,F,1,1,27,4,1,108,4,2554,1,0.2612901,6.507,2.178166,-1
20,F,1,1,27,5,1,106,2,1742,0,0.04101281,6.613058,0.3403488,-1
20,F,1,1,27,6,1,105,1,3065,0,0.2738385,6.180358,2.418323,-1
20,F,1,1,27,7,3,107,3,2587,0,0.3965674,6.247388,3.44401,-1
20,F,1,1,27,8,3,105,1,4087,1,0.2086966,6.203933,1.868546,-1
20,F,1,1,27,9,1,107,3,2920,0,0.02973314,6.223355,0.2594432,-1
20,F,1,1,27,10,4,106,2,1320,0,0.2334562,10.33615,1.271186,-1
20,F,1,1,27,11,2,108,4,1009,0,0.3898648,10.51606,2.09097,-1
20,F,1,1,27,12,4,107,3,2509,1,0.2406725,10.33062,1.303263,-1
20,F,1,1,27,13,2,105,1,9231,0,0.8122643,10.1743,4.408645,-1
20,F,1,1,27,14,3,106,2,1642,0,0.1775447,6.595898,1.458174,-1
20,F,1,1,27,15,3,108,4,1876,0,0.1773397,6.499925,1.497371,-1
20,F,1,1,27,16,2,107,3,1531,0,0.48851,10.32238,2.624654,-1
20,F,1,1,28,1,4,109,1,1265,0,0.08458433,10.28216,0.4626713,-1
20,F,1,1,28,2,1,111,3,2120,0,0.1726593,6.213821,1.500504,-1
20,F,1,1,28,3,4,110,2,5931,0,0.184209,10.36119,1.000147,-1
20,F,1,1,28,4,1,112,4,2731,1,0.1858527,6.46751,1.565606,-1
20,F,1,1,28,5,3,109,1,3131,1,0.1770405,6.217938,1.583874,-1
20,F,1,1,28,6,4,111,3,6953,1,0.2322677,10.14723,1.275335,-1
20,F,1,1,28,7,4,112,4,1387,0,0.7950217,10.53783,4.174623,-1
20,F,1,1,28,8,3,110,2,2054,2,0.2353988,6.594048,1.928134,-1
20,F,1,1,28,9,3,112,4,1942,0,0.08173024,6.456625,0.6940797,-1
20,F,1,1,28,10,2,109,1,6609,0,0.6144865,10.17918,3.419363,-1
20,F,1,1,28,11,2,110,2,1242,0,0.2463498,10.36292,1.341297,-1
20,F,1,1,28,12,3,111,3,1887,0,0.1767349,6.219336,1.532762,-1
20,F,1,1,28,13,1,110,2,1331,0,0.1091331,6.631238,0.8980926,-1
20,F,1,1,28,14,1,109,1,3754,0,0.3840554,6.200109,3.377654,-1
20,F,1,1,28,15,2,111,3,7387,4,0.4614514,10.22237,2.49881,-1
20,F,1,1,28,16,2,112,4,1087,0,2.072818E-07,10.5119,0,-1
20,F,1,1,29,1,1,114,2,2576,0,0.06655095,6.575974,0.55778,-1
20,F,1,1,29,2,3,113,1,1742,0,0.2059061,6.148998,1.828955,-1
20,F,1,1,29,3,2,115,3,1265,0,0.4032218,10.33,2.164917,-1
20,F,1,1,29,4,2,114,2,932,0,0.4990214,10.32323,2.713393,-1
20,F,1,1,29,5,1,116,4,3498,0,0.05248457,6.507878,0.4392403,-1
20,F,1,1,29,6,3,115,3,2643,0,0.4004272,6.264021,3.454568,-1
20,F,1,1,29,7,1,113,1,2531,0,0.08193761,6.161438,0.7316842,-1
20,F,1,1,29,8,1,115,3,2687,0,0.5258173,6.222744,4.558102,-1
20,F,1,1,29,9,3,114,2,5987,0,0.522762,6.555223,4.37269,-1
20,F,1,1,29,10,4,116,4,909,0,0.5993416,10.45734,3.156783,-1
20,F,1,1,29,11,4,114,2,1464,0,0.773901,10.31279,4.21338,-1
20,F,1,1,29,12,2,116,4,2465,1,0.2973114,10.46054,1.598632,-1
20,F,1,1,29,13,2,113,1,6720,2,0.337019,10.11436,1.881384,-1
20,F,1,1,29,14,3,116,4,4698,0,0.1775447,6.501744,1.511679,-1
20,F,1,1,29,15,4,115,3,1242,0,0.1826684,10.33173,0.9833755,-1
20,F,1,1,29,16,4,113,1,2031,0,0.5950654,10.22443,3.300077,-1
20,F,1,1,30,1,4,118,2,1031,0,0.1096366,10.28955,0.591822,-1
20,F,1,1,30,2,4,120,4,2909,0,0.1766439,10.51517,0.9377435,-1
20,F,1,1,30,3,2,117,1,4476,0,0.3045128,10.1575,1.66095,-1
20,F,1,1,30,4,3,119,3,2865,1,0.505767,6.204441,4.381461,-1
20,F,1,1,30,5,2,118,2,1387,0,0.08553898,10.35333,0.4601268,-1
20,F,1,1,30,6,3,117,1,5209,1,0.1671885,6.176066,1.498155,-1
20,F,1,1,30,7,1,120,4,2920,1,0.2455587,6.481935,2.093402,-1
20,F,1,1,30,8,1,117,1,9999,2,-1,-1,-1,-1
20,F,1,1,30,9,2,119,3,1876,0,0.567453,10.3145,3.051526,-1
20,F,1,1,30,10,4,117,1,1576,0,0.574096,10.25466,3.162793,-1
20,F,1,1,30,11,3,118,2,2298,0,0.1690779,6.607082,1.386775,-1
20,F,1,1,30,12,2,120,4,1287,0,0.3509409,10.52119,1.876489,-1
20,F,1,1,30,13,4,119,3,4365,1,0.7986843,10.36604,4.289665,-1
20,F,1,1,30,14,3,120,4,3631,0,0.06460963,6.478439,0.5432066,-1
20,F,1,1,30,15,1,119,3,2320,0,0.161799,6.204695,1.446045,-1
20,F,1,1,30,16,1,118,2,5209,0,0.1111021,6.635804,0.9219604,-1
20,F,1,1,1,1,8,1,1,5387,0,-1,-1,-1,0
20,F,1,1,1,2,7,3,3,2287,0,-1,-1,-1,0
20,F,1,1,1,3,6,4,4,2298,0,-1,-1,-1,1
20,F,1,1,1,4,8,3,3,2009,0,-1,-1,-1,0
20,F,1,1,1,5,5,2,2,2809,0,-1,-1,-1,0
20,F,1,1,1,6,7,4,4,4931,0,-1,-1,-1,0
20,F,1,1,1,7,7,1,1,3065,0,-1,-1,-1,0
20,F,1,1,1,8,8,2,2,3698,0,-1,-1,-1,0
20,F,1,1,1,9,5,3,3,1542,0,-1,-1,-1,0
20,F,1,1,1,10,6,2,2,3064,0,-1,-1,-1,1
20,F,1,1,1,11,6,3,3,2487,0,-1,-1,-1,0
20,F,1,1,1,12,6,1,1,1564,0,-1,-1,-1,0
20,F,1,1,1,13,8,4,4,1631,0,-1,-1,-1,0
20,F,1,1,1,14,7,2,2,5320,0,-1,-1,-1,0
20,F,1,1,1,15,5,1,1,3365,0,-1,-1,-1,0
20,F,1,1,1,16,5,4,4,1554,0,-1,-1,-1,0
20,F,1,1,2,1,8,3,3,2231,0,-1,-1,-1,0
20,F,1,1,2,2,7,2,2,2876,0,-1,-1,-1,0
20,F,1,1,2,3,5,4,4,7387,0,-1,-1,-1,0
20,F,1,1,2,4,8,2,2,1765,0,-1,-1,-1,0
20,F,1,1,2,5,5,3,3,2243,0,-1,-1,-1,0
20,F,1,1,2,6,5,1,1,1854,0,-1,-1,-1,0
20,F,1,1,2,7,8,4,4,1320,0,-1,-1,-1,0
20,F,1,1,2,8,6,3,3,3564,0,-1,-1,-1,0
20,F,1,1,2,9,6,2,2,4765,0,-1,-1,-1,0
20,F,1,1,2,10,6,1,1,1876,0,-1,-1,-1,0
20,F,1,1,2,11,5,2,2,1242,0,-1,-1,-1,0
20,F,1,1,2,12,7,1,1,2009,0,-1,-1,-1,0
20,F,1,1,2,13,6,4,4,3065,0,-1,-1,-1,1
20,F,1,1,2,14,7,3,3,1442,0,-1,-1,-1,0
20,F,1,1,2,15,8,1,1,1587,0,-1,-1,-1,0
20,F,1,1,2,16,7,4,4,4253,0,-1,-1,-1,0
