Age, Gender, Awareness Type, Session, Block, Trial, Set, Pattern, Quadrant, Response Time, Num Mistakes, Distance From Target, Camera Distance From Target, Angle Error (Degrees), FC Response
19,F,1,1,1,1,1,4,4,9999,3,-1,-1,-1,-1
19,F,1,1,1,2,2,1,1,6475,0,0.6720216,10.08946,3.770813,-1
19,F,1,1,1,3,2,3,3,5353,3,0.459495,10.17454,2.498654,-1
19,F,1,1,1,4,3,4,4,6309,5,0.4799196,6.494102,4.025064,-1
19,F,1,1,1,5,3,1,1,5076,5,1.319274E-07,6.17946,0,-1
19,F,1,1,1,6,1,3,3,5387,1,0.4555462,6.309918,3.988505,-1
19,F,1,1,1,7,4,2,2,3331,0,0.7198657,10.3749,3.833898,-1
19,F,1,1,1,8,4,4,4,2065,1,0.6903659,10.37444,3.67951,-1
19,F,1,1,1,9,3,3,3,3942,0,0.5314437,6.33821,4.656861,-1
19,F,1,1,1,10,2,2,2,1353,0,0.1765943,10.38216,0.9489449,-1
19,F,1,1,1,11,2,4,4,2298,0,0.5181999,10.38431,2.766828,-1
19,F,1,1,1,12,1,2,2,1276,0,0.2654128,6.522169,2.224312,-1
19,F,1,1,1,13,1,1,1,2742,0,0.04164892,6.203038,0.3663747,-1
19,F,1,1,1,14,4,3,3,2876,1,0.6632464,10.18842,3.593031,-1
19,F,1,1,1,15,3,2,2,1298,0,0.4415225,6.510772,3.70787,-1
19,F,1,1,1,16,4,1,1,1776,0,0.8302946,10.17453,4.571876,-1
19,F,1,1,2,1,2,7,3,4353,0,0.7818013,10.17463,4.329024,-1
19,F,1,1,2,2,4,8,4,4587,1,0.5809597,10.35454,3.078988,-1
19,F,1,1,2,3,4,7,3,3565,0,0.6466351,10.20121,3.538506,-1
19,F,1,1,2,4,1,8,4,3276,0,0.3210261,6.525041,2.738597,-1
19,F,1,1,2,5,4,5,1,2242,0,0.597755,10.14386,3.28956,-1
19,F,1,1,2,6,1,7,3,3542,0,0.1761134,6.325004,1.528799,-1
19,F,1,1,2,7,4,6,2,3775,5,0.3840421,10.41488,2.083844,-1
19,F,1,1,2,8,2,8,4,2020,1,0.330284,10.39118,1.791003,-1
19,F,1,1,2,9,3,5,1,2331,1,0.3618485,6.210945,3.187517,-1
19,F,1,1,2,10,3,6,2,1854,1,0.1766143,6.535362,1.490954,-1
19,F,1,1,2,11,3,8,4,5287,0,0.480652,6.558379,4.084421,-1
19,F,1,1,2,12,1,6,2,1309,0,0.3969509,6.52457,3.33096,-1
19,F,1,1,2,13,2,5,1,2020,1,0.01472619,10.12761,0.08392937,-1
19,F,1,1,2,14,2,6,2,1453,1,0.2812858,10.40191,1.525468,-1
19,F,1,1,2,15,3,7,3,3976,0,0.293849,6.343765,2.543144,-1
19,F,1,1,2,16,1,5,1,1676,0,0.3729064,6.22297,3.290452,-1
19,F,1,1,3,1,4,10,2,964,0,0.3275118,10.37765,1.749212,-1
19,F,1,1,3,2,4,9,1,2165,0,0.2514266,10.14164,1.386351,-1
19,F,1,1,3,3,4,11,3,8664,0,2.183856E-07,10.20495,0.01978234,-1
19,F,1,1,3,4,1,12,4,3698,1,0.1495995,6.519215,1.248508,-1
19,F,1,1,3,5,3,9,1,2098,0,0.2444472,6.211026,2.156856,-1
19,F,1,1,3,6,2,11,3,3842,0,0.5115283,10.18767,2.821402,-1
19,F,1,1,3,7,1,10,2,1209,0,0.3287125,6.526247,2.757686,-1
19,F,1,1,3,8,3,12,4,3487,1,3.246092E-07,6.508023,0,-1
19,F,1,1,3,9,3,10,2,1831,1,0.5018779,6.519946,4.172557,-1
19,F,1,1,3,10,3,11,3,2731,0,0.2140868,6.330836,1.8572,-1
19,F,1,1,3,11,2,12,4,2631,1,0.1055717,10.39506,0.5685511,-1
19,F,1,1,3,12,1,9,1,2198,1,0.4608262,6.221001,4.077943,-1
19,F,1,1,3,13,1,11,3,4442,0,0.08045339,6.30997,0.6985759,-1
19,F,1,1,3,14,2,9,1,2787,0,0.4203154,10.13135,2.310968,-1
19,F,1,1,3,15,2,10,2,1087,0,0.6011822,10.38859,3.200267,-1
19,F,1,1,3,16,4,12,4,3253,2,0.6018491,10.38208,3.252211,-1
19,F,1,1,4,1,1,15,3,3853,0,0.4490089,6.316664,3.927053,-1
19,F,1,1,4,2,3,13,1,1942,0,0.4727751,6.216658,4.118703,-1
19,F,1,1,4,3,3,16,4,2820,1,0.1546184,6.514719,1.295129,-1
19,F,1,1,4,4,1,14,2,2865,0,0.3746247,6.532836,3.131004,-1
19,F,1,1,4,5,4,15,3,2176,0,0.3066094,10.22119,1.673744,-1
19,F,1,1,4,6,2,16,4,2909,1,1.318665E-07,10.38988,0,-1
19,F,1,1,4,7,1,13,1,1598,0,1.127598E-07,6.224494,0,-1
19,F,1,1,4,8,2,15,3,3209,0,0.8351966,10.19462,4.513362,-1
19,F,1,1,4,9,4,16,4,8142,5,0.08400802,10.3782,0.4519747,-1
19,F,1,1,4,10,3,14,2,8953,5,0.1717884,6.528172,1.439535,-1
19,F,1,1,4,11,3,15,3,3809,0,0.02879653,6.328034,0.2502292,-1
19,F,1,1,4,12,2,14,2,1653,1,0.2782768,10.41739,1.507141,-1
19,F,1,1,4,13,2,13,1,2276,0,0.246384,10.16056,1.352339,-1
19,F,1,1,4,14,4,14,2,998,0,0.204785,10.41838,1.093248,-1
19,F,1,1,4,15,1,16,4,2442,1,2.893259E-08,6.552137,0,-1
19,F,1,1,4,16,4,13,1,1587,0,0.5944732,10.20505,3.261468,-1
19,F,1,1,5,1,2,19,3,2142,0,0.2193688,10.2037,1.196322,-1
19,F,1,1,5,2,3,20,4,2598,1,0.2881797,6.553727,2.413462,-1
19,F,1,1,5,3,1,17,1,1931,1,0.04886431,6.221733,0.429328,-1
19,F,1,1,5,4,2,20,4,1609,0,3.725247E-07,10.40912,0,-1
19,F,1,1,5,5,4,17,1,3242,0,0.4885316,10.20146,2.688025,-1
19,F,1,1,5,6,3,18,2,2920,0,0.2562484,6.531466,2.124214,-1
19,F,1,1,5,7,3,17,1,5565,0,6.165892E-08,6.20938,0,-1
19,F,1,1,5,8,3,19,3,2965,0,0.163504,6.330248,1.425738,-1
19,F,1,1,5,9,1,18,2,1276,0,0.1916488,6.548863,1.592622,-1
19,F,1,1,5,10,1,20,4,2165,1,0.1933728,6.546275,1.636499,-1
19,F,1,1,5,11,4,18,2,2276,0,0.814287,10.43415,4.429741,-1
19,F,1,1,5,12,4,19,3,3142,0,0.7819707,10.20829,4.208171,-1
19,F,1,1,5,13,2,17,1,4142,0,0.008200899,10.14467,0.04423466,-1
19,F,1,1,5,14,2,18,2,1465,1,0.3883339,10.41365,2.110813,-1
19,F,1,1,5,15,1,19,3,2642,0,0.3661414,6.334352,3.191385,-1
19,F,1,1,5,16,4,20,4,2920,1,0.4370998,10.39917,2.349937,-1
19,F,1,1,6,1,4,23,3,2120,0,0.5663692,10.23601,3.091552,-1
19,F,1,1,6,2,1,22,2,1209,0,0.3278758,6.546991,2.74224,-1
19,F,1,1,6,3,2,24,4,1553,0,0.1731831,10.40104,0.9270402,-1
19,F,1,1,6,4,4,22,2,2387,3,0.2362366,10.3856,1.263001,-1
19,F,1,1,6,5,4,24,4,1520,0,0.4246066,10.36964,2.289697,-1
19,F,1,1,6,6,3,21,1,1509,0,0.3399235,6.209415,2.977166,-1
19,F,1,1,6,7,1,23,3,3143,0,0.05765464,6.338208,0.5020211,-1
19,F,1,1,6,8,4,21,1,3065,0,9.196536E-08,10.16042,0,-1
19,F,1,1,6,9,2,22,2,2687,2,0.5006462,10.38351,2.728715,-1
19,F,1,1,6,10,3,23,3,3076,0,0.005929861,6.317957,0.04845664,-1
19,F,1,1,6,11,2,21,1,2198,1,0.47214,10.13079,2.631357,-1
19,F,1,1,6,12,1,24,4,1520,0,0.2822224,6.5413,2.338248,-1
19,F,1,1,6,13,1,21,1,3142,0,0.2423517,6.215952,2.12486,-1
19,F,1,1,6,14,3,24,4,3276,0,0.4817569,6.545384,3.990812,-1
19,F,1,1,6,15,3,22,2,1842,0,0.3786211,6.517264,3.142051,-1
19,F,1,1,6,16,2,23,3,5787,4,0.7628469,10.16648,4.18259,-1
19,F,1,1,7,1,4,28,4,2387,0,0.4125715,10.38258,2.205756,-1
19,F,1,1,7,2,3,27,3,2309,0,0.06370518,6.319857,0.5528469,-1
19,F,1,1,7,3,2,28,4,1998,1,0.3699962,10.3976,2.007791,-1
19,F,1,1,7,4,2,25,1,3665,4,1.108725E-07,10.08591,0,-1
19,F,1,1,7,5,3,26,2,1198,0,0.1996001,6.511045,1.656231,-1
19,F,1,1,7,6,4,25,1,2787,2,0.2141735,10.12352,1.179685,-1
19,F,1,1,7,7,4,26,2,1487,1,2.294121E-07,10.43509,0,-1
19,F,1,1,7,8,3,28,4,3331,1,0.006688862,6.512566,0.05595291,-1
19,F,1,1,7,9,1,25,1,2820,2,0.3367121,6.201171,2.971111,-1
19,F,1,1,7,10,1,27,3,3098,0,0.006684493,6.329531,0.05595291,-1
19,F,1,1,7,11,3,25,1,1653,0,0.408617,6.202182,3.555122,-1
19,F,1,1,7,12,4,27,3,4364,2,0.4590451,10.17782,2.531186,-1
19,F,1,1,7,13,1,26,2,1965,1,0.04434691,6.531754,0.3732531,-1
19,F,1,1,7,14,2,27,3,2720,0,0.4904125,10.17038,2.708049,-1
19,F,1,1,7,15,1,28,4,4998,5,0.2392842,6.526387,2.0488,-1
19,F,1,1,7,16,2,26,2,1564,1,0.4137159,10.39166,2.223432,-1
19,F,1,1,8,1,3,29,1,3331,0,0.06487125,6.200692,0.5726661,-1
19,F,1,1,8,2,1,30,2,1820,1,0.3498559,6.542594,2.959426,-1
19,F,1,1,8,3,2,32,4,1454,0,0.5379122,10.38075,2.881335,-1
19,F,1,1,8,4,2,29,1,1420,0,0.8442566,10.11715,4.744127,-1
19,F,1,1,8,5,4,30,2,1953,1,0.4053521,10.43105,2.170244,-1
19,F,1,1,8,6,4,31,3,9999,15,-1,-1,-1,-1
19,F,1,1,8,7,4,29,1,2576,0,0.6528636,10.17423,3.601305,-1
19,F,1,1,8,8,3,31,3,3098,0,1.681462E-08,6.326496,0,-1
19,F,1,1,8,9,2,30,2,1098,0,0.1969768,10.41235,1.06091,-1
19,F,1,1,8,10,1,31,3,4042,3,0.1487678,6.331783,1.285879,-1
19,F,1,1,8,11,3,32,4,2820,0,0.1975334,6.523405,1.674095,-1
19,F,1,1,8,12,3,30,2,1131,0,3.04308E-08,6.507681,0,-1
19,F,1,1,8,13,4,32,4,1720,0,0.3363934,10.39054,1.796458,-1
19,F,1,1,8,14,2,31,3,4864,0,0.7239055,10.17229,4.020244,-1
19,F,1,1,8,15,1,32,4,1998,0,0.177773,6.52472,1.478167,-1
19,F,1,1,8,16,1,29,1,1331,0,0.4227057,6.204861,3.727726,-1
19,F,1,1,9,1,4,36,4,1865,0,0.8810349,10.36916,4.796813,-1
19,F,1,1,9,2,4,34,2,3920,0,0.09600762,10.40284,0.5151029,-1
19,F,1,1,9,3,3,35,3,3220,1,2.610341E-07,6.343157,0,-1
19,F,1,1,9,4,3,33,1,5831,1,0.04252829,6.172249,0.3763854,-1
19,F,1,1,9,5,1,35,3,2276,0,1.148652E-07,6.319094,0,-1
19,F,1,1,9,6,2,34,2,1009,0,0.3403612,10.37688,1.819622,-1
19,F,1,1,9,7,4,33,1,1831,0,0.4519408,10.12605,2.504522,-1
19,F,1,1,9,8,1,34,2,998,0,0.2186171,6.539079,1.813805,-1
19,F,1,1,9,9,1,36,4,1020,0,0.369319,6.533999,3.090729,-1
19,F,1,1,9,10,2,33,1,2331,2,0.09003625,10.10258,0.4981082,-1
19,F,1,1,9,11,3,36,4,4276,0,0.1525682,6.518044,1.269183,-1
19,F,1,1,9,12,2,35,3,1920,0,0.2257168,10.1896,1.237646,-1
19,F,1,1,9,13,2,36,4,1398,0,0.7360906,10.39944,3.922063,-1
19,F,1,1,9,14,1,33,1,3109,4,0.316553,6.200342,2.808956,-1
19,F,1,1,9,15,4,35,3,5187,0,0.7253363,10.20029,4.027787,-1
19,F,1,1,9,16,3,34,2,1220,0,0.3049541,6.527169,2.554126,-1
19,F,1,1,10,1,4,40,4,3853,1,0.4355165,10.36491,2.3249,-1
19,F,1,1,10,2,1,39,3,4131,0,4.22541E-07,6.321442,0,-1
19,F,1,1,10,3,2,37,1,1309,0,0.6921843,10.13025,3.810228,-1
19,F,1,1,10,4,4,38,2,1053,0,0.5306859,10.42523,2.888596,-1
19,F,1,1,10,5,3,37,1,1220,0,0.4935254,6.180601,4.320465,-1
19,F,1,1,10,6,2,39,3,4264,4,0.8225789,10.17321,4.568833,-1
19,F,1,1,10,7,1,37,1,1432,0,0.06807531,6.198357,0.6010084,-1
19,F,1,1,10,8,2,40,4,4198,2,0.4796814,10.38575,2.594802,-1
19,F,1,1,10,9,3,38,2,1654,1,0.2080995,6.502376,1.728956,-1
19,F,1,1,10,10,3,40,4,2131,1,1.198972E-07,6.532173,0.01978234,-1
19,F,1,1,10,11,2,38,2,1276,0,0.01968696,10.39197,0.1065312,-1
19,F,1,1,10,12,4,39,3,3698,0,0.455099,10.21582,2.483804,-1
19,F,1,1,10,13,1,40,4,2698,0,0.2303154,6.532944,1.919283,-1
19,F,1,1,10,14,4,37,1,1998,0,0.5592418,10.12345,3.119917,-1
19,F,1,1,10,15,1,38,2,1031,0,0.09782535,6.535175,0.8194832,-1
19,F,1,1,10,16,3,39,3,3476,0,4.435887E-08,6.314371,0,-1
19,F,1,1,11,1,1,42,2,4209,4,0.2951083,6.530929,2.467438,-1
19,F,1,1,11,2,3,44,4,3353,2,0.1656176,6.506781,1.377004,-1
19,F,1,1,11,3,1,41,1,2065,1,0.2415243,6.180783,2.135242,-1
19,F,1,1,11,4,4,42,2,898,1,0.8842265,10.40882,4.712101,-1
19,F,1,1,11,5,3,41,1,2276,1,0.4183733,6.186715,3.681318,-1
19,F,1,1,11,6,2,44,4,1231,0,0.6209242,10.38243,3.326137,-1
19,F,1,1,11,7,4,43,3,3020,0,0.3719953,10.18632,2.04985,-1
19,F,1,1,11,8,4,41,1,7287,1,0.1368089,10.07478,0.7576976,-1
19,F,1,1,11,9,1,43,3,2687,0,0.3511452,6.309095,3.074152,-1
19,F,1,1,11,10,4,44,4,4687,2,0.1644005,10.36878,0.8824874,-1
19,F,1,1,11,11,3,42,2,1598,1,0.05662943,6.519482,0.4784724,-1
19,F,1,1,11,12,1,44,4,2887,1,0.1398167,6.53931,1.186797,-1
19,F,1,1,11,13,3,43,3,3698,0,3.444106E-08,6.306568,0,-1
19,F,1,1,11,14,2,42,2,1465,1,0.4449647,10.37889,2.412813,-1
19,F,1,1,11,15,2,43,3,2953,0,0.702249,10.15917,3.8936,-1
19,F,1,1,11,16,2,41,1,5076,2,0.06800945,10.07,0.3774237,-1
19,F,1,1,12,1,3,47,3,2798,0,0.0085813,6.322729,0.07132626,-1
19,F,1,1,12,2,1,46,2,1076,0,0.3662654,6.520621,3.075871,-1
19,F,1,1,12,3,2,48,4,3353,3,0.6053892,10.37009,3.246608,-1
19,F,1,1,12,4,2,45,1,1376,0,0.5316322,10.08503,2.981109,-1
19,F,1,1,12,5,3,48,4,4265,1,1.341441E-07,6.493608,0,-1
19,F,1,1,12,6,3,45,1,2787,1,0.3025869,6.148599,2.708627,-1
19,F,1,1,12,7,4,47,3,2531,0,0.5945897,10.169,3.261468,-1
19,F,1,1,12,8,1,45,1,1487,0,0.2699754,6.178551,2.389009,-1
19,F,1,1,12,9,4,48,4,2565,1,0.1116433,10.35743,0.5983981,-1
19,F,1,1,12,10,4,46,2,1354,1,0.2626175,10.36634,1.407226,-1
19,F,1,1,12,11,1,47,3,2598,0,0.4719224,6.303165,4.137206,-1
19,F,1,1,12,12,4,45,1,1553,0,0.4273166,10.13432,2.375699,-1
19,F,1,1,12,13,3,46,2,1931,1,1.015443E-07,6.484726,0,-1
19,F,1,1,12,14,2,47,3,1742,0,0.6527473,10.15896,3.593631,-1
19,F,1,1,12,15,2,46,2,787,0,0.5638159,10.37371,3.035768,-1
19,F,1,1,12,16,1,48,4,1720,0,0.3419455,6.516341,2.86553,-1
19,F,1,1,13,1,2,49,1,1231,0,0.1422731,10.11039,0.7875819,-1
19,F,1,1,13,2,2,51,3,1931,0,0.6189885,10.18099,3.412256,-1
19,F,1,1,13,3,3,52,4,2509,1,0.01196278,6.513652,0.09691329,-1
19,F,1,1,13,4,3,51,3,3664,0,1.630953E-07,6.319641,0,-1
19,F,1,1,13,5,3,50,2,931,0,0.3137574,6.522944,2.631878,-1
19,F,1,1,13,6,3,49,1,1653,0,0.5022665,6.182207,4.438444,-1
19,F,1,1,13,7,4,51,3,7209,7,0.5718213,10.17033,3.132379,-1
19,F,1,1,13,8,1,49,1,1231,0,0.4753496,6.200317,4.221182,-1
19,F,1,1,13,9,1,51,3,2109,0,0.3103534,6.321116,2.700956,-1
19,F,1,1,13,10,4,52,4,5287,0,0.6411965,10.35095,3.448385,-1
19,F,1,1,13,11,1,50,2,1665,1,1.924611E-07,6.521961,0,-1
19,F,1,1,13,12,2,52,4,1609,1,0.2413872,10.38036,1.304163,-1
19,F,1,1,13,13,2,50,2,820,0,0.6483989,10.37669,3.457004,-1
19,F,1,1,13,14,1,52,4,1165,0,0.411605,6.528293,3.448385,-1
19,F,1,1,13,15,4,50,2,987,0,0.8638514,10.3762,4.715509,-1
19,F,1,1,13,16,4,49,1,1109,0,0.1690036,10.09742,0.9337703,-1
19,F,1,1,14,1,1,55,3,2898,2,0.1784007,6.311346,1.531229,-1
19,F,1,1,14,2,3,53,1,1820,1,5.003056E-08,6.181321,0,-1
19,F,1,1,14,3,2,55,3,2209,0,0.05306001,10.15766,0.2900664,-1
19,F,1,1,14,4,3,54,2,1353,0,0.04983279,6.522514,0.4210443,-1
19,F,1,1,14,5,3,55,3,3665,2,0.3037803,6.311123,2.647745,-1
19,F,1,1,14,6,2,53,1,1120,0,0.5757827,10.08553,3.223794,-1
19,F,1,1,14,7,4,54,2,2131,1,0.7828369,10.41306,4.260207,-1
19,F,1,1,14,8,4,53,1,2376,1,0.1932508,10.12385,1.068811,-1
19,F,1,1,14,9,3,56,4,2898,1,2.244124E-07,6.540866,0,-1
19,F,1,1,14,10,2,54,2,887,0,0.356042,10.38187,1.902281,-1
19,F,1,1,14,11,2,56,4,1242,0,0.1135326,10.38641,0.6074851,-1
19,F,1,1,14,12,1,54,2,1220,0,0.3510789,6.53163,2.966231,-1
19,F,1,1,14,13,4,56,4,1098,0,0.5319577,10.35933,2.879296,-1
19,F,1,1,14,14,1,53,1,1276,0,0.1416483,6.180789,1.258655,-1
19,F,1,1,14,15,4,55,3,1831,0,0.5802121,10.18029,3.201123,-1
19,F,1,1,14,16,1,56,4,2009,0,0.3930468,6.526752,3.293604,-1
19,F,1,1,15,1,1,58,2,1098,0,0.05023098,6.518808,0.4219727,-1
19,F,1,1,15,2,3,57,1,1142,0,0.4414896,6.151711,3.871762,-1
19,F,1,1,15,3,2,59,3,1598,0,0.1637621,10.16573,0.8976567,-1
19,F,1,1,15,4,1,57,1,987,0,0.05740595,6.178422,0.5078341,-1
19,F,1,1,15,5,4,59,3,1065,0,0.7787091,10.1902,4.239515,-1
19,F,1,1,15,6,2,60,4,1276,0,0.7942669,10.3829,4.256068,-1
19,F,1,1,15,7,4,57,1,1876,0,0.05322268,10.09626,0.2947506,-1
19,F,1,1,15,8,2,58,2,954,0,0.2418965,10.36449,1.301459,-1
19,F,1,1,15,9,4,60,4,1620,1,0.2070293,10.37352,1.117676,-1
19,F,1,1,15,10,3,59,3,3587,0,0.1091788,6.312807,0.9536759,-1
19,F,1,1,15,11,2,57,1,1131,0,0.3491202,10.10181,1.926407,-1
19,F,1,1,15,12,3,58,2,1009,0,0.3255666,6.479008,2.702912,-1
19,F,1,1,15,13,1,59,3,5687,9,0.2023396,6.26433,1.77244,-1
19,F,1,1,15,14,3,60,4,2931,0,0.343915,6.491899,2.881063,-1
19,F,1,1,15,15,4,58,2,3231,5,0.761224,10.35468,4.170727,-1
19,F,1,1,15,16,1,60,4,1576,0,0.1416738,6.514718,1.186467,-1
19,F,1,1,16,1,1,61,1,1087,0,0.440172,6.180654,3.916517,-1
19,F,1,1,16,2,2,62,2,1020,0,0.6998819,10.35955,3.828582,-1
19,F,1,1,16,3,4,61,1,1509,0,0.5834253,10.12505,3.273332,-1
19,F,1,1,16,4,1,63,3,3231,1,0.3773744,6.30077,3.299721,-1
19,F,1,1,16,5,1,62,2,1009,0,9.92705E-08,6.503717,0,-1
19,F,1,1,16,6,3,63,3,3831,1,0.1343076,6.288466,1.167346,-1
19,F,1,1,16,7,2,64,4,1309,0,1.519429E-07,10.37192,0,-1
19,F,1,1,16,8,2,63,3,2087,0,0.6523719,10.14963,3.630168,-1
19,F,1,1,16,9,3,64,4,1665,0,0.08105536,6.519224,0.6864257,-1
19,F,1,1,16,10,2,61,1,1687,1,0.7234254,10.06791,4.088974,-1
19,F,1,1,16,11,4,64,4,2709,0,0.458693,10.34232,2.506006,-1
19,F,1,1,16,12,4,63,3,2164,0,0.180447,10.14604,0.9899204,-1
19,F,1,1,16,13,3,61,1,2164,0,0.07208127,6.169543,0.6398023,-1
19,F,1,1,16,14,4,62,2,1865,0,0.7750028,10.37988,4.146521,-1
19,F,1,1,16,15,1,64,4,1998,0,0.334861,6.506258,2.790217,-1
19,F,1,1,16,16,3,62,2,1487,1,0.1968854,6.509925,1.66354,-1
19,F,1,1,17,1,1,67,3,2742,0,0.2377308,6.337532,2.07141,-1
19,F,1,1,17,2,3,65,1,3620,3,0.09890072,6.205657,0.8751395,-1
19,F,1,1,17,3,1,68,4,2642,4,0.5418609,6.575009,4.431952,-1
19,F,1,1,17,4,1,65,1,5020,0,0.1882309,6.246058,1.64877,-1
19,F,1,1,17,5,4,66,2,5820,0,0.5189407,10.45478,2.794353,-1
19,F,1,1,17,6,2,65,1,1687,0,0.1569356,10.18306,0.8634343,-1
19,F,1,1,17,7,2,67,3,1887,0,0.6855008,10.35094,3.731349,-1
19,F,1,1,17,8,2,66,2,1220,1,0.5760322,10.52733,3.028925,-1
19,F,1,1,17,9,4,65,1,5576,2,0.6652002,10.31404,3.613192,-1
19,F,1,1,17,10,3,68,4,4664,0,0.2952532,6.614205,2.404362,-1
19,F,1,1,17,11,1,66,2,1820,1,0.5561889,6.62743,4.555394,-1
19,F,1,1,17,12,4,68,4,2176,0,0.5613329,10.52706,2.966231,-1
19,F,1,1,17,13,3,67,3,3120,1,0.2607547,6.454539,2.21832,-1
19,F,1,1,17,14,2,68,4,1509,1,0.8992094,10.5237,4.799385,-1
19,F,1,1,17,15,4,67,3,1209,0,0.3142201,10.34615,1.703643,-1
19,F,1,1,17,16,3,66,2,1542,1,3.729752E-07,6.627914,0,-1
19,F,1,1,18,1,4,72,4,2298,0,0.2928887,10.51379,1.549018,-1
19,F,1,1,18,2,3,70,2,2098,0,0.2224022,6.645066,1.818331,-1
19,F,1,1,18,3,2,69,1,1242,0,0.2751145,10.25613,1.503501,-1
19,F,1,1,18,4,4,70,2,1176,0,6.564916E-08,10.53542,0,-1
19,F,1,1,18,5,4,69,1,2142,0,0.6285934,10.29581,3.47964,-1
19,F,1,1,18,6,2,72,4,1487,0,0.1599363,10.52217,0.8499581,-1
19,F,1,1,18,7,3,69,1,1876,1,0.372938,6.293694,3.205646,-1
19,F,1,1,18,8,3,71,3,2653,0,0.2958329,6.442611,2.527781,-1
19,F,1,1,18,9,3,72,4,1465,0,0.4537306,6.628282,3.666235,-1
19,F,1,1,18,10,1,70,2,1198,0,0.1608019,6.647168,1.342172,-1
19,F,1,1,18,11,1,69,1,3176,0,0.4144665,6.305611,3.588123,-1
19,F,1,1,18,12,1,71,3,2509,1,5.367805E-08,6.425032,0,-1
19,F,1,1,18,13,1,72,4,1853,0,0.5091797,6.642623,4.178983,-1
19,F,1,1,18,14,4,71,3,2387,0,0.6685674,10.32664,3.661104,-1
19,F,1,1,18,15,2,70,2,809,0,0.8309019,10.50715,4.4961,-1
19,F,1,1,18,16,2,71,3,3298,0,0.3554172,10.31481,1.940477,-1
19,F,1,1,19,1,4,73,1,1431,0,0.4454811,10.28747,2.452719,-1
19,F,1,1,19,2,3,74,2,1076,0,0.2283894,6.637475,1.879927,-1
19,F,1,1,19,3,2,73,1,1031,0,0.2994849,10.25204,1.64211,-1
19,F,1,1,19,4,4,75,3,2954,0,0.5304904,10.3492,2.882965,-1
19,F,1,1,19,5,4,76,4,2931,0,0.6983004,10.52125,3.692842,-1
19,F,1,1,19,6,1,73,1,1542,0,0.4495062,6.307714,3.901037,-1
19,F,1,1,19,7,3,75,3,3465,1,0.1522316,6.427394,1.307011,-1
19,F,1,1,19,8,2,74,2,720,0,0.3504069,10.51631,1.851078,-1
19,F,1,1,19,9,2,76,4,1276,0,0.7605099,10.51564,4.024431,-1
19,F,1,1,19,10,3,73,1,2220,0,0.3567794,6.297438,3.08045,-1
19,F,1,1,19,11,2,75,3,3242,2,0.0720974,10.32416,0.3891652,-1
19,F,1,1,19,12,4,74,2,953,0,0.1766228,10.54346,0.9364907,-1
19,F,1,1,19,13,3,76,4,1498,0,0.3218383,6.616424,2.622266,-1
19,F,1,1,19,14,1,75,3,3320,1,0.4210001,6.421151,3.625418,-1
19,F,1,1,19,15,1,76,4,1454,0,0.1013577,6.634899,0.8453411,-1
19,F,1,1,19,16,1,74,2,1031,0,0.2366415,6.626289,1.976254,-1
19,F,1,1,20,1,1,79,3,3176,2,0.327184,6.408375,2.772623,-1
19,F,1,1,20,2,2,78,2,2831,4,0.05948422,10.49513,0.3171355,-1
19,F,1,1,20,3,3,79,3,4253,4,0.5017165,6.416035,4.287702,-1
19,F,1,1,20,4,3,77,1,3120,0,0.2980457,6.307824,2.576179,-1
19,F,1,1,20,5,4,78,2,5653,4,0.3755257,10.51644,1.985541,-1
19,F,1,1,20,6,1,77,1,2376,1,0.3856456,6.292043,3.369646,-1
19,F,1,1,20,7,2,79,3,2031,0,0.5494078,10.29669,2.999113,-1
19,F,1,1,20,8,2,80,4,1798,0,0.3216814,10.50859,1.702149,-1
19,F,1,1,20,9,1,78,2,1343,0,0.4984149,6.63082,4.119607,-1
19,F,1,1,20,10,4,79,3,4042,4,0.5373726,10.32705,2.940314,-1
19,F,1,1,20,11,1,80,4,1198,0,0.02029568,6.654206,0.166689,-1
19,F,1,1,20,12,2,77,1,2676,2,0.3220499,10.2301,1.773323,-1
19,F,1,1,20,13,4,80,4,2331,0,0.4489251,10.48706,2.361072,-1
19,F,1,1,20,14,3,78,2,1242,0,0.2087635,6.602357,1.714407,-1
19,F,1,1,20,15,3,80,4,1520,0,0.104405,6.643149,0.8586619,-1
19,F,1,1,20,16,4,77,1,2420,1,0.1500216,10.27856,0.8201992,-1
19,F,1,1,21,1,2,84,4,4631,7,0.6118374,10.4388,3.244436,-1
19,F,1,1,21,2,2,81,1,4176,7,0.8108822,10.24419,4.50424,-1
19,F,1,1,21,3,3,84,4,4831,0,0.1572939,6.656284,1.294676,-1
19,F,1,1,21,4,3,81,1,2131,0,0.2653338,6.305714,2.304947,-1
19,F,1,1,21,5,1,82,2,1231,0,1.025087E-07,6.634402,0,-1
19,F,1,1,21,6,4,83,3,4353,0,7.902063E-08,10.31666,0,-1
19,F,1,1,21,7,3,82,2,1131,0,0.3179484,6.597938,2.592916,-1
19,F,1,1,21,8,1,83,3,2253,0,0.3626834,6.425468,3.118034,-1
19,F,1,1,21,9,2,82,2,2920,4,0.2899565,10.50019,1.559594,-1
19,F,1,1,21,10,1,84,4,1365,0,0.06685554,6.644842,0.5549665,-1
19,F,1,1,21,11,3,83,3,1631,0,0.4778174,6.421456,4.071214,-1
19,F,1,1,21,12,1,81,1,4009,1,0.1037075,6.303828,0.9013549,-1
19,F,1,1,21,13,4,82,2,2976,5,0.6317853,10.50147,3.405478,-1
19,F,1,1,21,14,2,83,3,3020,2,0.7492707,10.31417,4.002229,-1
19,F,1,1,21,15,4,81,1,4787,2,0.5725657,10.29212,3.146099,-1
19,F,1,1,21,16,4,84,4,2276,0,0.5276497,10.48847,2.797784,-1
19,F,1,1,22,1,4,85,1,1287,0,0.4212582,10.24995,2.32035,-1
19,F,1,1,22,2,1,87,3,1698,0,0.2555561,6.4388,2.191067,-1
19,F,1,1,22,3,2,86,2,854,0,0.03592252,10.51301,0.1907741,-1
19,F,1,1,22,4,3,85,1,3776,0,0.3317838,6.303014,2.899148,-1
19,F,1,1,22,5,2,87,3,3865,4,0.2609476,10.29293,1.422303,-1
19,F,1,1,22,6,2,85,1,1376,0,0.1262756,10.25332,0.6901216,-1
19,F,1,1,22,7,2,88,4,1765,1,1.600714E-07,10.51444,0,-1
19,F,1,1,22,8,1,86,2,2409,0,0.04327412,6.638849,0.3588198,-1
19,F,1,1,22,9,4,87,3,2776,3,0.4041003,10.33621,2.164284,-1
19,F,1,1,22,10,4,88,4,3198,4,0.4296045,10.49233,2.267449,-1
19,F,1,1,22,11,3,86,2,1576,1,0.3386052,6.601099,2.858691,-1
19,F,1,1,22,12,1,85,1,2798,0,0.1853905,6.311073,1.610462,-1
19,F,1,1,22,13,3,88,4,1787,0,0.08437249,6.651025,0.7008132,-1
19,F,1,1,22,14,4,86,2,2187,1,0.1226202,10.54156,0.6546168,-1
19,F,1,1,22,15,1,88,4,1209,0,0.125623,6.645895,1.033819,-1
19,F,1,1,22,16,3,87,3,1775,0,0.1475386,6.417253,1.257099,-1
19,F,1,1,23,1,1,89,1,1309,0,0.05726343,6.313255,0.4973219,-1
19,F,1,1,23,2,4,91,3,2642,0,0.4687213,10.33998,2.506553,-1
19,F,1,1,23,3,4,89,1,1542,0,0.4413333,10.2762,2.410053,-1
19,F,1,1,23,4,2,91,3,2853,2,0.4459757,10.32241,2.400696,-1
19,F,1,1,23,5,4,92,4,1465,1,0.8980701,10.51685,4.763084,-1
19,F,1,1,23,6,2,90,2,754,0,0.4891903,10.50757,2.623236,-1
19,F,1,1,23,7,3,92,4,2420,3,0.3771149,6.664311,3.076953,-1
19,F,1,1,23,8,1,90,2,1787,1,0.4812452,6.652245,4.042153,-1
19,F,1,1,23,9,1,91,3,3454,2,0.09408172,6.417214,0.8091505,-1
19,F,1,1,23,10,1,92,4,1065,0,0.08923732,6.659125,0.7404569,-1
19,F,1,1,23,11,3,91,3,4009,0,0.4738253,6.439867,4.043849,-1
19,F,1,1,23,12,2,89,1,1398,0,0.4478438,10.25941,2.432767,-1
19,F,1,1,23,13,3,90,2,976,0,0.5431536,6.638001,4.502543,-1
19,F,1,1,23,14,2,92,4,1354,0,0.4763005,10.51873,2.541912,-1
19,F,1,1,23,15,3,89,1,2265,2,0.1666068,6.303122,1.455084,-1
19,F,1,1,23,16,4,90,2,876,0,0.4199649,10.50142,2.234233,-1
19,F,1,1,24,1,3,95,3,2587,0,0.4618285,6.435211,3.944864,-1
19,F,1,1,24,2,1,94,2,831,0,5.554514E-08,6.626661,0,-1
19,F,1,1,24,3,4,95,3,2876,0,1.263473E-07,10.34126,0,-1
19,F,1,1,24,4,2,94,2,765,0,0.7418635,10.51283,3.907607,-1
19,F,1,1,24,5,2,95,3,1665,0,0.8129025,10.30845,4.427397,-1
19,F,1,1,24,6,1,93,1,1553,0,0.2476748,6.312341,2.145301,-1
19,F,1,1,24,7,1,95,3,3376,2,3.910588E-08,6.415944,0,-1
19,F,1,1,24,8,3,94,2,1109,0,0.4007119,6.599905,3.257143,-1
19,F,1,1,24,9,3,96,4,1609,0,0.2568822,6.636751,2.104591,-1
19,F,1,1,24,10,3,93,1,1142,0,0.248192,6.279768,2.132215,-1
19,F,1,1,24,11,2,96,4,1620,1,0.3677416,10.51054,1.933506,-1
19,F,1,1,24,12,4,93,1,1965,0,0.818658,10.28286,4.502761,-1
19,F,1,1,24,13,1,96,4,954,0,0.2306607,6.636469,1.901046,-1
19,F,1,1,24,14,2,93,1,1120,0,0.6116149,10.24879,3.38333,-1
19,F,1,1,24,15,4,94,2,1242,0,0.8881655,10.50448,4.661066,-1
19,F,1,1,24,16,4,96,4,3309,2,0.5256846,10.47311,2.823968,-1
19,F,1,1,25,1,3,98,2,898,0,0.2646625,6.520566,2.187043,-1
19,F,1,1,25,2,3,99,3,1487,0,0.1374732,6.35929,1.182006,-1
19,F,1,1,25,3,1,97,1,1109,0,0.2757424,6.221051,2.431802,-1
19,F,1,1,25,4,1,100,4,909,0,0.01561295,6.550458,0.1312212,-1
19,F,1,1,25,5,2,97,1,2142,0,0.3787291,10.09511,2.112388,-1
19,F,1,1,25,6,1,99,3,2142,0,0.3899443,6.347167,3.391595,-1
19,F,1,1,25,7,2,100,4,1031,0,0.8400247,10.3968,4.59866,-1
19,F,1,1,25,8,4,98,2,5709,13,0.6347415,10.34738,3.473051,-1
19,F,1,1,25,9,4,99,3,2275,0,0.3609353,10.19778,1.968216,-1
19,F,1,1,25,10,2,98,2,698,0,0.7237158,10.381,3.938654,-1
19,F,1,1,25,11,4,97,1,3709,0,0.287461,10.15579,1.587453,-1
19,F,1,1,25,12,3,100,4,2687,0,0.04792859,6.559456,0.4010509,-1
19,F,1,1,25,13,3,97,1,2098,0,0.1181501,6.142982,1.038917,-1
19,F,1,1,25,14,2,99,3,1809,0,0.6361755,10.18342,3.487678,-1
19,F,1,1,25,15,4,100,4,1054,0,0.3370933,10.39936,1.802006,-1
19,F,1,1,25,16,1,98,2,3220,0,0.08651032,6.523567,0.7340872,-1
19,F,1,1,26,1,2,101,1,1165,0,0.3191872,10.10186,1.761031,-1
19,F,1,1,26,2,3,104,4,2509,0,0.2771581,6.522237,2.302908,-1
19,F,1,1,26,3,2,103,3,2265,0,0.005393677,10.17413,0.02797646,-1
19,F,1,1,26,4,1,104,4,1409,0,0.100355,6.549488,0.847191,-1
19,F,1,1,26,5,2,102,2,1431,1,0.7908827,10.38652,4.307299,-1
19,F,1,1,26,6,3,103,3,1809,0,0.3276805,6.35677,2.831237,-1
19,F,1,1,26,7,4,104,4,3754,5,0.6561548,10.42658,3.475925,-1
19,F,1,1,26,8,1,102,2,2931,4,0.3585724,6.518673,3.050179,-1
19,F,1,1,26,9,4,101,1,2276,0,0.1597378,10.13818,0.8827091,-1
19,F,1,1,26,10,3,102,2,1687,1,0.2289652,6.518466,1.93856,-1
19,F,1,1,26,11,1,103,3,3042,1,0.451485,6.340619,3.935968,-1
19,F,1,1,26,12,1,101,1,1765,1,1.348662E-07,6.152255,0.01978234,-1
19,F,1,1,26,13,4,102,2,1976,0,0.5176443,10.39493,2.823899,-1
19,F,1,1,26,14,3,101,1,1398,0,0.3862917,6.157011,3.446454,-1
19,F,1,1,26,15,2,104,4,2953,3,0.5224679,10.3988,2.809374,-1
19,F,1,1,26,16,4,103,3,2031,0,0.5515449,10.1909,3.019474,-1
19,F,1,1,27,1,3,106,2,1142,0,1.306696E-07,6.481807,0,-1
19,F,1,1,27,2,1,107,3,3642,1,0.03453031,6.3497,0.2993615,-1
19,F,1,1,27,3,1,108,4,1031,0,4.240642E-08,6.537562,0,-1
19,F,1,1,27,4,1,105,1,1786,1,0.08759898,6.164606,0.7740492,-1
19,F,1,1,27,5,4,108,4,2365,0,0.01393605,10.38132,0.07401875,-1
19,F,1,1,27,6,4,107,3,4287,0,0.3469348,10.20804,1.90752,-1
19,F,1,1,27,7,3,105,1,1743,0,0.1128178,6.176701,0.9999508,-1
19,F,1,1,27,8,3,108,4,1142,0,6.924159E-08,6.522901,0,-1
19,F,1,1,27,9,4,106,2,1320,0,0.4628072,10.395,2.513493,-1
19,F,1,1,27,10,4,105,1,1454,0,5.330046E-09,10.12517,0,-1
19,F,1,1,27,11,2,107,3,1898,0,0.03785844,10.17328,0.20842,-1
19,F,1,1,27,12,1,106,2,1231,0,0.0946155,6.515924,0.804056,-1
19,F,1,1,27,13,2,108,4,1198,0,0.2066846,10.37893,1.107122,-1
19,F,1,1,27,14,2,106,2,931,0,0.5118925,10.36582,2.783755,-1
19,F,1,1,27,15,3,107,3,4287,0,0.5274313,6.333339,4.611251,-1
19,F,1,1,27,16,2,105,1,1331,0,0.3810128,10.08547,2.109978,-1
19,F,1,1,28,1,4,111,3,2309,0,0.7310314,10.20404,3.980347,-1
19,F,1,1,28,2,3,109,1,1620,0,0.4351171,6.157832,3.885293,-1
19,F,1,1,28,3,2,111,3,1276,0,0.6186767,10.17654,3.347728,-1
19,F,1,1,28,4,4,109,1,6076,0,0.7415006,10.12466,4.102219,-1
19,F,1,1,28,5,3,111,3,4231,0,0.493679,6.342524,4.311616,-1
19,F,1,1,28,6,4,110,2,931,0,0.4611704,10.38763,2.465851,-1
19,F,1,1,28,7,3,112,4,6942,0,0.2638561,6.507163,2.193299,-1
19,F,1,1,28,8,1,110,2,1020,0,1.048563E-08,6.497318,0,-1
19,F,1,1,28,9,2,112,4,1187,0,0.1923555,10.38608,1.033061,-1
19,F,1,1,28,10,2,109,1,931,0,0.04937509,10.09289,0.2733977,-1
19,F,1,1,28,11,2,110,2,1186,1,0.825929,10.36669,4.402465,-1
19,F,1,1,28,12,4,112,4,1765,0,6.554527E-08,10.36793,0,-1
19,F,1,1,28,13,3,110,2,1065,0,0.3219527,6.467086,2.691227,-1
19,F,1,1,28,14,1,112,4,1276,0,3.921171E-08,6.526548,0,-1
19,F,1,1,28,15,1,109,1,3854,0,0.08901393,6.161551,0.7905577,-1
19,F,1,1,28,16,1,111,3,3153,3,6.30684E-07,6.32656,0,-1
19,F,1,1,29,1,1,114,2,898,0,0.4642965,6.50551,3.843284,-1
19,F,1,1,29,2,4,116,4,1465,1,0.7983888,10.36794,4.264894,-1
19,F,1,1,29,3,3,113,1,2309,0,1.722565E-07,6.173922,0,-1
19,F,1,1,29,4,2,114,2,754,0,0.02075198,10.37344,0.1136409,-1
19,F,1,1,29,5,3,115,3,2431,0,0.2621031,6.32106,2.267967,-1
19,F,1,1,29,6,3,116,4,1009,0,0.2629314,6.521852,2.204336,-1
19,F,1,1,29,7,2,113,1,1098,0,0.2370176,10.09207,1.317895,-1
19,F,1,1,29,8,1,115,3,2509,1,0.09596331,6.32226,0.8381346,-1
19,F,1,1,29,9,1,113,1,3165,1,0.504386,6.153083,4.477547,-1
19,F,1,1,29,10,4,114,2,798,0,0.584465,10.34927,3.119603,-1
19,F,1,1,29,11,4,113,1,2665,0,4.672301E-08,10.12872,0,-1
19,F,1,1,29,12,1,116,4,1609,1,1.153948E-07,6.529027,0,-1
19,F,1,1,29,13,3,114,2,2842,0,0.2357043,6.505641,1.970402,-1
19,F,1,1,29,14,4,115,3,1476,0,0.3856558,10.19898,2.097045,-1
19,F,1,1,29,15,2,116,4,1265,0,0.4635447,10.37365,2.484513,-1
19,F,1,1,29,16,2,115,3,1953,0,0.5290891,10.14514,2.93625,-1
19,F,1,1,30,1,1,120,4,1031,0,0.1055134,6.52453,0.8807117,-1
19,F,1,1,30,2,4,117,1,4309,0,0.826815,10.07902,4.662452,-1
19,F,1,1,30,3,3,118,2,943,0,0.1081694,6.504219,0.9071976,-1
19,F,1,1,30,4,1,119,3,3053,1,0.004448706,6.305015,0.03956468,-1
19,F,1,1,30,5,3,120,4,854,0,0.2275831,6.533586,1.90752,-1
19,F,1,1,30,6,4,119,3,1476,0,0.6753331,10.18908,3.677966,-1
19,F,1,1,30,7,2,118,2,731,0,0.103397,10.36329,0.5581307,-1
19,F,1,1,30,8,1,117,1,3976,0,0.2476107,6.152343,2.195707,-1
19,F,1,1,30,9,3,119,3,2287,1,0.169286,6.334825,1.471134,-1
19,F,1,1,30,10,3,117,1,1387,0,2.150547E-08,6.160109,0,-1
19,F,1,1,30,11,4,118,2,2165,1,0.3774203,10.37776,2.058425,-1
19,F,1,1,30,12,2,120,4,1053,0,0.6766921,10.37072,3.709349,-1
19,F,1,1,30,13,2,119,3,2220,0,0.4639936,10.16958,2.51855,-1
19,F,1,1,30,14,4,120,4,1042,0,0.03118482,10.37496,0.166689,-1
19,F,1,1,30,15,2,117,1,1220,0,0.4277004,10.07898,2.390564,-1
19,F,1,1,30,16,1,118,2,920,0,0.03893672,6.506296,0.329838,-1
19,F,1,1,1,1,8,2,2,6142,0,-1,-1,-1,0
19,F,1,1,1,2,7,3,3,2965,0,-1,-1,-1,0
19,F,1,1,1,3,8,4,4,4576,0,-1,-1,-1,1
19,F,1,1,1,4,8,1,1,3231,0,-1,-1,-1,0
19,F,1,1,1,5,6,3,3,4298,0,-1,-1,-1,0
19,F,1,1,1,6,7,2,2,3409,0,-1,-1,-1,1
19,F,1,1,1,7,6,4,4,7364,0,-1,-1,-1,0
19,F,1,1,1,8,6,2,2,9453,0,-1,-1,-1,0
19,F,1,1,1,9,5,1,1,4298,0,-1,-1,-1,1
19,F,1,1,1,10,5,2,2,3476,0,-1,-1,-1,0
19,F,1,1,1,11,7,1,1,3698,0,-1,-1,-1,1
19,F,1,1,1,12,7,4,4,4920,0,-1,-1,-1,1
19,F,1,1,1,13,8,3,3,3465,0,-1,-1,-1,0
19,F,1,1,1,14,6,1,1,7120,0,-1,-1,-1,0
19,F,1,1,1,15,5,3,3,4676,0,-1,-1,-1,1
19,F,1,1,1,16,5,4,4,6131,0,-1,-1,-1,0
19,F,1,1,2,1,5,3,3,4453,0,-1,-1,-1,1
19,F,1,1,2,2,6,2,2,5787,0,-1,-1,-1,1
19,F,1,1,2,3,7,3,3,4553,0,-1,-1,-1,1
19,F,1,1,2,4,6,1,1,4020,0,-1,-1,-1,0
19,F,1,1,2,5,5,4,4,3231,0,-1,-1,-1,0
19,F,1,1,2,6,8,1,1,4042,0,-1,-1,-1,1
19,F,1,1,2,7,5,2,2,8498,0,-1,-1,-1,0
19,F,1,1,2,8,6,3,3,7998,0,-1,-1,-1,1
19,F,1,1,2,9,8,2,2,6020,0,-1,-1,-1,0
19,F,1,1,2,10,8,4,4,2253,0,-1,-1,-1,1
19,F,1,1,2,11,7,1,1,5742,0,-1,-1,-1,0
19,F,1,1,2,12,6,4,4,3387,0,-1,-1,-1,1
19,F,1,1,2,13,7,2,2,3798,0,-1,-1,-1,0
19,F,1,1,2,14,5,1,1,3831,0,-1,-1,-1,1
19,F,1,1,2,15,8,3,3,4620,0,-1,-1,-1,1
19,F,1,1,2,16,7,4,4,5442,0,-1,-1,-1,0
