Age, Gender, Awareness Type, Session, Block, Trial, Set, Pattern, Quadrant, Response Time, Num Mistakes, Distance From Target, Camera Distance From Target, Angle Error (Degrees), FC Response
26,M,1,1,1,1,4,2,2,4120,1,0.3332772,10.42848,1.775529,-1
26,M,1,1,1,2,4,4,4,2753,1,0.3542969,10.27664,1.906597,-1
26,M,1,1,1,3,3,2,2,2186,1,0.3277014,6.487565,2.749938,-1
26,M,1,1,1,4,2,3,3,9999,2,-1,-1,-1,-1
26,M,1,1,1,5,4,1,1,2298,1,0.7678013,10.25253,4.216261,-1
26,M,1,1,1,6,2,2,2,4864,1,0.7393432,10.43603,3.928349,-1
26,M,1,1,1,7,2,1,1,2509,0,0.7283991,10.26957,4.012589,-1
26,M,1,1,1,8,3,3,3,3042,0,0.05003993,6.124256,0.4476244,-1
26,M,1,1,1,9,3,4,4,4398,2,0.3437388,6.33392,2.939382,-1
26,M,1,1,1,10,3,1,1,1842,0,0.4190219,6.395585,3.600544,-1
26,M,1,1,1,11,1,2,2,5531,0,0.3053693,6.488404,2.586491,-1
26,M,1,1,1,12,1,3,3,2187,0,0.2042997,6.134874,1.833764,-1
26,M,1,1,1,13,1,4,4,9999,8,-1,-1,-1,-1
26,M,1,1,1,14,4,3,3,8564,0,0.3507809,10.16998,1.942292,-1
26,M,1,1,1,15,1,1,1,2609,0,0.407634,6.413875,3.499838,-1
26,M,1,1,1,16,2,4,4,9320,5,0.7458445,10.31272,4.020975,-1
26,M,1,1,2,1,4,6,2,9999,2,-1,-1,-1,-1
26,M,1,1,2,2,3,5,1,2120,0,0.2921174,6.41869,2.514895,-1
26,M,1,1,2,3,4,7,3,6531,0,0.4742903,10.20032,2.630241,-1
26,M,1,1,2,4,1,6,2,3031,0,0.3718939,6.516932,3.11112,-1
26,M,1,1,2,5,4,8,4,9999,5,-1,-1,-1,-1
26,M,1,1,2,6,1,7,3,1620,0,0.1977583,6.136919,1.746973,-1
26,M,1,1,2,7,1,5,1,3409,0,0.3564106,6.430542,3.057935,-1
26,M,1,1,2,8,1,8,4,6265,2,0.1551382,6.347298,1.337059,-1
26,M,1,1,2,9,2,6,2,9999,3,-1,-1,-1,-1
26,M,1,1,2,10,2,7,3,6631,0,0.1888799,10.21676,1.035332,-1
26,M,1,1,2,11,2,8,4,5576,2,0.1991346,10.32544,1.071371,-1
26,M,1,1,2,12,3,7,3,3209,0,0.2324214,6.126646,2.055285,-1
26,M,1,1,2,13,3,8,4,3465,0,0.5099779,6.360175,4.447041,-1
26,M,1,1,2,14,4,5,1,3520,0,0.2052581,10.30704,1.110122,-1
26,M,1,1,2,15,3,6,2,4142,1,0.4427821,6.517983,3.74826,-1
26,M,1,1,2,16,2,5,1,1853,0,0.2544529,10.30269,1.386351,-1
26,M,1,1,3,1,4,12,4,2942,1,0.5384964,10.34311,2.895026,-1
26,M,1,1,3,2,3,10,2,4787,0,0.4644024,6.508138,3.874088,-1
26,M,1,1,3,3,3,9,1,2409,0,0.3264814,6.40331,2.764633,-1
26,M,1,1,3,4,4,10,2,5831,0,0.5817156,10.47271,3.080895,-1
26,M,1,1,3,5,4,11,3,3076,0,0.7799794,10.21298,4.32332,-1
26,M,1,1,3,6,2,10,2,5620,0,0.1828919,10.47711,0.9683364,-1
26,M,1,1,3,7,2,9,1,1798,0,0.5408522,10.29807,2.939648,-1
26,M,1,1,3,8,2,11,3,1231,0,0.3251851,10.21567,1.779163,-1
26,M,1,1,3,9,3,12,4,3998,1,0.4115738,6.343856,3.537454,-1
26,M,1,1,3,10,1,9,1,1453,0,0.5249327,6.443472,4.489124,-1
26,M,1,1,3,11,1,11,3,2065,0,0.1706498,6.137055,1.513749,-1
26,M,1,1,3,12,1,12,4,4198,1,0.2864232,6.345051,2.445766,-1
26,M,1,1,3,13,3,11,3,2142,0,0.4296195,6.111599,3.776832,-1
26,M,1,1,3,14,1,10,2,2042,0,0.5051685,6.523463,4.212683,-1
26,M,1,1,3,15,2,12,4,2376,1,0.7224662,10.32208,3.876564,-1
26,M,1,1,3,16,4,9,1,4664,3,0.7866826,10.24217,4.334766,-1
26,M,1,1,4,1,1,16,4,3387,1,0.4828492,6.347608,4.164571,-1
26,M,1,1,4,2,4,15,3,5242,2,0.7949086,10.2361,4.325584,-1
26,M,1,1,4,3,2,14,2,2931,1,0.6955895,10.4626,3.686262,-1
26,M,1,1,4,4,3,16,4,3576,1,0.4507604,6.347087,3.916767,-1
26,M,1,1,4,5,2,13,1,2042,0,0.7462697,10.3089,4.046511,-1
26,M,1,1,4,6,2,16,4,2520,1,0.7894475,10.32718,4.250588,-1
26,M,1,1,4,7,3,14,2,2242,0,0.4178877,6.508651,3.484869,-1
26,M,1,1,4,8,1,15,3,1798,1,0.193435,6.128456,1.719763,-1
26,M,1,1,4,9,4,16,4,2942,2,0.5406854,10.33353,2.903803,-1
26,M,1,1,4,10,3,15,3,2253,0,0.05090996,6.150059,0.4545648,-1
26,M,1,1,4,11,3,13,1,5353,0,0.3901603,6.432302,3.322957,-1
26,M,1,1,4,12,1,14,2,4542,1,0.4374881,6.532912,3.644648,-1
26,M,1,1,4,13,2,15,3,4453,0,0.5323162,10.23203,2.898473,-1
26,M,1,1,4,14,1,13,1,1920,0,0.01038107,6.450162,0.08846933,-1
26,M,1,1,4,15,4,14,2,3342,1,0.4974318,10.47698,2.63552,-1
26,M,1,1,4,16,4,13,1,3454,1,0.4493586,10.25966,2.46005,-1
26,M,1,1,5,1,2,18,2,2165,1,0.8835226,10.47165,4.685252,-1
26,M,1,1,5,2,1,17,1,1275,0,0.2787627,6.450257,2.379815,-1
26,M,1,1,5,3,4,18,2,2154,0,0.8669442,10.49424,4.60815,-1
26,M,1,1,5,4,4,20,4,1842,1,0.6050397,10.3259,3.244677,-1
26,M,1,1,5,5,1,19,3,2298,0,0.1809346,6.124696,1.609489,-1
26,M,1,1,5,6,3,20,4,9999,3,-1,-1,-1,-1
26,M,1,1,5,7,3,19,3,1920,0,0.1896234,6.132212,1.678997,-1
26,M,1,1,5,8,2,17,1,4209,1,0.7327303,10.30724,3.992333,-1
26,M,1,1,5,9,4,19,3,2398,0,2.239027E-08,10.21417,0,-1
26,M,1,1,5,10,1,20,4,3631,1,0.4826733,6.342545,4.166028,-1
26,M,1,1,5,11,3,18,2,2831,0,0.3449204,6.532568,2.874533,-1
26,M,1,1,5,12,2,19,3,2109,0,0.3597338,10.21472,1.979025,-1
26,M,1,1,5,13,3,17,1,1820,0,0.5123649,6.414657,4.334134,-1
26,M,1,1,5,14,2,20,4,6176,2,0.7254955,10.32409,3.950321,-1
26,M,1,1,5,15,4,17,1,5220,0,0.304629,10.3146,1.659064,-1
26,M,1,1,5,16,1,18,2,2676,0,0.4682007,6.539847,3.951064,-1
26,M,1,1,6,1,3,23,3,4009,1,0.1417222,6.1364,1.259432,-1
26,M,1,1,6,2,4,22,2,5397,0,0.7803729,10.45767,4.128819,-1
26,M,1,1,6,3,4,21,1,2120,0,0.8413491,10.29241,4.61694,-1
26,M,1,1,6,4,1,22,2,2465,0,0.512504,6.543956,4.323048,-1
26,M,1,1,6,5,2,23,3,1753,0,0.6991706,10.21262,3.891135,-1
26,M,1,1,6,6,2,24,4,2442,1,0.730697,10.32032,3.9279,-1
26,M,1,1,6,7,3,21,1,2554,1,0.2927629,6.436433,2.491358,-1
26,M,1,1,6,8,1,24,4,5353,3,0.3410185,6.334816,2.918865,-1
26,M,1,1,6,9,4,23,3,2376,0,0.09624374,10.21385,0.5282311,-1
26,M,1,1,6,10,2,21,1,2042,0,0.4550368,10.31476,2.453517,-1
26,M,1,1,6,11,4,24,4,3353,2,0.2521029,10.31268,1.356529,-1
26,M,1,1,6,12,3,22,2,2265,0,0.1799142,6.543078,1.516461,-1
26,M,1,1,6,13,1,23,3,3965,0,0.3226281,6.131322,2.875418,-1
26,M,1,1,6,14,2,22,2,1665,0,0.4832702,10.48637,2.583917,-1
26,M,1,1,6,15,1,21,1,1664,0,0.2936809,6.453509,2.506084,-1
26,M,1,1,6,16,3,24,4,3587,1,0.3294939,6.333253,2.860402,-1
26,M,1,1,7,1,1,26,2,3754,1,0.3221166,6.540387,2.691737,-1
26,M,1,1,7,2,2,28,4,2131,0,0.8679538,10.30995,4.681613,-1
26,M,1,1,7,3,1,25,1,1665,0,0.4213115,6.452189,3.597062,-1
26,M,1,1,7,4,3,28,4,9999,3,-1,-1,-1,-1
26,M,1,1,7,5,4,25,1,2076,0,0.4303792,10.2707,2.345602,-1
26,M,1,1,7,6,4,27,3,3909,0,6.619002E-08,10.21824,0,-1
26,M,1,1,7,7,3,25,1,1687,0,0.1222029,6.437397,1.043427,-1
26,M,1,1,7,8,2,27,3,2009,0,0.4537358,10.22114,2.496616,-1
26,M,1,1,7,9,1,28,4,3587,1,0.3367746,6.336216,2.907845,-1
26,M,1,1,7,10,3,26,2,3476,0,0.4564052,6.549587,3.846086,-1
26,M,1,1,7,11,4,28,4,2198,0,0.8768355,10.31305,4.707776,-1
26,M,1,1,7,12,2,26,2,7831,0,0.6349896,10.49428,3.358588,-1
26,M,1,1,7,13,2,25,1,1643,0,0.8327412,10.31929,4.553071,-1
26,M,1,1,7,14,1,27,3,4087,0,0.194001,6.116421,1.718967,-1
26,M,1,1,7,15,4,26,2,3976,0,0.7040483,10.51058,3.735387,-1
26,M,1,1,7,16,3,27,3,1887,0,0.4913406,6.125099,4.367446,-1
26,M,1,1,8,1,4,29,1,1409,0,0.7289323,10.30443,3.996059,-1
26,M,1,1,8,2,2,31,3,2209,0,0.013534,10.2161,0.07401875,-1
26,M,1,1,8,3,4,32,4,2420,1,0.7632903,10.33935,4.119607,-1
26,M,1,1,8,4,1,29,1,1620,0,0.4858043,6.468088,4.139099,-1
26,M,1,1,8,5,1,32,4,3098,1,0.3909963,6.334765,3.377364,-1
26,M,1,1,8,6,3,30,2,2042,1,0.5354546,6.554804,4.444133,-1
26,M,1,1,8,7,3,31,3,2042,0,0.269991,6.103524,2.376029,-1
26,M,1,1,8,8,2,30,2,5686,1,0.7193855,10.48334,3.809406,-1
26,M,1,1,8,9,1,31,3,4598,2,0.5036005,6.108116,4.576158,-1
26,M,1,1,8,10,2,29,1,2454,1,0.8499922,10.31715,4.638527,-1
26,M,1,1,8,11,1,30,2,2431,0,0.5289644,6.553967,4.392577,-1
26,M,1,1,8,12,3,29,1,2320,1,0.4936098,6.442281,4.211753,-1
26,M,1,1,8,13,2,32,4,9999,7,-1,-1,-1,-1
26,M,1,1,8,14,4,31,3,1464,0,0.6402505,10.20709,3.565955,-1
26,M,1,1,8,15,4,30,2,2242,0,0.5166047,10.46928,2.732013,-1
26,M,1,1,8,16,3,32,4,7320,6,0.3473668,6.333093,2.972758,-1
26,M,1,1,9,1,4,34,2,6664,4,0.7477816,10.53555,3.954829,-1
26,M,1,1,9,2,1,36,4,4420,3,0.4768675,6.332158,4.120368,-1
26,M,1,1,9,3,2,34,2,6953,0,0.4445956,10.53273,2.342513,-1
26,M,1,1,9,4,1,35,3,4587,1,0.33924,6.113626,3.007652,-1
26,M,1,1,9,5,2,33,1,1931,0,0.4694528,10.36166,2.520415,-1
26,M,1,1,9,6,4,35,3,1620,0,0.08263921,10.20537,0.4524074,-1
26,M,1,1,9,7,2,36,4,2175,1,0.362876,10.3327,1.951138,-1
26,M,1,1,9,8,3,34,2,2153,0,0.384922,6.586275,3.175703,-1
26,M,1,1,9,9,3,36,4,2542,1,0.2776199,6.329688,2.416218,-1
26,M,1,1,9,10,2,35,3,1787,0,0.1398623,10.23796,0.7671934,-1
26,M,1,1,9,11,4,33,1,1820,0,0.4425569,10.34592,2.403059,-1
26,M,1,1,9,12,4,36,4,1631,0,0.369009,10.31368,1.98031,-1
26,M,1,1,9,13,1,33,1,1953,0,0.5411048,6.509388,4.583514,-1
26,M,1,1,9,14,1,34,2,1764,0,0.1286997,6.591608,1.066612,-1
26,M,1,1,9,15,3,35,3,2953,1,0.4000706,6.115231,3.553855,-1
26,M,1,1,9,16,3,33,1,2331,0,0.07587925,6.492489,0.6416347,-1
26,M,1,1,10,1,2,39,3,2420,0,0.4314887,10.22709,2.384252,-1
26,M,1,1,10,2,2,40,4,1387,0,0.7586661,10.33385,4.081543,-1
26,M,1,1,10,3,3,37,1,2109,0,0.2149441,6.510943,1.821772,-1
26,M,1,1,10,4,4,39,3,1664,0,0.5601949,10.20846,3.050821,-1
26,M,1,1,10,5,4,38,2,3020,1,0.4813062,10.53561,2.537365,-1
26,M,1,1,10,6,2,37,1,1942,0,0.7068397,10.36173,3.839614,-1
26,M,1,1,10,7,4,40,4,6620,0,0.2715901,10.35036,1.461793,-1
26,M,1,1,10,8,1,38,2,1998,0,0.09163596,6.602366,0.7587299,-1
26,M,1,1,10,9,3,40,4,3465,0,0.537648,6.347466,4.695943,-1
26,M,1,1,10,10,1,37,1,2242,0,0.133955,6.520273,1.130904,-1
26,M,1,1,10,11,1,39,3,3142,0,0.3835192,6.124109,3.394999,-1
26,M,1,1,10,12,1,40,4,3987,1,0.2407706,6.331177,2.079143,-1
26,M,1,1,10,13,2,38,2,2309,0,0.003853988,10.5444,0,-1
26,M,1,1,10,14,4,37,1,2253,0,0.6724524,10.32824,3.583646,-1
26,M,1,1,10,15,3,39,3,3231,1,0.1890383,6.108793,1.666714,-1
26,M,1,1,10,16,3,38,2,2354,0,0.1020984,6.609255,0.8444148,-1
26,M,1,1,11,1,3,44,4,4153,1,0.2991731,6.342313,2.612994,-1
26,M,1,1,11,2,2,43,3,1475,0,0.4333879,10.24144,2.38458,-1
26,M,1,1,11,3,2,42,2,7031,1,0.5856507,10.54072,3.084134,-1
26,M,1,1,11,4,2,41,1,2998,1,0.7901653,10.36712,4.301839,-1
26,M,1,1,11,5,4,42,2,2665,0,0.5727767,10.51966,3.004004,-1
26,M,1,1,11,6,2,44,4,1865,0,0.6661948,10.33814,3.579984,-1
26,M,1,1,11,7,3,43,3,2520,1,0.3460119,6.124632,3.062477,-1
26,M,1,1,11,8,4,41,1,3487,0,0.6772318,10.27199,3.71868,-1
26,M,1,1,11,9,4,44,4,3809,1,0.4725998,10.35632,2.545298,-1
26,M,1,1,11,10,3,41,1,4187,1,0.5401078,6.432869,4.596871,-1
26,M,1,1,11,11,4,43,3,4487,0,0.1776772,10.24447,0.9743798,-1
26,M,1,1,11,12,1,44,4,3265,1,0.3649708,6.359425,3.140057,-1
26,M,1,1,11,13,1,42,2,3620,0,0.5173087,6.55439,4.356715,-1
26,M,1,1,11,14,1,43,3,1665,0,0.2830737,6.141623,2.498967,-1
26,M,1,1,11,15,3,42,2,3653,0,0.2777687,6.535329,2.329946,-1
26,M,1,1,11,16,1,41,1,2376,0,0.2176375,6.470736,1.856251,-1
26,M,1,1,12,1,2,48,4,2098,1,0.6300685,10.35101,3.383561,-1
26,M,1,1,12,2,4,45,1,1820,0,0.6036522,10.33354,3.291345,-1
26,M,1,1,12,3,3,47,3,1709,0,0.2262141,6.133927,1.984456,-1
26,M,1,1,12,4,4,46,2,3287,0,0.4007605,10.4893,2.107379,-1
26,M,1,1,12,5,2,45,1,1598,0,0.8673455,10.34174,4.708525,-1
26,M,1,1,12,6,2,46,2,2187,0,0.730555,10.50985,3.859047,-1
26,M,1,1,12,7,1,48,4,3565,1,0.4988373,6.342773,4.304706,-1
26,M,1,1,12,8,1,45,1,1898,0,0.5405148,6.490389,4.590475,-1
26,M,1,1,12,9,3,46,2,5098,1,0.2755921,6.578541,2.311053,-1
26,M,1,1,12,10,3,45,1,2486,1,0.3631991,6.45373,3.104569,-1
26,M,1,1,12,11,3,48,4,3654,1,0.2898305,6.362002,2.51178,-1
26,M,1,1,12,12,1,47,3,3087,0,0.5133737,6.143964,4.584455,-1
26,M,1,1,12,13,1,46,2,3287,0,0.4002898,6.578024,3.340468,-1
26,M,1,1,12,14,4,47,3,3786,0,0.2122743,10.25404,1.164829,-1
26,M,1,1,12,15,4,48,4,2509,0,0.4753921,10.34289,2.552363,-1
26,M,1,1,12,16,2,47,3,2242,0,0.5777238,10.25131,3.160254,-1
26,M,1,1,13,1,3,49,1,1831,0,0.4431865,6.453405,3.770605,-1
26,M,1,1,13,2,3,51,3,1476,0,5.851427E-08,6.198754,0,-1
26,M,1,1,13,3,3,50,2,1987,0,0.2857721,6.557023,2.368934,-1
26,M,1,1,13,4,2,49,1,2976,0,0.3282735,10.37747,1.760475,-1
26,M,1,1,13,5,4,50,2,1420,0,0.4942226,10.54018,2.604139,-1
26,M,1,1,13,6,2,51,3,2587,1,0.3277258,10.30007,1.792205,-1
26,M,1,1,13,7,2,52,4,3542,2,0.4914576,10.41577,2.615614,-1
26,M,1,1,13,8,4,49,1,5642,3,0.8704723,10.37472,4.713847,-1
26,M,1,1,13,9,3,52,4,1831,0,0.5215182,6.4266,4.40371,-1
26,M,1,1,13,10,1,51,3,2242,0,0.2735566,6.212086,2.397106,-1
26,M,1,1,13,11,2,50,2,8553,1,0.891651,10.54205,4.697528,-1
26,M,1,1,13,12,4,52,4,2609,1,0.6273577,10.42872,3.356839,-1
26,M,1,1,13,13,4,51,3,1786,0,0.3541923,10.32222,1.922543,-1
26,M,1,1,13,14,1,49,1,7620,4,0.5368021,6.489628,4.601641,-1
26,M,1,1,13,15,1,52,4,3387,1,0.4595453,6.422165,3.917567,-1
26,M,1,1,13,16,1,50,2,2609,1,0.4537119,6.591458,3.746693,-1
26,M,1,1,14,1,4,55,3,2020,0,0.6616794,10.29527,3.653609,-1
26,M,1,1,14,2,4,54,2,2476,2,0.4553653,10.55803,2.395309,-1
26,M,1,1,14,3,4,56,4,1820,1,0.8653796,10.41449,4.618721,-1
26,M,1,1,14,4,2,54,2,2187,0,0.398755,10.55536,2.096392,-1
26,M,1,1,14,5,3,55,3,3387,1,0.1766726,6.207698,1.56448,-1
26,M,1,1,14,6,2,53,1,1998,0,0.7819157,10.38656,4.190169,-1
26,M,1,1,14,7,1,55,3,1542,0,0.1796631,6.209475,1.569351,-1
26,M,1,1,14,8,3,54,2,1720,0,0.2997523,6.585466,2.498027,-1
26,M,1,1,14,9,3,53,1,2342,1,0.3774535,6.485275,3.1885,-1
26,M,1,1,14,10,3,56,4,3787,0,0.4519216,6.425,3.87919,-1
26,M,1,1,14,11,1,53,1,1498,0,0.5218692,6.506218,4.461815,-1
26,M,1,1,14,12,1,54,2,4420,1,0.3764538,6.594241,3.149768,-1
26,M,1,1,14,13,2,56,4,1965,1,0.4380933,10.42018,2.331625,-1
26,M,1,1,14,14,2,55,3,2164,0,0.719276,10.29573,3.980642,-1
26,M,1,1,14,15,4,53,1,2353,0,0.7159642,10.36913,3.879997,-1
26,M,1,1,14,16,1,56,4,2931,1,0.2086548,6.424758,1.772772,-1
26,M,1,1,15,1,3,58,2,1865,0,0.3053825,6.58854,2.543913,-1
26,M,1,1,15,2,4,60,4,1276,0,0.8889313,10.43535,4.774258,-1
26,M,1,1,15,3,1,59,3,2153,0,5.037778E-08,6.217654,0,-1
26,M,1,1,15,4,3,60,4,2365,0,0.5301167,6.440198,4.565616,-1
26,M,1,1,15,5,2,59,3,1720,0,0.3874852,10.29001,2.116369,-1
26,M,1,1,15,6,2,57,1,8331,5,0.8432021,10.38169,4.525498,-1
26,M,1,1,15,7,4,59,3,5376,0,0.8442219,10.26988,4.619528,-1
26,M,1,1,15,8,4,57,1,5609,4,0.6586322,10.36999,3.552422,-1
26,M,1,1,15,9,2,60,4,3498,1,0.8404,10.41646,4.48751,-1
26,M,1,1,15,10,4,58,2,2065,0,0.7025638,10.5616,3.690986,-1
26,M,1,1,15,11,1,57,1,2842,1,0.1830204,6.503919,1.552426,-1
26,M,1,1,15,12,2,58,2,4709,1,0.5418777,10.56678,2.84627,-1
26,M,1,1,15,13,3,57,1,1853,0,0.3786944,6.49403,3.197819,-1
26,M,1,1,15,14,3,59,3,2331,0,0.2747074,6.197082,2.382281,-1
26,M,1,1,15,15,1,58,2,3642,4,0.5431812,6.589979,4.518871,-1
26,M,1,1,15,16,1,60,4,3220,1,0.3670536,6.447092,3.11659,-1
26,M,1,1,16,1,3,62,2,1642,0,0.324632,6.586318,2.684965,-1
26,M,1,1,16,2,2,63,3,1887,0,0.3515182,10.3137,1.922034,-1
26,M,1,1,16,3,4,61,1,1165,0,0.4464248,10.34653,2.39081,-1
26,M,1,1,16,4,4,64,4,3231,0,0.6274995,10.42206,3.329549,-1
26,M,1,1,16,5,4,62,2,4509,1,0.733476,10.58048,3.866397,-1
26,M,1,1,16,6,1,63,3,4142,0,3.062517E-08,6.23279,0,-1
26,M,1,1,16,7,1,61,1,9120,17,0.2098506,6.48788,1.785422,-1
26,M,1,1,16,8,3,63,3,2676,0,0.2780488,6.228914,2.422689,-1
26,M,1,1,16,9,1,64,4,3776,3,0.3260192,6.449356,2.739526,-1
26,M,1,1,16,10,2,61,1,7909,6,0.8295636,10.37709,4.497015,-1
26,M,1,1,16,11,2,64,4,2187,0,0.6781091,10.42882,3.615521,-1
26,M,1,1,16,12,1,62,2,1798,1,0.5103224,6.587779,4.215704,-1
26,M,1,1,16,13,4,63,3,1342,0,0.5453303,10.33241,2.997546,-1
26,M,1,1,16,14,3,61,1,1576,0,0.4214046,6.501691,3.593413,-1
26,M,1,1,16,15,2,62,2,2231,1,0.767562,10.55523,4.033083,-1
26,M,1,1,16,16,3,64,4,4365,1,0.3291149,6.462995,2.821749,-1
26,M,1,1,17,1,2,66,2,3576,0,0.7838845,10.55466,4.119274,-1
26,M,1,1,17,2,2,67,3,1342,0,1.187203E-07,10.33174,0,-1
26,M,1,1,17,3,1,68,4,3098,1,0.478049,6.463775,4.050526,-1
26,M,1,1,17,4,4,65,1,1576,0,0.3306729,10.37659,1.780262,-1
26,M,1,1,17,5,1,67,3,2142,0,0.2520966,6.23412,2.222639,-1
26,M,1,1,17,6,3,68,4,2809,0,0.04507181,6.477584,0.3800071,-1
26,M,1,1,17,7,3,65,1,1542,0,0.137111,6.48855,1.156737,-1
26,M,1,1,17,8,1,66,2,2253,0,0.2290123,6.594724,1.912746,-1
26,M,1,1,17,9,1,65,1,1298,0,0.2339285,6.498791,1.987117,-1
26,M,1,1,17,10,3,67,3,1420,0,0.3529644,6.248907,3.076508,-1
26,M,1,1,17,11,2,68,4,1431,0,0.4381298,10.4534,2.324395,-1
26,M,1,1,17,12,3,66,2,1376,0,0.149331,6.578262,1.236539,-1
26,M,1,1,17,13,4,67,3,1476,0,0.3978944,10.34473,2.175739,-1
26,M,1,1,17,14,4,66,2,1242,0,0.6337734,10.56246,3.369297,-1
26,M,1,1,17,15,2,65,1,1465,0,0.7230623,10.38912,3.932086,-1
26,M,1,1,17,16,4,68,4,1498,0,0.6455765,10.42735,3.42354,-1
26,M,1,1,18,1,4,69,1,1287,0,0.8164227,10.36222,4.458214,-1
26,M,1,1,18,2,2,71,3,1331,0,0.1198558,10.32317,0.6513204,-1
26,M,1,1,18,3,3,70,2,1798,0,0.09716383,6.57566,0.8096339,-1
26,M,1,1,18,4,1,72,4,1509,0,0.4176075,6.459123,3.505037,-1
26,M,1,1,18,5,2,70,2,2120,0,0.2714125,10.55948,1.42615,-1
26,M,1,1,18,6,2,69,1,2798,2,0.8612167,10.38423,4.709523,-1
26,M,1,1,18,7,4,70,2,1931,0,0.7860556,10.55953,4.136448,-1
26,M,1,1,18,8,1,69,1,2842,1,0.4786631,6.49912,4.057337,-1
26,M,1,1,18,9,3,71,3,1553,0,0.2049155,6.24554,1.784216,-1
26,M,1,1,18,10,3,72,4,3365,1,0.2283639,6.467965,1.929148,-1
26,M,1,1,18,11,1,70,2,2053,1,0.4212263,6.583401,3.518084,-1
26,M,1,1,18,12,2,72,4,1309,0,0.6883676,10.4515,3.649426,-1
26,M,1,1,18,13,1,71,3,1631,0,0.499578,6.240728,4.354602,-1
26,M,1,1,18,14,4,72,4,4609,0,0.6717728,10.42734,3.55815,-1
26,M,1,1,18,15,4,71,3,1176,0,0.4502474,10.29369,2.463707,-1
26,M,1,1,18,16,3,69,1,2720,0,0.4608823,6.460852,3.894807,-1
26,M,1,1,19,1,2,75,3,1387,0,0.3029575,10.32691,1.655522,-1
26,M,1,1,19,2,3,73,1,1331,0,0.3509342,6.483284,2.988062,-1
26,M,1,1,19,3,2,74,2,3565,0,0.6109191,10.56562,3.208576,-1
26,M,1,1,19,4,2,73,1,3342,4,0.8619359,10.38553,4.668121,-1
26,M,1,1,19,5,1,74,2,2187,0,0.4668692,6.590944,3.898928,-1
26,M,1,1,19,6,3,75,3,1320,0,0.02005117,6.247579,0.1735894,-1
26,M,1,1,19,7,4,76,4,1898,0,0.8257833,10.4679,4.390436,-1
26,M,1,1,19,8,1,73,1,1431,0,0.4722684,6.497359,4.035025,-1
26,M,1,1,19,9,1,75,3,1365,0,0.07057232,6.246989,0.6189722,-1
26,M,1,1,19,10,3,76,4,4076,1,0.2094425,6.468266,1.757917,-1
26,M,1,1,19,11,4,75,3,1409,0,0.382221,10.30078,2.069992,-1
26,M,1,1,19,12,1,76,4,3287,1,0.2390669,6.470524,2.008766,-1
26,M,1,1,19,13,3,74,2,3642,0,0.1956012,6.574003,1.630389,-1
26,M,1,1,19,14,2,76,4,1398,0,0.604581,10.45229,3.205279,-1
26,M,1,1,19,15,4,73,1,1453,0,0.8581262,10.34396,4.685211,-1
26,M,1,1,19,16,4,74,2,2453,0,0.6273824,10.53516,3.296634,-1
26,M,1,1,20,1,4,79,3,1253,0,0.5331162,10.32695,2.922082,-1
26,M,1,1,20,2,3,78,2,2365,0,0.4459924,6.5906,3.733657,-1
26,M,1,1,20,3,4,77,1,3764,3,0.2412277,10.3568,1.304313,-1
26,M,1,1,20,4,4,80,4,1531,0,0.5063426,10.43574,2.719158,-1
26,M,1,1,20,5,1,78,2,3453,0,0.1161689,6.596618,0.9707584,-1
26,M,1,1,20,6,2,77,1,1642,0,0.8137169,10.38935,4.403488,-1
26,M,1,1,20,7,3,79,3,5098,0,1.620752E-07,6.273902,0.01978234,-1
26,M,1,1,20,8,3,80,4,2120,0,0.3897688,6.470832,3.318417,-1
26,M,1,1,20,9,1,77,1,3175,1,0.2267602,6.499628,1.926915,-1
26,M,1,1,20,10,2,79,3,1676,0,0.1891285,10.33123,1.028315,-1
26,M,1,1,20,11,1,80,4,2998,1,0.1605067,6.474387,1.356673,-1
26,M,1,1,20,12,3,77,1,1553,0,0.3769033,6.474649,3.213331,-1
26,M,1,1,20,13,2,78,2,1742,0,0.1224057,10.5634,0.644677,-1
26,M,1,1,20,14,2,80,4,1787,0,0.2625607,10.46029,1.393953,-1
26,M,1,1,20,15,4,78,2,1420,0,0.8905949,10.54113,4.676464,-1
26,M,1,1,20,16,1,79,3,2020,0,0.2452062,6.259644,2.136067,-1
26,M,1,1,21,1,2,81,1,1253,0,0.7485439,10.39933,4.006191,-1
26,M,1,1,21,2,3,84,4,2020,1,0.2630905,6.471341,2.206289,-1
26,M,1,1,21,3,1,81,1,1587,0,0.369533,6.508938,3.125622,-1
26,M,1,1,21,4,4,83,3,1342,0,0.1961111,10.35369,1.066795,-1
26,M,1,1,21,5,4,82,2,5620,2,0.290439,10.55738,1.528927,-1
26,M,1,1,21,6,2,83,3,1587,0,0.3475454,10.32729,1.897748,-1
26,M,1,1,21,7,2,84,4,1320,0,0.3608002,10.46128,1.92996,-1
26,M,1,1,21,8,1,83,3,1831,0,0.08267527,6.251155,0.7209076,-1
26,M,1,1,21,9,3,81,1,1853,0,0.5183226,6.478816,4.379045,-1
26,M,1,1,21,10,1,82,2,2165,0,0.3543824,6.596617,2.963458,-1
26,M,1,1,21,11,1,84,4,2931,1,0.08203838,6.473826,0.6926687,-1
26,M,1,1,21,12,3,82,2,1631,0,0.08923956,6.581604,0.7399282,-1
26,M,1,1,21,13,4,84,4,7731,2,0.009113506,10.43985,0.04845664,-1
26,M,1,1,21,14,4,81,1,2487,2,0.4126953,10.37895,2.237122,-1
26,M,1,1,21,15,3,83,3,2531,0,0.4175861,6.270293,3.646689,-1
26,M,1,1,21,16,2,82,2,1675,0,0.1374203,10.57542,0.7217214,-1
26,M,1,1,22,1,2,87,3,2431,0,6.643098E-08,10.34268,0,-1
26,M,1,1,22,2,2,88,4,1731,0,0.2039735,10.46184,1.083359,-1
26,M,1,1,22,3,2,86,2,2853,0,0.06790266,10.57827,0.3577275,-1
26,M,1,1,22,4,2,85,1,1865,0,0.5629194,10.39308,3.053386,-1
26,M,1,1,22,5,1,88,4,3142,0,5.737719E-08,6.463503,0,-1
26,M,1,1,22,6,3,86,2,2176,0,0.1897624,6.592731,1.564856,-1
26,M,1,1,22,7,1,85,1,1609,0,0.2671793,6.511817,2.266932,-1
26,M,1,1,22,8,3,87,3,2220,0,0.1210134,6.247566,1.066429,-1
26,M,1,1,22,9,4,85,1,1942,1,0.2067738,10.37362,1.11645,-1
26,M,1,1,22,10,1,86,2,3320,0,0.3031871,6.611505,2.529639,-1
26,M,1,1,22,11,3,88,4,4809,1,0.3240296,6.455689,2.721461,-1
26,M,1,1,22,12,4,87,3,1364,0,0.1413481,10.33407,0.7679582,-1
26,M,1,1,22,13,4,86,2,1509,0,0.07161833,10.56001,0.3763854,-1
26,M,1,1,22,14,1,87,3,1465,0,8.729577E-08,6.247874,0,-1
26,M,1,1,22,15,3,85,1,2742,0,0.4071524,6.503136,3.426056,-1
26,M,1,1,22,16,4,88,4,2453,0,0.2082906,10.47241,1.109241,-1
26,M,1,1,23,1,3,89,1,2509,0,0.3495491,6.497312,2.915442,-1
26,M,1,1,23,2,3,90,2,1676,0,0.02377394,6.597795,0.1968319,-1
26,M,1,1,23,3,3,92,4,3387,1,0.3834637,6.478651,3.279367,-1
26,M,1,1,23,4,4,91,3,1153,0,0.2933651,10.33893,1.583997,-1
26,M,1,1,23,5,1,90,2,1309,0,1.61974E-07,6.616023,0,-1
26,M,1,1,23,6,1,92,4,3754,2,1.461955E-07,6.468395,0,-1
26,M,1,1,23,7,3,91,3,2120,0,0.5267128,6.255112,4.607937,-1
26,M,1,1,23,8,1,89,1,1520,0,0.1629906,6.522828,1.378992,-1
26,M,1,1,23,9,2,91,3,1553,0,0.570393,10.33457,3.125622,-1
26,M,1,1,23,10,4,92,4,3553,0,0.8344683,10.45182,4.423724,-1
26,M,1,1,23,11,4,90,2,2331,0,0.7855347,10.56294,4.097633,-1
26,M,1,1,23,12,2,89,1,1387,0,0.2916557,10.40408,1.563479,-1
26,M,1,1,23,13,2,90,2,2753,0,0.522513,10.57655,2.741954,-1
26,M,1,1,23,14,2,92,4,1520,0,4.655355E-08,10.45915,0,-1
26,M,1,1,23,15,1,91,3,2120,0,0.3910659,6.240673,3.4022,-1
26,M,1,1,23,16,4,89,1,1831,1,0.3793236,10.38609,2.050041,-1
26,M,1,1,24,1,3,94,2,1597,0,0.422988,6.612991,3.529308,-1
26,M,1,1,24,2,4,96,4,1787,0,0.5346584,10.47623,2.833725,-1
26,M,1,1,24,3,1,93,1,1720,0,0.04229213,6.527601,0.3566318,-1
26,M,1,1,24,4,2,96,4,1665,0,0.3551495,10.45998,1.8872,-1
26,M,1,1,24,5,2,94,2,2953,0,0.412658,10.58034,2.164375,-1
26,M,1,1,24,6,1,95,3,4065,1,0.2232203,6.244702,1.939771,-1
26,M,1,1,24,7,4,94,2,2042,0,0.7535784,10.58497,4.017905,-1
26,M,1,1,24,8,3,95,3,1653,0,0.2763332,6.22555,2.388844,-1
26,M,1,1,24,9,3,96,4,2487,1,0.5331138,6.46102,4.556598,-1
26,M,1,1,24,10,1,94,2,1387,0,0.4312674,6.616775,3.596626,-1
26,M,1,1,24,11,4,93,1,1720,0,0.1498791,10.36481,0.8023506,-1
26,M,1,1,24,12,2,95,3,1398,0,0.08742322,10.33189,0.4743652,-1
26,M,1,1,24,13,2,93,1,1876,1,0.648307,10.4084,3.47384,-1
26,M,1,1,24,14,4,95,3,1020,0,4.173456E-08,10.33492,0,-1
26,M,1,1,24,15,3,93,1,1665,0,0.0759563,6.514493,0.6382713,-1
26,M,1,1,24,16,1,96,4,2465,0,0.5038344,6.457934,4.272556,-1
26,M,1,1,25,1,3,99,3,2320,2,0.2488992,6.261192,2.170154,-1
26,M,1,1,25,2,1,98,2,1098,0,0.4976673,6.599245,4.16189,-1
26,M,1,1,25,3,2,97,1,2387,2,0.4722532,10.38769,2.560708,-1
26,M,1,1,25,4,3,98,2,3287,2,0.3361311,6.627164,2.797993,-1
26,M,1,1,25,5,1,100,4,7409,2,0.3575404,6.485391,3.02705,-1
26,M,1,1,25,6,4,98,2,1109,0,0.3823431,10.57825,2.003693,-1
26,M,1,1,25,7,4,100,4,7031,3,0.65279,10.45406,3.448725,-1
26,M,1,1,25,8,1,99,3,2476,1,0.2230248,6.26107,1.940578,-1
26,M,1,1,25,9,1,97,1,1320,0,1.057691E-07,6.526304,0,-1
26,M,1,1,25,10,2,100,4,1409,0,0.7097854,10.47231,3.769359,-1
26,M,1,1,25,11,4,97,1,1520,0,0.8025861,10.39839,4.280112,-1
26,M,1,1,25,12,2,98,2,7964,6,0.1592299,10.59136,0.8353283,-1
26,M,1,1,25,13,3,100,4,2553,1,0.5075715,6.494018,4.327486,-1
26,M,1,1,25,14,4,99,3,1398,0,0.5409903,10.3708,2.916047,-1
26,M,1,1,25,15,3,97,1,1287,0,0.2117047,6.524887,1.786408,-1
26,M,1,1,25,16,2,99,3,1531,0,8.427124E-08,10.34814,0.01978234,-1
26,M,1,1,26,1,3,104,4,3198,0,0.5187427,6.466971,4.392934,-1
26,M,1,1,26,2,3,102,2,2009,2,0.3539722,6.605302,2.912755,-1
26,M,1,1,26,3,1,103,3,1298,0,0.1767681,6.242069,1.54611,-1
26,M,1,1,26,4,3,101,1,8109,4,0.1404466,6.497347,1.176862,-1
26,M,1,1,26,5,2,104,4,1320,0,0.6543124,10.47054,3.462437,-1
26,M,1,1,26,6,2,101,1,1387,0,0.81468,10.40916,4.397835,-1
26,M,1,1,26,7,3,103,3,2531,0,0.4905822,6.286907,4.286469,-1
26,M,1,1,26,8,1,102,2,1231,0,0.3961933,6.620385,3.301797,-1
26,M,1,1,26,9,1,101,1,1265,0,0.3584147,6.522606,3.026339,-1
26,M,1,1,26,10,2,103,3,1209,0,0.04831667,10.34806,0.2609472,-1
26,M,1,1,26,11,2,102,2,6142,0,0.6811731,10.58682,3.572154,-1
26,M,1,1,26,12,4,103,3,1454,0,0.3020732,10.30978,1.64461,-1
26,M,1,1,26,13,4,104,4,1865,0,0.8480945,10.46925,4.503283,-1
26,M,1,1,26,14,4,102,2,1753,0,0.4421956,10.56937,2.31824,-1
26,M,1,1,26,15,4,101,1,1131,0,0.8338931,10.41346,4.458214,-1
26,M,1,1,26,16,1,104,4,2220,0,0.4941028,6.488574,4.170867,-1
26,M,1,1,27,1,4,106,2,1354,0,0.6119762,10.61411,3.205401,-1
26,M,1,1,27,2,1,107,3,2087,1,1.059178E-07,6.263722,0,-1
26,M,1,1,27,3,1,106,2,1265,0,0.1735997,6.622711,1.445639,-1
26,M,1,1,27,4,4,105,1,1409,0,0.7488142,10.39175,3.992481,-1
26,M,1,1,27,5,4,108,4,1365,0,0.4860154,10.47224,2.580051,-1
26,M,1,1,27,6,2,107,3,1420,0,0.2863776,10.34271,1.557083,-1
26,M,1,1,27,7,1,105,1,5053,1,0.3257253,6.527318,2.759815,-1
26,M,1,1,27,8,3,107,3,2053,0,0.3293935,6.243676,2.848676,-1
26,M,1,1,27,9,3,108,4,2498,0,0.4405888,6.477564,3.724468,-1
26,M,1,1,27,10,4,107,3,3920,0,0.04094669,10.34851,0.2220564,-1
26,M,1,1,27,11,1,108,4,2976,1,0.1611769,6.478097,1.361425,-1
26,M,1,1,27,12,3,105,1,1431,0,1.235415E-07,6.518895,0,-1
26,M,1,1,27,13,3,106,2,2087,0,0.5563394,6.624279,4.636458,-1
26,M,1,1,27,14,2,105,1,1442,0,0.6299011,10.4131,3.377596,-1
26,M,1,1,27,15,2,108,4,1331,0,0.3489147,10.47567,1.851395,-1
26,M,1,1,27,16,2,106,2,2153,0,0.762515,10.5884,3.998754,-1
26,M,1,1,28,1,1,111,3,2297,0,0.3702755,6.263032,3.222883,-1
26,M,1,1,28,2,2,109,1,3276,2,0.724525,10.41058,3.924459,-1
26,M,1,1,28,3,2,111,3,8264,1,0.08969001,10.35291,0.4849715,-1
26,M,1,1,28,4,3,112,4,2298,0,0.02822285,6.479887,0.2382111,-1
26,M,1,1,28,5,3,109,1,2076,1,0.1242042,6.509644,1.044739,-1
26,M,1,1,28,6,4,111,3,1787,0,2.168197E-07,10.34806,0,-1
26,M,1,1,28,7,2,110,2,3331,0,0.53988,10.59683,2.827016,-1
26,M,1,1,28,8,1,109,1,1965,1,0.3063973,6.52864,2.584447,-1
26,M,1,1,28,9,4,112,4,1420,0,0.5140517,10.46831,2.721389,-1
26,M,1,1,28,10,3,110,2,4065,0,0.5622988,6.60839,4.673238,-1
26,M,1,1,28,11,2,112,4,2087,0,0.4545836,10.47793,2.438553,-1
26,M,1,1,28,12,4,110,2,1798,1,0.8072567,10.56817,4.227395,-1
26,M,1,1,28,13,1,112,4,3442,1,0.1911745,6.479227,1.608152,-1
26,M,1,1,28,14,4,109,1,1242,0,0.512126,10.37534,2.716637,-1
26,M,1,1,28,15,3,111,3,2353,1,0.4277223,6.259001,3.728882,-1
26,M,1,1,28,16,1,110,2,1187,0,0.09328257,6.630826,0.7758168,-1
26,M,1,1,29,1,1,113,1,1153,0,0.5153896,6.535367,4.345867,-1
26,M,1,1,29,2,4,115,3,1076,0,0.4008051,10.3504,2.161298,-1
26,M,1,1,29,3,4,113,1,920,0,0.6345755,10.42098,3.392576,-1
26,M,1,1,29,4,3,114,2,1609,1,0.5031577,6.605653,4.182356,-1
26,M,1,1,29,5,1,116,4,2820,1,0.5094081,6.479867,4.294366,-1
26,M,1,1,29,6,1,114,2,1276,0,0.4625216,6.612093,3.843794,-1
26,M,1,1,29,7,1,115,3,2953,1,0.2934623,6.272717,2.553436,-1
26,M,1,1,29,8,2,114,2,3731,1,0.2430978,10.58783,1.276716,-1
26,M,1,1,29,9,3,116,4,2098,0,0.4858332,6.486396,4.13228,-1
26,M,1,1,29,10,3,115,3,1976,0,0.2268929,6.259577,1.977838,-1
26,M,1,1,29,11,2,116,4,1431,0,0.4057496,10.47728,2.151314,-1
26,M,1,1,29,12,3,113,1,1120,0,0.4537521,6.509243,3.81957,-1
26,M,1,1,29,13,4,114,2,1509,0,0.6054631,10.59395,3.174902,-1
26,M,1,1,29,14,2,115,3,1287,0,6.252461E-08,10.35262,0,-1
26,M,1,1,29,15,4,116,4,1865,1,0.09697124,10.47692,0.5135812,-1
26,M,1,1,29,16,2,113,1,1253,0,0.3706523,10.4222,1.980507,-1
26,M,1,1,30,1,4,119,3,1375,0,1.776162E-07,10.31791,0,-1
26,M,1,1,30,2,4,118,2,1776,0,0.4032281,10.59432,2.114333,-1
26,M,1,1,30,3,2,120,4,1520,0,0.09656313,10.48375,0.5124369,-1
26,M,1,1,30,4,2,119,3,1142,0,0.1428749,10.34681,0.7720242,-1
26,M,1,1,30,5,1,117,1,1953,1,0.05316518,6.52122,0.4489339,-1
26,M,1,1,30,6,1,118,2,1776,0,0.3960021,6.621248,3.299662,-1
26,M,1,1,30,7,2,117,1,1965,1,0.6785965,10.41048,3.656074,-1
26,M,1,1,30,8,2,118,2,3198,0,0.3460083,10.59063,1.815099,-1
26,M,1,1,30,9,1,119,3,2920,0,0.4570252,6.278547,3.983052,-1
26,M,1,1,30,10,4,120,4,1309,0,0.8710989,10.47376,4.623766,-1
26,M,1,1,30,11,3,117,1,2153,1,0.1906174,6.479227,1.615073,-1
26,M,1,1,30,12,3,119,3,1942,0,0.4560349,6.271142,3.974438,-1
26,M,1,1,30,13,3,120,4,2265,0,0.4289039,6.490322,3.648729,-1
26,M,1,1,30,14,4,117,1,1609,0,0.5901248,10.39828,3.146099,-1
26,M,1,1,30,15,1,120,4,2831,1,0.1924974,6.493603,1.61955,-1
26,M,1,1,30,16,3,118,2,3331,1,0.1839656,6.623022,1.531613,-1
26,M,1,1,1,1,8,1,1,194904,0,-1,-1,-1,0
26,M,1,1,1,2,6,3,3,6976,0,-1,-1,-1,0
26,M,1,1,1,3,6,2,2,2308,0,-1,-1,-1,0
26,M,1,1,1,4,7,3,3,1564,0,-1,-1,-1,0
26,M,1,1,1,5,6,4,4,2475,0,-1,-1,-1,0
26,M,1,1,1,6,5,1,1,1209,0,-1,-1,-1,0
26,M,1,1,1,7,8,3,3,1709,0,-1,-1,-1,0
26,M,1,1,1,8,5,4,4,1198,0,-1,-1,-1,0
26,M,1,1,1,9,6,1,1,1142,0,-1,-1,-1,0
26,M,1,1,1,10,5,3,3,1509,0,-1,-1,-1,0
26,M,1,1,1,11,5,2,2,1365,0,-1,-1,-1,0
26,M,1,1,1,12,7,1,1,1409,0,-1,-1,-1,0
26,M,1,1,1,13,8,2,2,1887,0,-1,-1,-1,1
26,M,1,1,1,14,8,4,4,3076,0,-1,-1,-1,0
26,M,1,1,1,15,7,2,2,1498,0,-1,-1,-1,1
26,M,1,1,1,16,7,4,4,2453,0,-1,-1,-1,0
26,M,1,1,2,1,7,3,3,1065,0,-1,-1,-1,0
26,M,1,1,2,2,8,2,2,1331,0,-1,-1,-1,0
26,M,1,1,2,3,8,1,1,2176,0,-1,-1,-1,0
26,M,1,1,2,4,6,3,3,4153,0,-1,-1,-1,0
26,M,1,1,2,5,7,4,4,1309,0,-1,-1,-1,0
26,M,1,1,2,6,8,3,3,2342,0,-1,-1,-1,1
26,M,1,1,2,7,7,2,2,1831,0,-1,-1,-1,0
26,M,1,1,2,8,8,4,4,1231,0,-1,-1,-1,0
26,M,1,1,2,9,5,3,3,1353,0,-1,-1,-1,0
26,M,1,1,2,10,7,1,1,1176,0,-1,-1,-1,0
26,M,1,1,2,11,5,2,2,1031,0,-1,-1,-1,1
26,M,1,1,2,12,6,4,4,1265,0,-1,-1,-1,0
26,M,1,1,2,13,6,1,1,1209,0,-1,-1,-1,0
26,M,1,1,2,14,6,2,2,3953,0,-1,-1,-1,0
26,M,1,1,2,15,5,1,1,1008,0,-1,-1,-1,0
26,M,1,1,2,16,5,4,4,2387,0,-1,-1,-1,0
