Age, Gender, Awareness Type, Session, Block, Trial, Set, Pattern, Quadrant, Response Time, Num Mistakes, Distance From Target, Camera Distance From Target, Angle Error (Degrees), FC Response
21,F,1,1,1,1,2,4,4,9999,1,-1,-1,-1,-1
21,F,1,1,1,2,4,1,1,9999,1,-1,-1,-1,-1
21,F,1,1,1,3,1,4,4,9999,1,-1,-1,-1,-1
21,F,1,1,1,4,3,3,3,9999,1,-1,-1,-1,-1
21,F,1,1,1,5,3,2,2,9253,0,3.675001E-08,6.394072,0,-1
21,F,1,1,1,6,3,4,4,1587,0,0.07117968,6.335435,0.6119779,-1
21,F,1,1,1,7,3,1,1,2020,0,0.3447559,6.12646,3.119854,-1
21,F,1,1,1,8,4,4,4,1787,0,0.6974176,10.35477,3.752594,-1
21,F,1,1,1,9,1,2,2,6998,0,0.5206803,6.361749,4.391953,-1
21,F,1,1,1,10,2,3,3,2053,0,0.657869,10.14522,3.591015,-1
21,F,1,1,1,11,2,2,2,3398,0,0.6933946,10.1941,3.777557,-1
21,F,1,1,1,12,1,3,3,1165,0,0.01756028,6.2337,0.1532334,-1
21,F,1,1,1,13,1,1,1,1398,0,0.289175,6.129439,2.623833,-1
21,F,1,1,1,14,4,3,3,3975,2,0.4705581,10.22275,2.570398,-1
21,F,1,1,1,15,4,2,2,2387,0,0.6031177,10.20555,3.273272,-1
21,F,1,1,1,16,2,1,1,6142,1,0.4541633,10.17233,2.522976,-1
21,F,1,1,2,1,1,6,2,8642,1,0.2499211,6.42947,2.154768,-1
21,F,1,1,2,2,3,8,4,2309,0,0.06290506,6.375966,0.5399548,-1
21,F,1,1,2,3,1,7,3,2442,0,0.4329042,6.262854,3.843182,-1
21,F,1,1,2,4,2,8,4,1398,0,0.7438705,10.3731,3.939748,-1
21,F,1,1,2,5,2,6,2,2342,0,0.3315445,10.29041,1.78805,-1
21,F,1,1,2,6,3,7,3,1753,0,0.1615497,6.272352,1.404024,-1
21,F,1,1,2,7,3,6,2,2487,0,0.3935548,6.41576,3.310324,-1
21,F,1,1,2,8,2,7,3,1698,0,0.4054611,10.21542,2.219203,-1
21,F,1,1,2,9,4,5,1,1376,0,1.669478E-07,10.12881,0,-1
21,F,1,1,2,10,4,6,2,1209,0,0.2549264,10.28474,1.382676,-1
21,F,1,1,2,11,3,5,1,1376,0,0.1651941,6.149138,1.463799,-1
21,F,1,1,2,12,4,8,4,2809,0,0.09608974,10.38308,0.5151029,-1
21,F,1,1,2,13,1,5,1,7809,5,0.1636184,6.300942,1.435996,-1
21,F,1,1,2,14,1,8,4,4520,1,0.1406644,6.446242,1.187291,-1
21,F,1,1,2,15,4,7,3,3164,0,0.5460896,10.35285,2.945503,-1
21,F,1,1,2,16,2,5,1,3109,1,1.221737E-07,10.21328,0,-1
21,F,1,1,3,1,4,11,3,2365,0,0.6395403,10.28511,3.432564,-1
21,F,1,1,3,2,3,10,2,2465,0,0.5322765,6.528721,4.474615,-1
21,F,1,1,3,3,4,12,4,9842,3,0.486838,10.40001,2.64782,-1
21,F,1,1,3,4,3,11,3,5431,1,0.2557942,6.294718,2.206644,-1
21,F,1,1,3,5,4,9,1,2509,1,0.2713458,10.20309,1.495279,-1
21,F,1,1,3,6,2,12,4,1776,0,1.257663E-07,10.44643,0,-1
21,F,1,1,3,7,3,9,1,1509,0,0.1152803,6.295105,1.021058,-1
21,F,1,1,3,8,4,10,2,9999,6,-1,-1,-1,-1
21,F,1,1,3,9,2,11,3,2498,0,0.4262286,10.32316,2.309782,-1
21,F,1,1,3,10,2,10,2,1020,0,0.5083203,10.41619,2.701391,-1
21,F,1,1,3,11,1,9,1,1342,0,0.0774624,6.330146,0.6720214,-1
21,F,1,1,3,12,1,12,4,2042,1,0.05462619,6.455703,0.4605518,-1
21,F,1,1,3,13,1,11,3,4075,2,0.08458559,6.374065,0.7324861,-1
21,F,1,1,3,14,1,10,2,3286,1,0.01709585,6.545516,0.1426525,-1
21,F,1,1,3,15,2,9,1,1087,0,0.7425693,10.2709,4.108277,-1
21,F,1,1,3,16,3,12,4,6476,5,5.425663E-08,6.449387,0,-1
21,F,1,1,4,1,1,13,1,4264,0,0.3278746,6.285477,2.923689,-1
21,F,1,1,4,2,1,16,4,1765,0,0.1950376,6.439789,1.650668,-1
21,F,1,1,4,3,1,14,2,4176,0,0.4705932,6.510056,3.904449,-1
21,F,1,1,4,4,4,15,3,4142,0,0.3708522,10.30151,2.030954,-1
21,F,1,1,4,5,3,16,4,4120,1,0.1707626,6.435012,1.456562,-1
21,F,1,1,4,6,4,13,1,1142,0,0.8455135,10.2354,4.697779,-1
21,F,1,1,4,7,4,14,2,3276,2,0.8453717,10.38846,4.62546,-1
21,F,1,1,4,8,1,15,3,1642,0,0.3607262,6.336255,3.106649,-1
21,F,1,1,4,9,2,14,2,987,0,0.5474432,10.39098,2.907576,-1
21,F,1,1,4,10,3,15,3,4609,4,0.3353271,6.364604,2.926634,-1
21,F,1,1,4,11,4,16,4,1365,0,0.09145071,10.45765,0.4869847,-1
21,F,1,1,4,12,2,13,1,1209,0,0.6681098,10.22933,3.71051,-1
21,F,1,1,4,13,2,16,4,1865,0,0.535146,10.45024,2.826463,-1
21,F,1,1,4,14,3,14,2,2576,1,0.1688791,6.492898,1.431628,-1
21,F,1,1,4,15,2,15,3,2220,1,0.7847064,10.28639,4.270905,-1
21,F,1,1,4,16,3,13,1,1853,0,0.1066516,6.248704,0.9379522,-1
21,F,1,1,5,1,4,19,3,2076,1,0.1884519,10.30437,1.020675,-1
21,F,1,1,5,2,1,18,2,4976,1,0.08251099,6.526931,0.6977351,-1
21,F,1,1,5,3,2,20,4,998,0,0.7082245,10.46732,3.728357,-1
21,F,1,1,5,4,2,18,2,1665,0,0.2647454,10.39254,1.430945,-1
21,F,1,1,5,5,3,20,4,2087,1,0.2252653,6.512588,1.905673,-1
21,F,1,1,5,6,2,17,1,998,0,0.1002863,10.25996,0.5471546,-1
21,F,1,1,5,7,3,18,2,2742,0,0.160771,6.530789,1.349442,-1
21,F,1,1,5,8,2,19,3,1220,0,0.4219707,10.31359,2.253944,-1
21,F,1,1,5,9,1,20,4,3609,0,1.114099E-07,6.461528,0,-1
21,F,1,1,5,10,1,17,1,3876,0,0.1843319,6.324215,1.622206,-1
21,F,1,1,5,11,1,19,3,1487,0,0.40611,6.346462,3.499503,-1
21,F,1,1,5,12,3,17,1,1198,0,0.492622,6.277488,4.314068,-1
21,F,1,1,5,13,4,18,2,3387,0,0.4096981,10.45267,2.186238,-1
21,F,1,1,5,14,3,19,3,2531,0,0.2757693,6.313267,2.408754,-1
21,F,1,1,5,15,4,17,1,1020,0,0.6261917,10.23793,3.476545,-1
21,F,1,1,5,16,4,20,4,1309,0,0.1750224,10.4928,0.9339799,-1
21,F,1,1,6,1,3,23,3,2431,0,0.07814142,6.345776,0.6708556,-1
21,F,1,1,6,2,4,24,4,3742,1,0.7811029,10.47842,4.206728,-1
21,F,1,1,6,3,2,22,2,4409,3,0.4842923,10.3948,2.618606,-1
21,F,1,1,6,4,2,23,3,1309,0,0.4147278,10.31115,2.213728,-1
21,F,1,1,6,5,1,21,1,2298,0,0.2971095,6.313476,2.628901,-1
21,F,1,1,6,6,1,22,2,2453,0,0.2532527,6.519483,2.141557,-1
21,F,1,1,6,7,2,21,1,3154,0,0.6835302,10.25431,3.787549,-1
21,F,1,1,6,8,1,23,3,5498,4,0.2348354,6.358666,2.014797,-1
21,F,1,1,6,9,2,24,4,1065,0,0.7106379,10.48389,3.725309,-1
21,F,1,1,6,10,3,22,2,3742,0,0.3767346,6.547679,3.170397,-1
21,F,1,1,6,11,1,24,4,2631,0,0.4838224,6.480368,4.096629,-1
21,F,1,1,6,12,4,21,1,1887,0,0.5931062,10.24479,3.271657,-1
21,F,1,1,6,13,4,22,2,1931,0,0.6514281,10.38948,3.511511,-1
21,F,1,1,6,14,3,24,4,3053,0,0.3453713,6.468389,2.932581,-1
21,F,1,1,6,15,4,23,3,9209,8,0.5601685,10.22695,3.013244,-1
21,F,1,1,6,16,3,21,1,1431,0,0.0239809,6.310798,0.2112177,-1
21,F,1,1,7,1,1,26,2,1953,0,0.4265434,6.53085,3.552367,-1
21,F,1,1,7,2,3,25,1,3031,0,0.1844514,6.333125,1.630389,-1
21,F,1,1,7,3,2,26,2,2109,0,0.7314209,10.40949,3.953987,-1
21,F,1,1,7,4,1,27,3,4798,3,0.3924366,6.1972,3.514131,-1
21,F,1,1,7,5,3,26,2,1887,0,0.4775142,6.518783,3.957205,-1
21,F,1,1,7,6,1,28,4,1331,0,0.4020513,6.458798,3.414206,-1
21,F,1,1,7,7,4,25,1,998,0,0.3895149,10.23697,2.141831,-1
21,F,1,1,7,8,4,28,4,2509,0,0.4420123,10.48393,2.332297,-1
21,F,1,1,7,9,1,25,1,1220,0,0.001612708,6.317762,0,-1
21,F,1,1,7,10,3,27,3,3442,0,0.1383057,6.340076,1.197793,-1
21,F,1,1,7,11,3,28,4,3253,1,0.5328415,6.459678,4.502195,-1
21,F,1,1,7,12,2,27,3,3242,0,0.7159373,10.31535,3.888668,-1
21,F,1,1,7,13,2,28,4,1431,1,0.6536902,10.48147,3.524868,-1
21,F,1,1,7,14,4,26,2,1965,1,0.64017,10.41186,3.457797,-1
21,F,1,1,7,15,4,27,3,3164,0,0.4271317,10.26466,2.329274,-1
21,F,1,1,7,16,2,25,1,1142,0,0.3170235,10.28758,1.737763,-1
21,F,1,1,8,1,3,30,2,1687,0,0.0942295,6.559086,0.7840959,-1
21,F,1,1,8,2,4,29,1,4765,3,0.3745559,10.18492,2.086191,-1
21,F,1,1,8,3,4,30,2,4231,2,0.5793828,10.38689,3.085974,-1
21,F,1,1,8,4,1,31,3,2509,0,1.439214E-07,6.308103,0,-1
21,F,1,1,8,5,2,30,2,1743,0,0.08506152,10.34879,0.4592754,-1
21,F,1,1,8,6,3,32,4,6376,3,1.067287E-07,6.377398,0,-1
21,F,1,1,8,7,1,30,2,4331,0,0.05459893,6.527918,0.4592754,-1
21,F,1,1,8,8,2,31,3,1675,0,0.20719,10.30712,1.111179,-1
21,F,1,1,8,9,1,32,4,4009,0,0.1851047,6.474529,1.56748,-1
21,F,1,1,8,10,2,29,1,1087,0,0.1902113,10.26944,1.03854,-1
21,F,1,1,8,11,4,31,3,1687,0,0.6017067,10.31963,3.269621,-1
21,F,1,1,8,12,2,32,4,1175,0,0.4903732,10.48753,2.578685,-1
21,F,1,1,8,13,3,29,1,1053,0,0.5368846,6.271907,4.683705,-1
21,F,1,1,8,14,3,31,3,1565,0,0.5022902,6.344778,4.334179,-1
21,F,1,1,8,15,4,32,4,1098,0,0.6295217,10.49132,3.307425,-1
21,F,1,1,8,16,1,29,1,1231,0,0.03115978,6.322626,0.2712421,-1
21,F,1,1,9,1,1,36,4,2387,0,0.2854227,6.462398,2.421558,-1
21,F,1,1,9,2,4,34,2,1753,1,0.3493561,10.46283,1.886474,-1
21,F,1,1,9,3,2,35,3,1264,0,0.2534089,10.31337,1.371307,-1
21,F,1,1,9,4,3,34,2,2887,0,0.5500299,6.574028,4.610487,-1
21,F,1,1,9,5,4,33,1,820,0,0.4226682,10.24314,2.296781,-1
21,F,1,1,9,6,4,36,4,954,0,0.8825973,10.48729,4.626985,-1
21,F,1,1,9,7,2,33,1,720,0,0.2243495,10.27202,1.219489,-1
21,F,1,1,9,8,1,35,3,3009,1,0.5393271,6.342421,4.66157,-1
21,F,1,1,9,9,3,36,4,3787,0,0.05708672,6.510848,0.4837596,-1
21,F,1,1,9,10,2,34,2,4676,0,0.05569676,10.40632,0.2980514,-1
21,F,1,1,9,11,3,35,3,2042,0,0.4194808,6.395882,3.623096,-1
21,F,1,1,9,12,3,33,1,1231,0,9.190342E-08,6.278696,0,-1
21,F,1,1,9,13,1,34,2,3998,4,0.05822814,6.389404,0.5016313,-1
21,F,1,1,9,14,4,35,3,2354,0,0.6627189,10.32311,3.542598,-1
21,F,1,1,9,15,2,36,4,1853,1,0.2460001,10.48005,1.303863,-1
21,F,1,1,9,16,1,33,1,3665,0,1.294433E-07,6.329115,0,-1
21,F,1,1,10,1,2,39,3,1731,1,0.8040348,10.25178,4.339598,-1
21,F,1,1,10,2,4,37,1,898,0,0.7176985,10.29955,3.959135,-1
21,F,1,1,10,3,2,40,4,1309,1,0.6160311,10.51296,3.297703,-1
21,F,1,1,10,4,3,38,2,1876,1,0.07423683,6.549391,0.6180231,-1
21,F,1,1,10,5,1,40,4,4020,0,0.06876447,6.497875,0.5743721,-1
21,F,1,1,10,6,1,37,1,1365,0,0.04676312,6.346421,0.4059006,-1
21,F,1,1,10,7,1,39,3,3676,2,0.08931779,6.268016,0.7840959,-1
21,F,1,1,10,8,3,37,1,1398,0,4.330847E-08,6.292173,0,-1
21,F,1,1,10,9,4,39,3,4776,1,0.7552783,10.38898,4.080008,-1
21,F,1,1,10,10,3,40,4,3709,2,0.3796798,6.475286,3.191998,-1
21,F,1,1,10,11,4,38,2,1331,0,0.3623638,10.48518,1.953845,-1
21,F,1,1,10,12,3,39,3,2153,0,0.4687224,6.344815,4.040457,-1
21,F,1,1,10,13,2,38,2,1576,0,0.2164567,10.42323,1.158765,-1
21,F,1,1,10,14,4,40,4,987,0,0.8924889,10.50674,4.683998,-1
21,F,1,1,10,15,2,37,1,942,0,1.881176E-08,10.29338,0,-1
21,F,1,1,10,16,1,38,2,709,0,6.036674E-08,6.631561,0,-1
21,F,1,1,11,1,1,43,3,2109,0,0.4786009,6.361541,4.096916,-1
21,F,1,1,11,2,2,41,1,798,0,0.1076725,10.29486,0.5861744,-1
21,F,1,1,11,3,1,42,2,2042,1,0.4452461,6.563327,3.737431,-1
21,F,1,1,11,4,2,43,3,2720,2,0.392357,10.32527,2.09097,-1
21,F,1,1,11,5,3,44,4,2209,1,0.1060896,6.524291,0.8897746,-1
21,F,1,1,11,6,1,41,1,3320,0,0.01739393,6.356032,0.1519511,-1
21,F,1,1,11,7,3,42,2,1576,0,0.5045693,6.553646,4.126731,-1
21,F,1,1,11,8,3,43,3,2387,0,0.07295965,6.348303,0.6265134,-1
21,F,1,1,11,9,1,44,4,3387,1,0.1687773,6.486244,1.410698,-1
21,F,1,1,11,10,3,41,1,1609,0,0.3265582,6.293344,2.806864,-1
21,F,1,1,11,11,4,42,2,1587,0,0.3359807,10.43365,1.805911,-1
21,F,1,1,11,12,2,44,4,3053,0,0.1848748,10.51546,0.9749822,-1
21,F,1,1,11,13,4,43,3,2109,0,0.2863339,10.34969,1.545224,-1
21,F,1,1,11,14,4,44,4,1065,0,0.7631064,10.57574,4.027058,-1
21,F,1,1,11,15,2,42,2,2942,0,0.5543354,10.43387,2.992317,-1
21,F,1,1,11,16,4,41,1,1720,0,0.5389607,10.35013,2.956448,-1
21,F,1,1,12,1,1,47,3,1898,0,0.4681174,6.366663,3.998362,-1
21,F,1,1,12,2,2,48,4,776,0,0.6068758,10.51923,3.178476,-1
21,F,1,1,12,3,3,45,1,2131,0,1.048115E-07,6.301676,0,-1
21,F,1,1,12,4,2,46,2,1276,0,0.003362593,10.44256,0,-1
21,F,1,1,12,5,3,48,4,2287,0,0.2497537,6.48151,2.09975,-1
21,F,1,1,12,6,4,46,2,1509,0,0.4351786,10.43525,2.317733,-1
21,F,1,1,12,7,1,48,4,2409,1,0.5410028,6.483593,4.519997,-1
21,F,1,1,12,8,2,47,3,1598,0,0.4013898,10.31978,2.175199,-1
21,F,1,1,12,9,1,45,1,3576,0,0.285835,6.351935,2.507334,-1
21,F,1,1,12,10,4,48,4,1809,1,0.2301998,10.51342,1.214987,-1
21,F,1,1,12,11,4,47,3,1909,0,0.5017654,10.33487,2.672543,-1
21,F,1,1,12,12,3,46,2,3342,1,8.037914E-08,6.614557,0,-1
21,F,1,1,12,13,2,45,1,1098,0,0.5658741,10.28519,3.124369,-1
21,F,1,1,12,14,3,47,3,2298,1,0.383777,6.345614,3.295684,-1
21,F,1,1,12,15,1,46,2,2898,2,0.2696104,6.569822,2.221406,-1
21,F,1,1,12,16,4,45,1,1231,0,0.3864582,10.27278,2.120434,-1
21,F,1,1,13,1,3,50,2,3231,1,0.28756,6.536991,2.408103,-1
21,F,1,1,13,2,3,52,4,2709,0,0.2233964,6.461975,1.895272,-1
21,F,1,1,13,3,3,51,3,2998,2,0.4091065,6.312146,3.54022,-1
21,F,1,1,13,4,1,50,2,1120,0,0.3170592,6.535132,2.620698,-1
21,F,1,1,13,5,1,52,4,2353,0,0.5494094,6.451602,4.634472,-1
21,F,1,1,13,6,4,50,2,1254,0,0.7883993,10.46721,4.236696,-1
21,F,1,1,13,7,4,49,1,898,0,0.3070224,10.27309,1.667535,-1
21,F,1,1,13,8,2,51,3,1631,1,0.6527441,10.32151,3.501237,-1
21,F,1,1,13,9,2,50,2,1753,0,0.6974964,10.41299,3.80385,-1
21,F,1,1,13,10,2,49,1,853,0,3.642417E-08,10.27411,0,-1
21,F,1,1,13,11,4,51,3,1242,0,0.8208182,10.3412,4.384633,-1
21,F,1,1,13,12,4,52,4,3876,4,0.1395739,10.55369,0.7436213,-1
21,F,1,1,13,13,1,49,1,3131,0,0.3080287,6.357375,2.705156,-1
21,F,1,1,13,14,1,51,3,1998,0,0.4571275,6.348863,3.929196,-1
21,F,1,1,13,15,3,49,1,2542,0,0.4176543,6.290674,3.629521,-1
21,F,1,1,13,16,2,52,4,898,0,0.6615699,10.50329,3.464924,-1
21,F,1,1,14,1,1,55,3,2220,1,0.1916696,6.339328,1.65812,-1
21,F,1,1,14,2,3,53,1,954,0,0.5353314,6.290673,4.602237,-1
21,F,1,1,14,3,3,54,2,4653,2,0.5550746,6.554399,4.722317,-1
21,F,1,1,14,4,4,55,3,2520,0,0.70059,10.32163,3.815826,-1
21,F,1,1,14,5,1,53,1,3542,0,1.05873E-07,6.345479,0,-1
21,F,1,1,14,6,2,56,4,898,0,0.8269926,10.50316,4.335805,-1
21,F,1,1,14,7,4,53,1,798,0,0.7981243,10.34725,4.335489,-1
21,F,1,1,14,8,1,56,4,4120,1,0.2053074,6.475745,1.715662,-1
21,F,1,1,14,9,4,54,2,3009,0,0.5291615,10.43695,2.848676,-1
21,F,1,1,14,10,3,55,3,2809,1,0.4798762,6.340044,4.115421,-1
21,F,1,1,14,11,3,56,4,2109,0,0.2935725,6.464118,2.473064,-1
21,F,1,1,14,12,2,53,1,742,0,0.4766972,10.27462,2.62525,-1
21,F,1,1,14,13,2,55,3,1287,1,0.1074207,10.32958,0.5834977,-1
21,F,1,1,14,14,2,54,2,1898,1,0.1408426,10.42479,0.7558876,-1
21,F,1,1,14,15,4,56,4,876,0,0.6292826,10.49335,3.303516,-1
21,F,1,1,14,16,1,54,2,1087,0,0.1350577,6.558037,1.121172,-1
21,F,1,1,15,1,4,57,1,1643,0,0.6891698,10.25623,3.816904,-1
21,F,1,1,15,2,1,58,2,1064,0,0.06969075,6.556102,0.583833,-1
21,F,1,1,15,3,3,59,3,2298,0,0.1469075,6.347076,1.264704,-1
21,F,1,1,15,4,3,58,2,1598,1,0.1609975,6.551411,1.365157,-1
21,F,1,1,15,5,3,57,1,2476,1,4.64103E-08,6.300876,0,-1
21,F,1,1,15,6,3,60,4,4098,0,0.4737872,6.518881,4.042202,-1
21,F,1,1,15,7,2,57,1,2520,3,0.5920356,10.21951,3.233738,-1
21,F,1,1,15,8,2,60,4,798,0,0.6505628,10.50043,3.416499,-1
21,F,1,1,15,9,1,59,3,2531,1,0.2787155,6.346436,2.386385,-1
21,F,1,1,15,10,2,58,2,1331,0,0.4268887,10.43102,2.266932,-1
21,F,1,1,15,11,4,59,3,765,0,0.7709111,10.34404,4.121413,-1
21,F,1,1,15,12,1,57,1,2753,0,0.2270802,6.35968,1.977541,-1
21,F,1,1,15,13,1,60,4,1498,0,0.3111422,6.456411,2.63552,-1
21,F,1,1,15,14,4,58,2,3698,0,0.2595772,10.43201,1.38903,-1
21,F,1,1,15,15,2,59,3,1331,0,0.6738084,10.34,3.588123,-1
21,F,1,1,15,16,4,60,4,720,0,0.5080315,10.50764,2.683142,-1
21,F,1,1,16,1,4,63,3,1142,0,0.4556369,10.33415,2.467438,-1
21,F,1,1,16,2,2,61,1,587,0,0.1515819,10.2934,0.8256681,-1
21,F,1,1,16,3,1,63,3,1754,0,0.4007587,6.35566,3.436896,-1
21,F,1,1,16,4,1,64,4,2476,1,0.268853,6.472895,2.247596,-1
21,F,1,1,16,5,1,62,2,1098,0,0.4534283,6.55942,3.715573,-1
21,F,1,1,16,6,3,64,4,2231,1,0.4806814,6.459733,4.036724,-1
21,F,1,1,16,7,2,62,2,1798,0,0.3749058,10.43275,2.029219,-1
21,F,1,1,16,8,3,61,1,1387,0,0.2432826,6.295138,2.138997,-1
21,F,1,1,16,9,2,63,3,1331,0,0.6068162,10.33673,3.292415,-1
21,F,1,1,16,10,1,61,1,1976,0,8.234884E-08,6.358209,0,-1
21,F,1,1,16,11,3,62,2,1620,0,0.1297663,6.602147,1.078108,-1
21,F,1,1,16,12,2,64,4,1398,1,0.4136163,10.50518,2.226423,-1
21,F,1,1,16,13,4,62,2,975,0,0.6849427,10.4148,3.669438,-1
21,F,1,1,16,14,4,61,1,1020,0,0.4149882,10.33919,2.2783,-1
21,F,1,1,16,15,4,64,4,854,0,0.6075338,10.56433,3.208515,-1
21,F,1,1,16,16,3,63,3,2198,1,0.5118404,6.316929,4.484366,-1
21,F,1,1,17,1,1,66,2,1097,0,0.4982321,6.553087,4.092755,-1
21,F,1,1,17,2,4,67,3,2242,0,3.154113E-07,10.39162,0,-1
21,F,1,1,17,3,1,65,1,2687,0,0.09402896,6.344693,0.81781,-1
21,F,1,1,17,4,4,66,2,1087,0,0.8167892,10.47194,4.353971,-1
21,F,1,1,17,5,2,68,4,3687,4,0.4614156,10.45504,2.493792,-1
21,F,1,1,17,6,4,65,1,1520,0,0.8102192,10.27164,4.408911,-1
21,F,1,1,17,7,1,67,3,2253,1,0.3186893,6.348492,2.737953,-1
21,F,1,1,17,8,3,68,4,3576,0,2.260679E-08,6.499162,0,-1
21,F,1,1,17,9,2,66,2,1342,0,0.5052137,10.4244,2.683288,-1
21,F,1,1,17,10,4,68,4,1120,0,0.2525065,10.51363,1.331927,-1
21,F,1,1,17,11,2,65,1,909,0,0.2102342,10.28751,1.140896,-1
21,F,1,1,17,12,3,66,2,954,0,0.5107424,6.550328,4.178889,-1
21,F,1,1,17,13,2,67,3,1509,0,0.3844965,10.33246,2.076977,-1
21,F,1,1,17,14,1,68,4,2353,1,0.2617465,6.480402,2.185969,-1
21,F,1,1,17,15,3,67,3,2887,1,0.235991,6.398567,2.036343,-1
21,F,1,1,17,16,3,65,1,1109,0,0.3215227,6.295357,2.744095,-1
21,F,1,1,18,1,3,71,3,3920,0,0.4745923,6.33646,4.082215,-1
21,F,1,1,18,2,1,69,1,2998,0,2.136132E-07,6.343329,0,-1
21,F,1,1,18,3,1,71,3,3120,1,0.3785388,6.345121,3.242565,-1
21,F,1,1,18,4,1,70,2,1709,1,1.268363E-07,6.567528,0,-1
21,F,1,1,18,5,1,72,4,2431,0,0.4660763,6.48047,3.944963,-1
21,F,1,1,18,6,4,70,2,1465,1,0.6584289,10.48799,3.531194,-1
21,F,1,1,18,7,2,71,3,2176,1,0.3615071,10.32382,1.927321,-1
21,F,1,1,18,8,4,69,1,1331,0,0.7884887,10.29077,4.354422,-1
21,F,1,1,18,9,2,70,2,2909,0,0.002995376,10.42769,0,-1
21,F,1,1,18,10,4,71,3,2909,3,0.8436795,10.29809,4.531726,-1
21,F,1,1,18,11,3,69,1,1631,0,0.3175361,6.296516,2.793582,-1
21,F,1,1,18,12,4,72,4,1131,0,0.4575923,10.5193,2.413137,-1
21,F,1,1,18,13,3,70,2,1509,1,0.1398358,6.570637,1.178358,-1
21,F,1,1,18,14,3,72,4,1720,0,0.4347765,6.498172,3.670025,-1
21,F,1,1,18,15,2,69,1,5287,6,0.01928677,10.15877,0.1046783,-1
21,F,1,1,18,16,2,72,4,820,0,0.07337242,10.50317,0.3896677,-1
21,F,1,1,19,1,2,75,3,1298,0,0.6405307,10.34208,3.475362,-1
21,F,1,1,19,2,2,76,4,920,0,0.2512814,10.49937,1.335009,-1
21,F,1,1,19,3,4,74,2,1742,0,0.4551162,10.42161,2.457901,-1
21,F,1,1,19,4,1,76,4,1498,0,0.3539994,6.492128,2.990485,-1
21,F,1,1,19,5,3,73,1,2776,0,0.4380324,6.298617,3.856712,-1
21,F,1,1,19,6,3,76,4,3376,1,0.3602028,6.4787,3.048189,-1
21,F,1,1,19,7,3,75,3,2976,0,0.1865901,6.397296,1.610462,-1
21,F,1,1,19,8,3,74,2,3009,2,0.5319332,6.559982,4.484366,-1
21,F,1,1,19,9,1,73,1,3698,1,0.3597436,6.357173,3.160688,-1
21,F,1,1,19,10,1,74,2,1454,1,0.1759759,6.572196,1.482397,-1
21,F,1,1,19,11,2,73,1,953,0,0.2733713,10.29306,1.491347,-1
21,F,1,1,19,12,1,75,3,2376,1,0.1806459,6.352299,1.550281,-1
21,F,1,1,19,13,2,74,2,1287,0,0.7902335,10.44271,4.28528,-1
21,F,1,1,19,14,4,76,4,820,0,0.8124495,10.51591,4.259977,-1
21,F,1,1,19,15,4,73,1,1498,0,0.8619333,10.29242,4.761727,-1
21,F,1,1,19,16,4,75,3,1487,0,0.726257,10.34539,3.925556,-1
21,F,1,1,20,1,4,78,2,742,0,0.7734494,10.49269,4.116135,-1
21,F,1,1,20,2,3,79,3,2987,1,0.3816539,6.39552,3.296337,-1
21,F,1,1,20,3,1,77,1,1531,0,0.0337387,6.35457,0.2947506,-1
21,F,1,1,20,4,1,80,4,2276,1,0.04956791,6.482202,0.4168407,-1
21,F,1,1,20,5,2,79,3,2576,0,0.5674194,10.34776,3.073197,-1
21,F,1,1,20,6,2,77,1,3498,3,0.5581087,10.21872,3.100972,-1
21,F,1,1,20,7,4,80,4,987,0,7.60457E-08,10.58008,0,-1
21,F,1,1,20,8,4,79,3,1165,0,0.1323696,10.34963,0.709416,-1
21,F,1,1,20,9,3,80,4,2765,1,0.2412093,6.522932,2.030954,-1
21,F,1,1,20,10,2,78,2,1220,0,0.2326512,10.45026,1.250544,-1
21,F,1,1,20,11,1,79,3,2320,1,0.362496,6.34997,3.102803,-1
21,F,1,1,20,12,2,80,4,909,0,0.4441992,10.52482,2.341677,-1
21,F,1,1,20,13,3,78,2,2553,0,0.3931136,6.578662,3.271836,-1
21,F,1,1,20,14,3,77,1,2542,0,1.029146E-07,6.373919,0,-1
21,F,1,1,20,15,1,78,2,1753,0,3.589856E-08,6.598948,0,-1
21,F,1,1,20,16,4,77,1,1020,0,0.2144803,10.30633,1.167346,-1
21,F,1,1,21,1,4,84,4,8475,0,0.6410621,10.35589,3.489922,-1
21,F,1,1,21,2,2,81,1,4031,4,0.04439754,10.25417,0.2422834,-1
21,F,1,1,21,3,2,83,3,2676,1,0.4207334,10.31235,2.282419,-1
21,F,1,1,21,4,4,82,2,3254,0,2.364972E-07,10.42531,0.01978234,-1
21,F,1,1,21,5,3,81,1,1409,0,0.100133,6.271877,0.8793777,-1
21,F,1,1,21,6,3,83,3,2142,0,0.2972052,6.411424,2.560785,-1
21,F,1,1,21,7,1,84,4,2198,0,0.5075569,6.501395,4.284046,-1
21,F,1,1,21,8,4,81,1,2087,0,0.8758849,10.33997,4.841084,-1
21,F,1,1,21,9,1,82,2,1065,0,0.01551744,6.552519,0.1282043,-1
21,F,1,1,21,10,1,83,3,1787,0,0.3374833,6.373332,2.889205,-1
21,F,1,1,21,11,3,84,4,4187,1,0.5543679,6.516826,4.629609,-1
21,F,1,1,21,12,1,81,1,2476,1,1.099828E-07,6.349993,0,-1
21,F,1,1,21,13,3,82,2,1609,1,0.1765576,6.568882,1.474456,-1
21,F,1,1,21,14,4,83,3,2742,1,0.4917274,10.34877,2.615839,-1
21,F,1,1,21,15,2,82,2,1476,0,0.7898043,10.42185,4.261219,-1
21,F,1,1,21,16,2,84,4,1565,0,0.7865418,10.52247,4.116516,-1
21,F,1,1,22,1,1,85,1,3487,0,0.2085753,6.341809,1.831094,-1
21,F,1,1,22,2,2,86,2,1020,0,0.8337467,10.43649,4.533584,-1
21,F,1,1,22,3,3,88,4,3165,0,0.4697593,6.49548,3.974241,-1
21,F,1,1,22,4,3,87,3,1620,0,0.4658484,6.419555,4.011417,-1
21,F,1,1,22,5,4,88,4,6542,2,0.1874383,10.52359,0.9897227,-1
21,F,1,1,22,6,3,86,2,1642,0,0.3520076,6.609255,2.911276,-1
21,F,1,1,22,7,2,88,4,1076,0,0.5524974,10.52542,2.907778,-1
21,F,1,1,22,8,2,85,1,1020,0,0.4003375,10.29299,2.195974,-1
21,F,1,1,22,9,4,86,2,2920,1,0.7898081,10.41767,4.276725,-1
21,F,1,1,22,10,2,87,3,4853,4,0.2086564,10.34417,1.115222,-1
21,F,1,1,22,11,3,85,1,1909,0,0.2399004,6.303564,2.089004,-1
21,F,1,1,22,12,4,87,3,876,0,0.8806062,10.36335,4.790561,-1
21,F,1,1,22,13,1,88,4,2420,0,0.4183614,6.51592,3.542764,-1
21,F,1,1,22,14,4,85,1,1698,0,0.256539,10.29687,1.40667,-1
21,F,1,1,22,15,1,86,2,1187,0,1.780871E-07,6.550984,0.01978234,-1
21,F,1,1,22,16,1,87,3,2987,0,0.5158148,6.386092,4.4042,-1
21,F,1,1,23,1,4,90,2,998,0,0.844521,10.42358,4.574146,-1
21,F,1,1,23,2,1,92,4,1865,0,0.4010163,6.522417,3.37313,-1
21,F,1,1,23,3,4,89,1,909,0,0.545548,10.26164,3.009408,-1
21,F,1,1,23,4,3,90,2,2276,1,0.06528922,6.56772,0.5450047,-1
21,F,1,1,23,5,3,89,1,2665,0,0.3464409,6.307961,3.049473,-1
21,F,1,1,23,6,3,92,4,2564,1,0.2489783,6.461445,2.090127,-1
21,F,1,1,23,7,1,89,1,2576,0,0.262645,6.370802,2.299761,-1
21,F,1,1,23,8,2,92,4,1465,0,0.3248238,10.50998,1.710178,-1
21,F,1,1,23,9,3,91,3,3820,3,1.441438E-07,6.285344,0,-1
21,F,1,1,23,10,2,89,1,776,0,0.3467485,10.309,1.892378,-1
21,F,1,1,23,11,4,91,3,2487,1,0.4011577,10.35147,2.156765,-1
21,F,1,1,23,12,1,90,2,787,0,0.2172822,6.609811,1.82059,-1
21,F,1,1,23,13,1,91,3,2076,0,0.08785263,6.32618,0.7561465,-1
21,F,1,1,23,14,2,90,2,2120,2,0.08095074,10.4489,0.4325065,-1
21,F,1,1,23,15,4,92,4,1209,0,0.794014,10.51438,4.269804,-1
21,F,1,1,23,16,2,91,3,1342,0,0.4494622,10.33852,2.409079,-1
21,F,1,1,24,1,1,93,1,2109,1,0.08452927,6.380063,0.7356848,-1
21,F,1,1,24,2,4,96,4,820,0,0.1186697,10.53953,0.6262009,-1
21,F,1,1,24,3,3,95,3,2609,0,2.264905E-07,6.321745,0,-1
21,F,1,1,24,4,3,96,4,1398,0,0.319831,6.507039,2.689263,-1
21,F,1,1,24,5,2,93,1,1142,0,0.8096288,10.31095,4.462473,-1
21,F,1,1,24,6,2,95,3,1698,1,0.3478737,10.32289,1.854563,-1
21,F,1,1,24,7,3,94,2,2309,0,0.2367913,6.632499,1.964235,-1
21,F,1,1,24,8,1,96,4,1087,0,0.5276587,6.465116,4.476059,-1
21,F,1,1,24,9,2,94,2,1542,1,0.254989,10.45953,1.370593,-1
21,F,1,1,24,10,2,96,4,976,0,0.3812075,10.52186,2.001934,-1
21,F,1,1,24,11,1,94,2,2098,1,0.284572,6.590545,2.365875,-1
21,F,1,1,24,12,4,95,3,1365,0,0.08481371,10.34435,0.4588492,-1
21,F,1,1,24,13,3,93,1,1420,0,0.2993565,6.322187,2.651587,-1
21,F,1,1,24,14,4,94,2,2898,1,0.4483235,10.45793,2.420669,-1
21,F,1,1,24,15,4,93,1,909,0,0.4844143,10.29311,2.653579,-1
21,F,1,1,24,16,1,95,3,2465,0,0.5180292,6.32745,4.464887,-1
21,F,1,1,25,1,4,100,4,798,0,0.898397,10.49408,4.726753,-1
21,F,1,1,25,2,2,97,1,720,0,0.3208199,10.27991,1.757249,-1
21,F,1,1,25,3,2,98,2,1331,0,0.1696964,10.43186,0.9110718,-1
21,F,1,1,25,4,4,97,1,1042,0,0.1276109,10.27155,0.6960504,-1
21,F,1,1,25,5,1,100,4,2409,0,0.2235847,6.459598,1.872417,-1
21,F,1,1,25,6,1,97,1,3053,1,0.01536372,6.353961,0.132704,-1
21,F,1,1,25,7,3,98,2,1331,0,0.4696481,6.554992,3.84802,-1
21,F,1,1,25,8,3,97,1,2320,0,0.2151536,6.296234,1.871894,-1
21,F,1,1,25,9,1,99,3,1676,0,0.2385768,6.311604,2.053189,-1
21,F,1,1,25,10,1,98,2,1420,1,0.009780645,6.568558,0.07912937,-1
21,F,1,1,25,11,2,99,3,987,0,0.6476615,10.31018,3.473558,-1
21,F,1,1,25,12,2,100,4,1120,1,0.4598804,10.49836,2.416299,-1
21,F,1,1,25,13,3,99,3,3354,3,0.3685531,6.341633,3.217107,-1
21,F,1,1,25,14,3,100,4,1531,0,0.3800055,6.506843,3.246125,-1
21,F,1,1,25,15,4,98,2,2076,1,0.655623,10.45085,3.531915,-1
21,F,1,1,25,16,4,99,3,987,0,0.7379596,10.32738,4.022873,-1
21,F,1,1,26,1,3,104,4,2454,0,0.0718267,6.456333,0.6065179,-1
21,F,1,1,26,2,1,103,3,2142,1,0.3367362,6.325867,2.892388,-1
21,F,1,1,26,3,2,102,2,1087,0,0.3378168,10.44914,1.820912,-1
21,F,1,1,26,4,1,101,1,2809,0,0.1179546,6.373324,1.014714,-1
21,F,1,1,26,5,3,103,3,3131,2,0.5015892,6.364493,4.353162,-1
21,F,1,1,26,6,4,102,2,9999,1,-1,-1,-1,-1
21,F,1,1,26,7,4,101,1,2342,0,0.3627207,10.35788,1.979618,-1
21,F,1,1,26,8,4,103,3,1109,0,1.931742E-07,10.35198,0.01978234,-1
21,F,1,1,26,9,2,104,4,1154,1,0.6316167,10.52781,3.303101,-1
21,F,1,1,26,10,2,101,1,776,0,0.1517184,10.31347,0.8256681,-1
21,F,1,1,26,11,3,102,2,1309,0,0.4198617,6.42221,3.553634,-1
21,F,1,1,26,12,4,104,4,1087,0,0.6612267,10.5042,3.493287,-1
21,F,1,1,26,13,2,103,3,1076,0,0.8652964,10.31835,4.618849,-1
21,F,1,1,26,14,3,101,1,2287,0,0.4188993,6.310732,3.623474,-1
21,F,1,1,26,15,1,102,2,6664,9,0.2436747,6.43542,2.04641,-1
21,F,1,1,26,16,1,104,4,1687,0,0.4514074,6.388766,3.894807,-1
21,F,1,1,27,1,3,107,3,3631,1,0.07843769,6.393382,0.680988,-1
21,F,1,1,27,2,3,108,4,2276,0,0.2254607,6.481008,1.902692,-1
21,F,1,1,27,3,2,107,3,2820,2,0.08393802,10.32682,0.4515415,-1
21,F,1,1,27,4,4,106,2,3065,2,0.7763883,10.421,4.237205,-1
21,F,1,1,27,5,3,105,1,1487,0,0.2919114,6.26285,2.576179,-1
21,F,1,1,27,6,4,107,3,1587,0,0.5964326,10.32894,3.187947,-1
21,F,1,1,27,7,1,108,4,2898,0,0.3534098,6.483336,2.95519,-1
21,F,1,1,27,8,2,106,2,1009,0,0.7597706,10.42578,4.09835,-1
21,F,1,1,27,9,1,105,1,3642,0,0.2020687,6.33673,1.769899,-1
21,F,1,1,27,10,4,108,4,976,0,0.1994904,10.50575,1.063121,-1
21,F,1,1,27,11,1,107,3,1998,0,0.2099023,6.340851,1.804936,-1
21,F,1,1,27,12,1,106,2,2054,0,0.2459714,6.570055,2.031821,-1
21,F,1,1,27,13,4,105,1,3376,0,0.7325745,10.33299,4.027593,-1
21,F,1,1,27,14,2,108,4,1253,1,0.002521529,10.51302,0,-1
21,F,1,1,27,15,2,105,1,820,0,0.2943832,10.26677,1.600833,-1
21,F,1,1,27,16,3,106,2,1242,1,0.233181,6.559813,1.963039,-1
21,F,1,1,28,1,4,112,4,1209,1,0.8853902,10.51498,4.645996,-1
21,F,1,1,28,2,4,111,3,1620,0,0.5770174,10.33676,3.135814,-1
21,F,1,1,28,3,4,110,2,2365,0,0.5526175,10.49905,2.954395,-1
21,F,1,1,28,4,3,111,3,2931,0,0.4018688,6.34728,3.469893,-1
21,F,1,1,28,5,3,109,1,2576,0,0.110711,6.321875,0.9715644,-1
21,F,1,1,28,6,1,112,4,2354,0,0.3634739,6.486332,3.073961,-1
21,F,1,1,28,7,1,110,2,3998,5,0.1439616,6.392559,1.239384,-1
21,F,1,1,28,8,2,112,4,642,0,0.470797,10.48271,2.48837,-1
21,F,1,1,28,9,2,111,3,1287,0,0.6284299,10.31268,3.358063,-1
21,F,1,1,28,10,3,112,4,2431,0,0.443273,6.497674,3.74455,-1
21,F,1,1,28,11,3,110,2,1675,1,9.991075E-08,6.545889,0,-1
21,F,1,1,28,12,2,109,1,931,0,0.7125002,10.24491,3.952501,-1
21,F,1,1,28,13,1,111,3,2620,0,0.315417,6.343511,2.704071,-1
21,F,1,1,28,14,1,109,1,2842,0,0.2725357,6.303912,2.414029,-1
21,F,1,1,28,15,2,110,2,1643,0,0.5445804,10.40908,2.940913,-1
21,F,1,1,28,16,4,109,1,1031,0,4.125237E-08,10.22723,0.01978234,-1
21,F,1,1,29,1,4,116,4,1709,1,0.03678838,10.49437,0.1948336,-1
21,F,1,1,29,2,3,115,3,1709,0,0.3541031,6.396502,3.075044,-1
21,F,1,1,29,3,4,113,1,620,0,0.09755319,10.23945,0.5322903,-1
21,F,1,1,29,4,4,115,3,1076,0,0.07581084,10.33545,0.4078243,-1
21,F,1,1,29,5,1,114,2,1309,0,0.3374323,6.506151,2.882965,-1
21,F,1,1,29,6,3,113,1,4464,2,8.649225E-08,6.26802,0,-1
21,F,1,1,29,7,2,115,3,2098,2,0.3269082,10.32229,1.75736,-1
21,F,1,1,29,8,2,114,2,1454,1,0.3749348,10.38518,2.03519,-1
21,F,1,1,29,9,1,116,4,2553,0,7.285278E-08,6.491329,0,-1
21,F,1,1,29,10,1,113,1,2909,0,0.3556234,6.296071,3.093324,-1
21,F,1,1,29,11,2,116,4,1887,1,0.6383898,10.48519,3.364354,-1
21,F,1,1,29,12,1,115,3,2242,0,0.4954454,6.352684,4.243902,-1
21,F,1,1,29,13,4,114,2,1387,1,0.298829,10.38844,1.619671,-1
21,F,1,1,29,14,3,116,4,1976,0,0.4454376,6.472002,3.782013,-1
21,F,1,1,29,15,2,113,1,1409,0,0.2107849,10.24985,1.155213,-1
21,F,1,1,29,16,3,114,2,1009,0,0.1576338,6.536788,1.31045,-1
21,F,1,1,30,1,1,120,4,2820,0,0.2557627,6.500379,2.158126,-1
21,F,1,1,30,2,3,117,1,976,0,0.4551956,6.319252,3.959629,-1
21,F,1,1,30,3,2,120,4,1153,0,0.291508,10.49341,1.537097,-1
21,F,1,1,30,4,1,119,3,2864,0,0.479484,6.335142,4.216122,-1
21,F,1,1,30,5,1,118,2,1631,1,2.826693E-08,6.539464,0,-1
21,F,1,1,30,6,3,120,4,2343,0,0.5472388,6.488183,4.590902,-1
21,F,1,1,30,7,4,118,2,809,0,0.253399,10.38995,1.352773,-1
21,F,1,1,30,8,3,119,3,3941,2,0.05477725,6.392278,0.4739525,-1
21,F,1,1,30,9,2,117,1,809,0,0.4847274,10.27013,2.65697,-1
21,F,1,1,30,10,4,120,4,709,0,0.6263431,10.49463,3.284497,-1
21,F,1,1,30,11,4,117,1,1020,0,0.5809729,10.2435,3.173175,-1
21,F,1,1,30,12,4,119,3,1142,0,0.5014341,10.33522,2.686933,-1
21,F,1,1,30,13,1,117,1,2431,0,0.002780062,6.318309,0.01978234,-1
21,F,1,1,30,14,2,118,2,2431,1,0.3837848,10.40236,2.073771,-1
21,F,1,1,30,15,2,119,3,1309,0,0.1249894,10.29557,0.6769533,-1
21,F,1,1,30,16,3,118,2,1453,1,0.4569568,6.591982,3.855594,-1
21,F,1,1,1,1,8,4,4,10109,0,-1,-1,-1,1
21,F,1,1,1,2,6,3,3,3576,0,-1,-1,-1,0
21,F,1,1,1,3,7,1,1,2631,0,-1,-1,-1,0
21,F,1,1,1,4,5,3,3,1842,0,-1,-1,-1,0
21,F,1,1,1,5,6,2,2,2087,0,-1,-1,-1,1
21,F,1,1,1,6,8,1,1,2787,0,-1,-1,-1,0
21,F,1,1,1,7,5,4,4,2276,0,-1,-1,-1,1
21,F,1,1,1,8,6,1,1,4331,0,-1,-1,-1,0
21,F,1,1,1,9,7,2,2,4720,0,-1,-1,-1,1
21,F,1,1,1,10,5,1,1,7609,0,-1,-1,-1,1
21,F,1,1,1,11,6,4,4,1531,0,-1,-1,-1,0
21,F,1,1,1,12,5,2,2,3420,0,-1,-1,-1,0
21,F,1,1,1,13,7,4,4,4442,0,-1,-1,-1,0
21,F,1,1,1,14,7,3,3,1576,0,-1,-1,-1,1
21,F,1,1,1,15,8,2,2,1765,0,-1,-1,-1,1
21,F,1,1,1,16,8,3,3,1986,0,-1,-1,-1,0
21,F,1,1,2,1,6,3,3,4098,0,-1,-1,-1,0
21,F,1,1,2,2,5,4,4,2442,0,-1,-1,-1,0
21,F,1,1,2,3,7,1,1,2231,0,-1,-1,-1,1
21,F,1,1,2,4,6,2,2,2998,0,-1,-1,-1,0
21,F,1,1,2,5,5,1,1,4687,0,-1,-1,-1,1
21,F,1,1,2,6,7,2,2,4109,0,-1,-1,-1,1
21,F,1,1,2,7,8,1,1,4398,0,-1,-1,-1,0
21,F,1,1,2,8,5,3,3,1665,0,-1,-1,-1,1
21,F,1,1,2,9,8,4,4,3098,0,-1,-1,-1,0
21,F,1,1,2,10,8,2,2,2898,0,-1,-1,-1,1
21,F,1,1,2,11,7,3,3,1820,0,-1,-1,-1,0
21,F,1,1,2,12,6,1,1,4231,0,-1,-1,-1,0
21,F,1,1,2,13,6,4,4,1998,0,-1,-1,-1,1
21,F,1,1,2,14,5,2,2,2153,0,-1,-1,-1,0
21,F,1,1,2,15,7,4,4,2253,0,-1,-1,-1,1
21,F,1,1,2,16,8,3,3,8964,0,-1,-1,-1,0
