Age, Gender, Awareness Type, Session, Block, Trial, Set, Pattern, Quadrant, Response Time, Num Mistakes, Distance From Target, Camera Distance From Target, Angle Error (Degrees), FC Response
19,F,1,1,1,1,2,4,4,4954,0,0.5403556,12.4165,2.432928,-1
19,F,1,1,1,2,1,2,2,1343,0,0.5456371,6.497723,4.561109,-1
19,F,1,1,1,3,5,4,4,2243,0,0.5100799,6.472391,4.324815,-1
19,F,1,1,1,4,5,2,2,1976,1,0.1947118,6.478803,1.672691,-1
19,F,1,1,1,5,6,4,4,4088,0,0.2404751,12.45997,1.082817,-1
19,F,1,1,1,6,1,3,3,4621,0,0.1609217,6.460259,1.381685,-1
19,F,1,1,1,7,5,1,1,1921,0,0.07311907,6.45189,0.6258884,-1
19,F,1,1,1,8,2,3,3,2321,0,0.3601562,12.46273,1.630749,-1
19,F,1,1,1,9,1,1,1,1554,0,0.00574889,6.443212,0.04845664,-1
19,F,1,1,1,10,2,2,2,2132,0,0.6499112,12.55628,2.902117,-1
19,F,1,1,1,11,5,3,3,6699,5,0.2569107,6.423126,2.222375,-1
19,F,1,1,1,12,2,1,1,3844,2,0.3920616,12.39846,1.791003,-1
19,F,1,1,1,13,6,2,2,3043,2,0.5735074,12.54724,2.593821,-1
19,F,1,1,1,14,6,3,3,3999,0,0.9292552,12.45168,4.160478,-1
19,F,1,1,1,15,6,1,1,2032,1,0.02785931,12.43674,0.1251145,-1
19,F,1,1,1,16,1,4,4,2210,1,0.3872903,6.470291,3.27022,-1
19,F,1,1,2,1,2,7,3,2365,0,0.5322642,12.44943,2.39081,-1
19,F,1,1,2,2,2,5,1,2132,0,0.5085726,12.39818,2.327256,-1
19,F,1,1,2,3,2,8,4,6598,1,0.3766467,12.41307,1.697313,-1
19,F,1,1,2,4,5,6,2,2543,0,0.4241646,6.494146,3.550934,-1
19,F,1,1,2,5,6,5,1,2699,0,0.8708317,12.44388,3.98546,-1
19,F,1,1,2,6,6,6,2,3598,0,0.9687282,12.55022,4.326852,-1
19,F,1,1,2,7,5,5,1,1510,0,6.002947E-08,6.489336,0,-1
19,F,1,1,2,8,1,8,4,3643,0,0.3610765,6.46734,3.06631,-1
19,F,1,1,2,9,6,7,3,3688,0,0.4832789,12.4298,2.181847,-1
19,F,1,1,2,10,6,8,4,2621,0,0.8018849,12.43461,3.602066,-1
19,F,1,1,2,11,2,6,2,2821,0,0.569491,12.54463,2.56407,-1
19,F,1,1,2,12,5,7,3,2509,1,0.5107036,6.444582,4.41863,-1
19,F,1,1,2,13,5,8,4,4899,1,0.3027137,6.46355,2.584599,-1
19,F,1,1,2,14,1,5,1,1465,0,0.4042139,6.429999,3.505037,-1
19,F,1,1,2,15,1,7,3,1787,0,0.2218126,6.457427,1.875758,-1
19,F,1,1,2,16,1,6,2,1987,0,0.2360122,6.504596,2.011102,-1
19,F,1,1,3,1,5,9,1,1621,0,0.4245992,6.431346,3.681372,-1
19,F,1,1,3,2,1,11,3,1554,0,0.3851269,6.458455,3.198982,-1
19,F,1,1,3,3,6,9,1,3110,0,0.2377856,12.45438,1.073196,-1
19,F,1,1,3,4,5,10,2,1576,0,0.3370499,6.502907,2.82937,-1
19,F,1,1,3,5,2,12,4,1809,0,0.5731167,12.41584,2.575799,-1
19,F,1,1,3,6,2,9,1,7243,4,0.4307179,12.3919,1.971892,-1
19,F,1,1,3,7,1,12,4,1866,0,0.4899557,6.469225,4.161419,-1
19,F,1,1,3,8,1,9,1,977,0,0.3267861,6.430024,2.832965,-1
19,F,1,1,3,9,6,12,4,2676,0,0.5553833,12.4562,2.497165,-1
19,F,1,1,3,10,6,10,2,3021,1,0.5457675,12.5204,2.467993,-1
19,F,1,1,3,11,5,11,3,1310,0,0.1917624,6.457897,1.605838,-1
19,F,1,1,3,12,2,10,2,1676,0,0.6264802,12.55582,2.837384,-1
19,F,1,1,3,13,2,11,3,4632,0,0.9073937,12.44725,4.078759,-1
19,F,1,1,3,14,5,12,4,3498,1,0.4242159,6.453679,3.630869,-1
19,F,1,1,3,15,1,10,2,4165,1,0.2672995,6.501797,2.276753,-1
19,F,1,1,3,16,6,11,3,1621,0,0.5115358,12.4572,2.304352,-1
19,F,1,1,4,1,6,13,1,3332,3,0.9317387,12.40816,4.263148,-1
19,F,1,1,4,2,1,15,3,1354,0,4.920768E-08,6.460286,0,-1
19,F,1,1,4,3,1,16,4,2665,0,0.3191303,6.47141,2.708194,-1
19,F,1,1,4,4,6,15,3,2065,1,0.9958441,12.41867,4.538205,-1
19,F,1,1,4,5,1,14,2,1676,0,3.979757E-08,6.502919,0,-1
19,F,1,1,4,6,2,13,1,3465,3,0.7220522,12.39539,3.316942,-1
19,F,1,1,4,7,5,15,3,1576,0,0.06646916,6.461121,0.5598809,-1
19,F,1,1,4,8,5,13,1,1198,0,0.4510826,6.483282,3.893198,-1
19,F,1,1,4,9,5,14,2,1343,0,0.03268852,6.47901,0.2748253,-1
19,F,1,1,4,10,5,16,4,2832,1,0.1494501,6.464224,1.260985,-1
19,F,1,1,4,11,6,14,2,2488,0,0.417486,12.55578,1.866974,-1
19,F,1,1,4,12,2,15,3,1643,0,0.7259371,12.45092,3.289024,-1
19,F,1,1,4,13,2,16,4,1621,0,0.7096743,12.41716,3.181555,-1
19,F,1,1,4,14,1,13,1,1354,0,0.4149221,6.433225,3.596354,-1
19,F,1,1,4,15,2,14,2,2110,0,0.8851422,12.55338,3.976458,-1
19,F,1,1,4,16,6,16,4,4743,1,0.2939894,12.45343,1.323674,-1
19,F,1,1,5,1,5,18,2,2020,0,0.4674398,6.500809,3.930392,-1
19,F,1,1,5,2,2,20,4,2254,0,0.7727664,12.41637,3.4726,-1
19,F,1,1,5,3,1,18,2,2388,1,0.4644575,6.499964,3.905853,-1
19,F,1,1,5,4,6,19,3,1777,0,0.06385718,12.42346,0.289391,-1
19,F,1,1,5,5,1,20,4,3154,1,0.3398422,6.465981,2.886426,-1
19,F,1,1,5,6,5,17,1,2787,0,0.2844479,6.48491,2.455829,-1
19,F,1,1,5,7,1,19,3,1998,0,0.5354597,6.458818,4.450914,-1
19,F,1,1,5,8,1,17,1,1165,0,0.4356699,6.43831,3.789254,-1
19,F,1,1,5,9,6,20,4,3465,0,0.09357284,12.43671,0.4219727,-1
19,F,1,1,5,10,6,17,1,3065,0,8.90341E-08,12.45052,0,-1
19,F,1,1,5,11,2,19,3,1243,0,0.3704043,12.45114,1.664834,-1
19,F,1,1,5,12,2,18,2,1821,0,0.9671063,12.55231,4.317971,-1
19,F,1,1,5,13,5,20,4,6576,1,0.4866787,6.467995,4.13427,-1
19,F,1,1,5,14,2,17,1,3487,0,0.8581408,12.39891,3.928698,-1
19,F,1,1,5,15,5,19,3,2221,0,0.3858927,6.466248,3.242082,-1
19,F,1,1,5,16,6,18,2,4365,1,0.6568515,12.51874,2.976509,-1
19,F,1,1,6,1,5,24,4,9165,5,0.278621,6.47109,2.364385,-1
19,F,1,1,6,2,5,23,3,1887,0,0.2232936,6.488284,1.865086,-1
19,F,1,1,6,3,6,21,1,9999,0,-1,-1,-1,-1
19,F,1,1,6,4,2,22,2,3054,0,0.553058,12.55973,2.501863,-1
19,F,1,1,6,5,1,24,4,2976,0,0.1977765,6.47143,1.67351,-1
19,F,1,1,6,6,2,23,3,1599,0,0.8521463,12.45012,3.863966,-1
19,F,1,1,6,7,5,21,1,4399,1,0.01337467,6.461801,0.1136409,-1
19,F,1,1,6,8,6,23,3,1565,0,3.389256E-07,12.43031,0,-1
19,F,1,1,6,9,1,22,2,2321,0,0.4629374,6.504626,3.868575,-1
19,F,1,1,6,10,2,21,1,4465,4,0.710512,12.38644,3.255279,-1
19,F,1,1,6,11,6,22,2,2421,0,0.8811621,12.50866,4.003355,-1
19,F,1,1,6,12,2,24,4,1998,0,0.3284828,12.42194,1.47949,-1
19,F,1,1,6,13,1,23,3,3077,0,0.1712015,6.464072,1.438311,-1
19,F,1,1,6,14,5,22,2,2065,0,0.491523,6.513698,4.148787,-1
19,F,1,1,6,15,1,21,1,1265,0,0.3135487,6.435268,2.715989,-1
19,F,1,1,6,16,6,24,4,1743,0,0.5995901,12.45956,2.691664,-1
19,F,1,1,7,1,1,26,2,1565,0,0.4591687,6.50039,3.839104,-1
19,F,1,1,7,2,2,28,4,1587,0,0.6706209,12.41625,3.009929,-1
19,F,1,1,7,3,5,27,3,3765,1,0.3467084,6.48331,3.004461,-1
19,F,1,1,7,4,6,28,4,2066,0,0.9676145,12.40798,4.337702,-1
19,F,1,1,7,5,2,25,1,8865,9,0.5125318,12.39839,2.345352,-1
19,F,1,1,7,6,5,28,4,6965,0,0.1738969,6.462215,1.473261,-1
19,F,1,1,7,7,6,26,2,3232,2,0.7978404,12.5049,3.600381,-1
19,F,1,1,7,8,6,27,3,1354,0,0.8643941,12.44491,3.919116,-1
19,F,1,1,7,9,2,26,2,4487,4,0.6977141,12.57071,3.154178,-1
19,F,1,1,7,10,5,25,1,5976,0,2.378234E-07,6.492524,0,-1
19,F,1,1,7,11,5,26,2,1754,0,0.2588459,6.511282,2.172047,-1
19,F,1,1,7,12,2,27,3,1188,0,0.1704984,12.45612,0.7717707,-1
19,F,1,1,7,13,1,25,1,1388,0,0.04459551,6.439873,0.3815487,-1
19,F,1,1,7,14,1,27,3,4865,0,0.1977037,6.466032,1.660361,-1
19,F,1,1,7,15,1,28,4,4610,1,0.08050822,6.475893,0.6801254,-1
19,F,1,1,7,16,6,25,1,3021,2,0.6970412,12.44627,3.189973,-1
19,F,1,1,8,1,1,30,2,1743,0,1.170951E-07,6.512327,0,-1
19,F,1,1,8,2,6,32,4,3065,0,0.05799718,12.46529,0.2609472,-1
19,F,1,1,8,3,1,29,1,2254,0,0.1798919,6.434943,1.55658,-1
19,F,1,1,8,4,5,30,2,1276,0,0.5214239,6.503599,4.410244,-1
19,F,1,1,8,5,2,29,1,3232,1,0.8213925,12.4033,3.758903,-1
19,F,1,1,8,6,5,32,4,2743,1,0.04716224,6.472064,0.4000739,-1
19,F,1,1,8,7,2,30,2,1676,0,0.9037306,12.55102,4.071311,-1
19,F,1,1,8,8,1,32,4,4165,0,0.3776344,6.470703,3.192305,-1
19,F,1,1,8,9,5,31,3,2544,0,0.2032779,6.487355,1.71703,-1
19,F,1,1,8,10,5,29,1,1632,0,0.2677776,6.430317,2.326499,-1
19,F,1,1,8,11,2,31,3,1499,0,0.1998293,12.45814,0.902006,-1
19,F,1,1,8,12,6,29,1,2343,2,0.5500548,12.4008,2.516373,-1
19,F,1,1,8,13,2,32,4,1299,0,6.461833E-08,12.41925,0,-1
19,F,1,1,8,14,1,31,3,1399,0,0.453261,6.458168,3.789771,-1
19,F,1,1,8,15,6,30,2,3854,0,0.2671922,12.49722,1.207232,-1
19,F,1,1,8,16,6,31,3,4154,0,0.4420491,12.4502,1.988594,-1
19,F,1,1,9,1,6,33,1,2643,2,0.220456,12.43848,1.001906,-1
19,F,1,1,9,2,5,34,2,2576,0,0.1766871,6.50354,1.483321,-1
19,F,1,1,9,3,1,33,1,1277,0,0.401977,6.432136,3.500845,-1
19,F,1,1,9,4,2,35,3,2343,1,1.054439,12.45192,4.784464,-1
19,F,1,1,9,5,2,33,1,3566,0,0.7684985,12.40918,3.521422,-1
19,F,1,1,9,6,5,36,4,3376,0,0.5274378,6.45576,4.514707,-1
19,F,1,1,9,7,2,34,2,1910,1,0.3602521,12.55483,1.624617,-1
19,F,1,1,9,8,6,36,4,3065,0,0.5555045,12.43578,2.500924,-1
19,F,1,1,9,9,6,35,3,3021,0,0.6951934,12.46393,3.114076,-1
19,F,1,1,9,10,1,34,2,3177,0,0.07573292,6.507534,0.635814,-1
19,F,1,1,9,11,1,35,3,2754,0,0.02784675,6.453875,0.235734,-1
19,F,1,1,9,12,1,36,4,2610,0,0.3395051,6.469287,2.87174,-1
19,F,1,1,9,13,5,35,3,2599,0,0.3702796,6.486109,3.074916,-1
19,F,1,1,9,14,6,34,2,2165,0,0.7199507,12.55705,3.265667,-1
19,F,1,1,9,15,5,33,1,1410,0,0.3767476,6.476274,3.248958,-1
19,F,1,1,9,16,2,36,4,2154,0,5.311994E-08,12.41512,0,-1
19,F,1,1,10,1,6,38,2,1855,1,0.492295,12.5507,2.234671,-1
19,F,1,1,10,2,2,37,1,3220,1,0.4743513,12.39154,2.143202,-1
19,F,1,1,10,3,5,40,4,3065,0,0.301163,6.458409,2.572529,-1
19,F,1,1,10,4,2,38,2,2122,0,0.5767266,12.55706,2.609396,-1
19,F,1,1,10,5,6,37,1,9999,0,-1,-1,-1,-1
19,F,1,1,10,6,5,39,3,1543,0,0.4325864,6.501856,3.657305,-1
19,F,1,1,10,7,1,37,1,7554,7,0.403745,6.440733,3.43148,-1
19,F,1,1,10,8,5,38,2,1520,0,0.4842268,6.514367,4.080584,-1
19,F,1,1,10,9,6,39,3,4232,1,1.065946,12.46187,4.857566,-1
19,F,1,1,10,10,1,40,4,2743,0,0.0544699,6.478855,0.4584226,-1
19,F,1,1,10,11,5,37,1,1199,0,0.4160931,6.473806,3.594121,-1
19,F,1,1,10,12,1,38,2,1499,0,9.052011E-09,6.516033,0,-1
19,F,1,1,10,13,6,40,4,2955,0,0.4126837,12.41719,1.85878,-1
19,F,1,1,10,14,1,39,3,2810,0,0.317487,6.46337,2.655349,-1
19,F,1,1,10,15,2,40,4,2143,0,0.3978745,12.42098,1.808294,-1
19,F,1,1,10,16,2,39,3,1410,0,0.677359,12.44891,3.069181,-1
19,F,1,1,11,1,3,41,1,1310,0,1.432568E-08,6.442597,0,-1
19,F,1,1,11,2,3,43,3,1831,0,2.397886E-07,6.469624,0,-1
19,F,1,1,11,3,6,44,4,2710,0,0.0545578,12.46302,0.2462884,-1
19,F,1,1,11,4,3,42,2,2410,0,0.3290835,6.490528,2.759957,-1
19,F,1,1,11,5,4,41,1,5421,5,0.834465,12.39832,3.82039,-1
19,F,1,1,11,6,5,42,2,2099,1,0.2183327,6.477655,1.847268,-1
19,F,1,1,11,7,4,44,4,1810,0,0.1770636,12.41826,0.800886,-1
19,F,1,1,11,8,4,43,3,1554,0,0.1457494,12.45227,0.6552143,-1
19,F,1,1,11,9,5,44,4,2787,0,0.3872127,6.474652,3.279427,-1
19,F,1,1,11,10,6,41,1,2410,0,0.2575276,12.41,1.162306,-1
19,F,1,1,11,11,4,42,2,1265,0,0.5897111,12.55236,2.656676,-1
19,F,1,1,11,12,3,44,4,2476,0,0.3658078,6.469923,3.105388,-1
19,F,1,1,11,13,5,43,3,1588,0,0.3956475,6.496696,3.349423,-1
19,F,1,1,11,14,5,41,1,2110,0,0.02548653,6.487457,0.2167048,-1
19,F,1,1,11,15,6,43,3,2787,1,1.061675,12.42651,4.749328,-1
19,F,1,1,11,16,6,42,2,1443,0,0.6955939,12.55997,3.150451,-1
19,F,1,1,12,1,4,47,3,2376,0,0.3686137,12.4504,1.671052,-1
19,F,1,1,12,2,5,48,4,2310,0,1.406534E-07,6.475575,0,-1
19,F,1,1,12,3,3,46,2,1954,0,0.4461295,6.499331,3.853969,-1
19,F,1,1,12,4,5,45,1,1487,0,0.4692721,6.447939,4.077222,-1
19,F,1,1,12,5,6,47,3,3021,0,0.7244313,12.44891,3.296872,-1
19,F,1,1,12,6,6,45,1,2654,2,0.9288497,12.39821,4.253352,-1
19,F,1,1,12,7,6,48,4,1476,0,0.3220484,12.44319,1.451852,-1
19,F,1,1,12,8,4,46,2,6198,5,1.056563,12.55239,4.740203,-1
19,F,1,1,12,9,5,47,3,1176,0,0.1776613,6.481372,1.520585,-1
19,F,1,1,12,10,3,45,1,3099,2,0.377748,6.428626,3.279725,-1
19,F,1,1,12,11,4,48,4,4854,1,0.9168988,12.42486,4.178702,-1
19,F,1,1,12,12,5,46,2,2198,1,0.1524026,6.482377,1.290891,-1
19,F,1,1,12,13,4,45,1,4521,2,0.6923578,12.40909,3.164711,-1
19,F,1,1,12,14,6,46,2,1454,0,0.7844416,12.55351,3.564198,-1
19,F,1,1,12,15,3,48,4,2465,0,0.179792,6.472762,1.525083,-1
19,F,1,1,12,16,3,47,3,2432,0,0.4612085,6.455908,3.878736,-1
19,F,1,1,13,1,3,50,2,1943,0,0.09169447,6.50286,0.7730374,-1
19,F,1,1,13,2,5,52,4,2499,0,0.03035701,6.470212,0.2586879,-1
19,F,1,1,13,3,6,49,1,2587,1,0.3398853,12.44347,1.548766,-1
19,F,1,1,13,4,5,50,2,1643,0,1.066393E-07,6.509829,0,-1
19,F,1,1,13,5,6,52,4,3277,0,0.5855808,12.4684,2.668512,-1
19,F,1,1,13,6,4,50,2,3143,2,0.9948083,12.55674,4.504457,-1
19,F,1,1,13,7,4,51,3,1110,0,0.4739327,12.45063,2.147398,-1
19,F,1,1,13,8,5,49,1,1443,0,0.3346201,6.45398,2.890018,-1
19,F,1,1,13,9,6,51,3,1443,0,0.2304334,12.44814,1.04155,-1
19,F,1,1,13,10,3,52,4,4765,1,0.4542692,6.480765,3.810639,-1
19,F,1,1,13,11,4,49,1,6410,0,0.2579035,12.40977,1.16382,-1
19,F,1,1,13,12,3,51,3,1154,0,0.1949982,6.46635,1.630509,-1
19,F,1,1,13,13,3,49,1,1154,0,0.298979,6.435432,2.589819,-1
19,F,1,1,13,14,6,50,2,2521,1,0.3336034,12.55557,1.506362,-1
19,F,1,1,13,15,4,52,4,2588,1,0.5257059,12.41616,2.366702,-1
19,F,1,1,13,16,5,51,3,2632,0,0.4499936,6.495135,3.81105,-1
19,F,1,1,14,1,5,54,2,1510,0,0.3866913,6.501078,3.264468,-1
19,F,1,1,14,2,4,55,3,2421,1,0.4477923,12.44738,2.013437,-1
19,F,1,1,14,3,4,56,4,2065,0,0.2491842,12.42384,1.122742,-1
19,F,1,1,14,4,3,53,1,1110,0,0.2876122,6.428439,2.493714,-1
19,F,1,1,14,5,4,54,2,1621,0,0.7660881,12.55838,3.472544,-1
19,F,1,1,14,6,3,56,4,3099,0,0.4523171,6.471137,3.840073,-1
19,F,1,1,14,7,6,54,2,2765,1,0.267472,12.55,1.203985,-1
19,F,1,1,14,8,4,53,1,2176,1,0.7567917,12.40142,3.479753,-1
19,F,1,1,14,9,6,55,3,1432,0,0.8161324,12.45479,3.667463,-1
19,F,1,1,14,10,5,56,4,2743,1,0.2890642,6.469339,2.433572,-1
19,F,1,1,14,11,5,55,3,2365,0,0.3146584,6.459714,2.620026,-1
19,F,1,1,14,12,5,53,1,2688,1,0.08450263,6.454427,0.7236168,-1
19,F,1,1,14,13,3,54,2,2399,0,1.912643E-08,6.510818,0,-1
19,F,1,1,14,14,3,55,3,1776,0,0.2627276,6.456972,2.21576,-1
19,F,1,1,14,15,6,53,1,2487,0,0.2725148,12.40658,1.238437,-1
19,F,1,1,14,16,6,56,4,1732,0,0.506205,12.4178,2.305626,-1
19,F,1,1,15,1,4,58,2,1377,0,0.1194668,12.54415,0.5359538,-1
19,F,1,1,15,2,4,57,1,5365,3,0.3577121,12.40076,1.629188,-1
19,F,1,1,15,3,5,60,4,2632,1,0.01641633,6.475872,0.1370561,-1
19,F,1,1,15,4,6,57,1,2099,1,0.5786405,12.40039,2.64375,-1
19,F,1,1,15,5,6,58,2,1610,0,0.9305692,12.5562,4.214124,-1
19,F,1,1,15,6,6,59,3,1298,0,1.057842,12.44907,4.833308,-1
19,F,1,1,15,7,5,58,2,2443,0,0.01477198,6.503544,0.1251145,-1
19,F,1,1,15,8,3,60,4,2677,0,0.2094859,6.474802,1.776631,-1
19,F,1,1,15,9,3,59,3,1387,0,2.767656E-07,6.454823,0,-1
19,F,1,1,15,10,4,60,4,1288,0,0.2862583,12.41937,1.289678,-1
19,F,1,1,15,11,5,59,3,8265,1,0.07783777,6.490946,0.6549156,-1
19,F,1,1,15,12,3,58,2,2221,0,0.2524079,6.509462,2.099563,-1
19,F,1,1,15,13,3,57,1,1532,0,0.2703222,6.429366,2.348354,-1
19,F,1,1,15,14,4,59,3,1099,0,0.5610998,12.45546,2.543067,-1
19,F,1,1,15,15,6,60,4,3343,3,3.458091E-08,12.43533,0,-1
19,F,1,1,15,16,5,57,1,1165,0,0.3318792,6.450996,2.866486,-1
19,F,1,1,16,1,5,62,2,1699,0,0.3542758,6.507648,2.993821,-1
19,F,1,1,16,2,6,61,1,3199,3,0.9256743,12.39513,4.248376,-1
19,F,1,1,16,3,5,63,3,2165,0,0.137233,6.466074,1.1525,-1
19,F,1,1,16,4,4,61,1,2210,2,0.2792705,12.39571,1.271648,-1
19,F,1,1,16,5,3,62,2,2277,0,0.164538,6.499938,1.388185,-1
19,F,1,1,16,6,4,63,3,2198,0,0.590872,12.45881,2.661755,-1
19,F,1,1,16,7,6,64,4,1876,0,1.647056E-07,12.46581,0,-1
19,F,1,1,16,8,4,62,2,1954,1,0.5017076,12.55571,2.270124,-1
19,F,1,1,16,9,5,61,1,1266,0,0.02718609,6.432507,0.2315465,-1
19,F,1,1,16,10,4,64,4,1509,0,0.700651,12.42145,3.191814,-1
19,F,1,1,16,11,6,62,2,1899,1,0.8201182,12.53473,3.716784,-1
19,F,1,1,16,12,6,63,3,1765,0,0.4520826,12.42778,2.048704,-1
19,F,1,1,16,13,5,64,4,2898,0,0.1452092,6.479467,1.239384,-1
19,F,1,1,16,14,3,63,3,1321,0,0.03229703,6.45245,0.2741124,-1
19,F,1,1,16,15,3,64,4,2377,0,0.307508,6.477251,2.603388,-1
19,F,1,1,16,16,3,61,1,1143,0,0.4797477,6.425424,4.164053,-1
19,F,1,1,17,1,3,67,3,1488,0,0.2519565,6.45368,2.168801,-1
19,F,1,1,17,2,4,66,2,1976,1,0.6353675,12.56026,2.836418,-1
19,F,1,1,17,3,4,65,1,3431,3,0.9692201,12.38342,4.44378,-1
19,F,1,1,17,4,3,68,4,2010,0,0.1066746,6.474815,0.9004862,-1
19,F,1,1,17,5,3,65,1,3133,2,0.5166257,6.41364,4.492831,-1
19,F,1,1,17,6,3,66,2,1699,0,4.2933E-08,6.507399,0,-1
19,F,1,1,17,7,5,67,3,2243,0,0.07112617,6.49515,0.5993783,-1
19,F,1,1,17,8,6,65,1,7076,3,0.530165,12.41885,2.422932,-1
19,F,1,1,17,9,4,68,4,1332,0,0.7035394,12.42228,3.209369,-1
19,F,1,1,17,10,6,67,3,3109,0,0.2545733,12.45112,1.15267,-1
19,F,1,1,17,11,5,66,2,1743,0,0.08350161,6.508438,0.7022079,-1
19,F,1,1,17,12,5,68,4,3599,0,0.1962234,6.467208,1.662599,-1
19,F,1,1,17,13,5,65,1,3221,2,0.1788137,6.452235,1.519812,-1
19,F,1,1,17,14,4,67,3,1243,0,0.6162157,12.45868,2.786988,-1
19,F,1,1,17,15,6,66,2,1387,0,1.059073,12.55776,4.79567,-1
19,F,1,1,17,16,6,68,4,2132,0,0.7128052,12.41023,3.197452,-1
19,F,1,1,18,1,5,70,2,1421,0,0.5153152,6.501475,4.405356,-1
19,F,1,1,18,2,5,69,1,1821,0,0.2117075,6.451261,1.834297,-1
19,F,1,1,18,3,6,71,3,1288,0,0.455265,12.45473,2.045741,-1
19,F,1,1,18,4,6,70,2,1721,0,0.3959216,12.51015,1.79406,-1
19,F,1,1,18,5,3,69,1,1221,0,0.4657655,6.427225,4.041426,-1
19,F,1,1,18,6,4,72,4,1276,0,0.2327436,12.42083,1.056103,-1
19,F,1,1,18,7,6,69,1,3510,0,0.840109,12.43254,3.813259,-1
19,F,1,1,18,8,3,71,3,1343,0,0.3106718,6.464679,2.610221,-1
19,F,1,1,18,9,3,70,2,2465,0,0.3098331,6.501966,2.645231,-1
19,F,1,1,18,10,3,72,4,7987,0,0.3343034,6.47307,2.808119,-1
19,F,1,1,18,11,4,71,3,1176,0,0.4487343,12.44907,2.032688,-1
19,F,1,1,18,12,5,72,4,2699,0,0.54012,6.461631,4.616643,-1
19,F,1,1,18,13,5,71,3,3021,0,0.2170294,6.489368,1.816931,-1
19,F,1,1,18,14,4,69,1,3754,2,0.1949611,12.39516,0.8855863,-1
19,F,1,1,18,15,4,70,2,1499,0,0.05621232,12.55513,0.2525642,-1
19,F,1,1,18,16,6,72,4,3720,0,1.030567,12.46064,4.634852,-1
19,F,1,1,1,1,10,3,3,2710,0,-1,-1,-1,0
19,F,1,1,1,2,10,1,1,4410,0,-1,-1,-1,1
19,F,1,1,1,3,9,4,4,2076,0,-1,-1,-1,0
19,F,1,1,1,4,8,1,1,2421,0,-1,-1,-1,0
19,F,1,1,1,5,9,2,2,1899,0,-1,-1,-1,1
19,F,1,1,1,6,9,3,3,2610,0,-1,-1,-1,0
19,F,1,1,1,7,10,4,4,1510,0,-1,-1,-1,0
19,F,1,1,1,8,9,1,1,2010,0,-1,-1,-1,1
19,F,1,1,1,9,10,2,2,1832,0,-1,-1,-1,1
19,F,1,1,1,10,7,3,3,1399,0,-1,-1,-1,1
19,F,1,1,1,11,8,2,2,1932,0,-1,-1,-1,0
19,F,1,1,1,12,7,4,4,1288,0,-1,-1,-1,0
19,F,1,1,1,13,8,3,3,2054,0,-1,-1,-1,1
19,F,1,1,1,14,7,1,1,999,0,-1,-1,-1,1
19,F,1,1,1,15,8,4,4,1332,0,-1,-1,-1,0
19,F,1,1,1,16,7,2,2,1776,0,-1,-1,-1,1
19,F,1,1,2,1,8,2,2,2032,0,-1,-1,-1,1
19,F,1,1,2,2,10,1,1,1565,0,-1,-1,-1,0
19,F,1,1,2,3,7,2,2,2088,0,-1,-1,-1,1
19,F,1,1,2,4,8,3,3,4421,0,-1,-1,-1,0
19,F,1,1,2,5,9,1,1,3521,0,-1,-1,-1,0
19,F,1,1,2,6,10,4,4,3588,0,-1,-1,-1,1
19,F,1,1,2,7,7,3,3,1565,0,-1,-1,-1,0
19,F,1,1,2,8,8,1,1,4410,0,-1,-1,-1,1
19,F,1,1,2,9,7,4,4,2587,0,-1,-1,-1,0
19,F,1,1,2,10,9,3,3,2243,0,-1,-1,-1,0
19,F,1,1,2,11,8,4,4,1754,0,-1,-1,-1,0
19,F,1,1,2,12,9,2,2,2254,0,-1,-1,-1,1
19,F,1,1,2,13,10,3,3,5710,0,-1,-1,-1,1
19,F,1,1,2,14,9,4,4,3488,0,-1,-1,-1,0
19,F,1,1,2,15,10,2,2,2843,0,-1,-1,-1,1
19,F,1,1,2,16,7,1,1,2610,0,-1,-1,-1,1
