Age, Gender, Awareness Type, Session, Block, Trial, Set, Pattern, Quadrant, Response Time, Num Mistakes, Distance From Target, Camera Distance From Target, Angle Error (Degrees), FC Response
19,F,1,1,1,1,2,3,3,2432,0,0.7431696,12.39567,3.39644,-1
19,F,1,1,1,2,2,1,1,3710,1,0.9500892,12.44641,4.291902,-1
19,F,1,1,1,3,6,2,2,4332,0,0.9393131,12.35227,4.2469,-1
19,F,1,1,1,4,2,4,4,3721,0,0.8783859,12.48132,3.922063,-1
19,F,1,1,1,5,5,1,1,6421,3,0.1118469,6.440018,0.9435682,-1
19,F,1,1,1,6,6,4,4,3732,0,0.9046314,12.4806,4.082023,-1
19,F,1,1,1,7,1,3,3,2032,0,0.2545765,6.494824,2.128816,-1
19,F,1,1,1,8,6,1,1,2510,0,0.739983,12.42146,3.372781,-1
19,F,1,1,1,9,5,2,2,1566,0,0.305035,6.375329,2.610521,-1
19,F,1,1,1,10,1,4,4,4176,1,0.2884721,6.426869,2.424466,-1
19,F,1,1,1,11,2,2,2,1543,0,0.6887364,12.36587,3.111686,-1
19,F,1,1,1,12,5,3,3,3687,0,0.4403563,6.487298,3.730772,-1
19,F,1,1,1,13,5,4,4,3176,0,0.1135334,6.430839,0.9596078,-1
19,F,1,1,1,14,1,2,2,1243,0,0.2636139,6.385779,2.254291,-1
19,F,1,1,1,15,1,1,1,3110,0,0.2490739,6.405605,2.105428,-1
19,F,1,1,1,16,6,3,3,2455,0,0.613319,12.41221,2.767535,-1
19,F,1,1,2,1,6,8,4,3054,1,0.8022411,12.47734,3.6483,-1
19,F,1,1,2,2,5,5,1,1442,0,0.3588283,6.405756,3.039313,-1
19,F,1,1,2,3,5,7,3,3132,0,0.4954112,6.499476,4.142882,-1
19,F,1,1,2,4,2,8,4,3132,1,0.4932716,12.48495,2.208505,-1
19,F,1,1,2,5,2,7,3,2132,0,0.2932027,12.40255,1.318637,-1
19,F,1,1,2,6,1,6,2,1799,1,2.511653E-07,6.385356,0,-1
19,F,1,1,2,7,6,7,3,1076,0,0.2988127,12.40239,1.356529,-1
19,F,1,1,2,8,6,6,2,4899,0,1.015549,12.37908,4.609722,-1
19,F,1,1,2,9,1,7,3,3776,0,0.5341868,6.494761,4.478991,-1
19,F,1,1,2,10,1,5,1,1254,0,0.2176672,6.399388,1.838347,-1
19,F,1,1,2,11,5,8,4,2276,0,0.5259586,6.420433,4.406156,-1
19,F,1,1,2,12,5,6,2,3077,2,0.2125524,6.382324,1.818438,-1
19,F,1,1,2,13,1,8,4,4199,2,0.1850666,6.42652,1.560598,-1
19,F,1,1,2,14,2,5,1,1376,0,1.048644,12.45221,4.801426,-1
19,F,1,1,2,15,2,6,2,3176,2,0.1005116,12.36147,0.4545648,-1
19,F,1,1,2,16,6,5,1,3187,2,0.4542527,12.42653,2.032207,-1
19,F,1,1,3,1,1,11,3,3443,2,0.2101955,6.566841,1.739563,-1
19,F,1,1,3,2,6,12,4,6721,2,1.192027E-07,12.47679,0,-1
19,F,1,1,3,3,6,10,2,4565,2,0.8079706,12.38157,3.664205,-1
19,F,1,1,3,4,2,9,1,1410,0,0.5132073,12.44729,2.320266,-1
19,F,1,1,3,5,5,11,3,3221,0,0.337108,6.464942,2.858828,-1
19,F,1,1,3,6,1,10,2,1754,1,0.1439986,6.383512,1.2321,-1
19,F,1,1,3,7,1,12,4,3565,2,0.006484048,6.433712,0.05233916,-1
19,F,1,1,3,8,6,11,3,1765,0,0.0867527,12.3902,0.3916712,-1
19,F,1,1,3,9,1,9,1,1276,0,0.02162479,6.40488,0.183454,-1
19,F,1,1,3,10,2,10,2,3621,2,0.2841613,12.36654,1.293768,-1
19,F,1,1,3,11,6,9,1,876,0,0.3705313,12.42469,1.689918,-1
19,F,1,1,3,12,2,11,3,3332,0,0.9305892,12.39909,4.161937,-1
19,F,1,1,3,13,5,10,2,1665,1,7.933868E-08,6.379067,0,-1
19,F,1,1,3,14,5,12,4,2165,0,0.5432642,6.412775,4.577057,-1
19,F,1,1,3,15,5,9,1,954,0,0.1805969,6.386456,1.530846,-1
19,F,1,1,3,16,2,12,4,2421,0,0.7844071,12.46738,3.505596,-1
19,F,1,1,4,1,6,15,3,1787,0,0.1047593,12.37675,0.4747775,-1
19,F,1,1,4,2,1,14,2,1188,0,0.4511786,6.371655,3.870144,-1
19,F,1,1,4,3,2,15,3,1899,0,0.8822147,12.39209,3.947296,-1
19,F,1,1,4,4,6,16,4,4655,3,0.9493014,12.46963,4.316247,-1
19,F,1,1,4,5,1,13,1,1610,0,0.01492104,6.390802,0.1266688,-1
19,F,1,1,4,6,6,14,2,2110,0,0.4759822,12.34558,2.170515,-1
19,F,1,1,4,7,5,13,1,1688,0,1.241261E-07,6.381971,0.01978234,-1
19,F,1,1,4,8,5,16,4,3688,2,0.1848006,6.435784,1.564731,-1
19,F,1,1,4,9,6,13,1,1177,0,0.3302971,12.43866,1.480416,-1
19,F,1,1,4,10,2,14,2,1565,0,0.3830938,12.35581,1.729975,-1
19,F,1,1,4,11,1,16,4,3932,1,0.03842501,6.415964,0.3274564,-1
19,F,1,1,4,12,1,15,3,3588,0,0.02607235,6.472911,0.2211734,-1
19,F,1,1,4,13,5,14,2,1310,0,1.968732E-07,6.372508,0,-1
19,F,1,1,4,14,5,15,3,3221,0,0.4164765,6.458709,3.529086,-1
19,F,1,1,4,15,2,16,4,2543,0,2.794412E-07,12.46918,0,-1
19,F,1,1,4,16,2,13,1,999,0,0.1508245,12.43985,0.6832828,-1
19,F,1,1,5,1,5,20,4,3643,0,0.465555,6.417355,3.911864,-1
19,F,1,1,5,2,1,17,1,1054,0,0.157575,6.394165,1.343338,-1
19,F,1,1,5,3,5,19,3,4321,2,0.04120976,6.450648,0.3477423,-1
19,F,1,1,5,4,2,17,1,866,0,0.6731814,12.44766,3.058959,-1
19,F,1,1,5,5,5,18,2,1388,0,0.09096026,6.38945,0.7800927,-1
19,F,1,1,5,6,6,19,3,2354,0,0.3876537,12.39136,1.744843,-1
19,F,1,1,5,7,2,20,4,1643,0,0.9307449,12.46916,4.160148,-1
19,F,1,1,5,8,2,18,2,1354,0,1.82867E-07,12.34947,0,-1
19,F,1,1,5,9,2,19,3,2399,0,0.3794698,12.39053,1.706283,-1
19,F,1,1,5,10,6,17,1,998,0,0.5082341,12.42448,2.318578,-1
19,F,1,1,5,11,6,20,4,2765,0,0.8801794,12.45555,3.92785,-1
19,F,1,1,5,12,6,18,2,1310,0,0.4388495,12.34555,2.005353,-1
19,F,1,1,5,13,1,19,3,2743,0,0.2515219,6.47632,2.118587,-1
19,F,1,1,5,14,1,20,4,4899,2,0.5043952,6.405163,4.245701,-1
19,F,1,1,5,15,1,18,2,1110,0,0.01904272,6.3728,0.1631294,-1
19,F,1,1,5,16,5,17,1,1410,0,8.987319E-08,6.376587,0,-1
19,F,1,1,6,1,2,23,3,1954,0,0.3147353,12.37829,1.432721,-1
19,F,1,1,6,2,6,21,1,865,0,0.5164617,12.43157,2.330198,-1
19,F,1,1,6,3,2,22,2,1165,0,0.07994151,12.35237,0.3636945,-1
19,F,1,1,6,4,5,24,4,1810,0,0.3418885,6.408657,2.888596,-1
19,F,1,1,6,5,5,23,3,3843,0,0.4245806,6.471492,3.598041,-1
19,F,1,1,6,6,1,22,2,1088,0,0.1407886,6.371614,1.214343,-1
19,F,1,1,6,7,1,23,3,3065,0,1.301643E-07,6.473021,0,-1
19,F,1,1,6,8,2,21,1,721,0,0.1060144,12.43112,0.4792896,-1
19,F,1,1,6,9,2,24,4,5798,0,0.6367307,12.46628,2.888663,-1
19,F,1,1,6,10,5,21,1,1754,1,0.221376,6.394346,1.899913,-1
19,F,1,1,6,11,6,22,2,2721,2,0.9140035,12.35689,4.122411,-1
19,F,1,1,6,12,1,24,4,4154,1,1.457309E-07,6.399409,0,-1
19,F,1,1,6,13,1,21,1,1476,1,0.5259909,6.380704,4.526666,-1
19,F,1,1,6,14,5,22,2,1432,0,0.1755082,6.35896,1.494493,-1
19,F,1,1,6,15,6,24,4,7299,5,0.02649427,12.46165,0.1170339,-1
19,F,1,1,6,16,6,23,3,4221,1,0.1679017,12.3935,0.7625886,-1
19,F,1,1,7,1,2,25,1,921,0,0.21755,12.4315,0.98437,-1
19,F,1,1,7,2,1,26,2,1632,0,0.297759,6.371412,2.560938,-1
19,F,1,1,7,3,6,27,3,1721,0,0.2288021,12.37763,1.037598,-1
19,F,1,1,7,4,6,28,4,2843,0,3.415106E-08,12.44923,0,-1
19,F,1,1,7,5,5,27,3,2988,0,0.1882929,6.471334,1.592868,-1
19,F,1,1,7,6,6,26,2,1943,0,0.5761421,12.35857,2.637376,-1
19,F,1,1,7,7,1,28,4,2865,0,4.287483E-08,6.400981,0,-1
19,F,1,1,7,8,2,26,2,1477,0,0.7807201,12.33654,3.551154,-1
19,F,1,1,7,9,6,25,1,999,0,0.2567493,12.40978,1.153518,-1
19,F,1,1,7,10,5,28,4,3387,0,0.0749272,6.40046,0.6422443,-1
19,F,1,1,7,11,1,25,1,1076,0,0.0667996,6.377242,0.5702693,-1
19,F,1,1,7,12,2,27,3,1943,0,0.7468631,12.37222,3.427484,-1
19,F,1,1,7,13,5,25,1,999,0,0.39009,6.37708,3.314344,-1
19,F,1,1,7,14,1,27,3,2487,0,0.2429244,6.472444,2.070087,-1
19,F,1,1,7,15,5,26,2,1832,0,0.1174756,6.362013,0.9997552,-1
19,F,1,1,7,16,2,28,4,1488,0,0.1176009,12.45925,0.5278606,-1
19,F,1,1,8,1,6,31,3,4398,1,0.7367073,12.37091,3.39171,-1
19,F,1,1,8,2,5,30,2,1077,0,0.230019,6.364582,1.957448,-1
19,F,1,1,8,3,1,31,3,3643,0,3.888746E-08,6.461587,0,-1
19,F,1,1,8,4,2,32,4,2732,0,0.6325373,12.45993,2.876303,-1
19,F,1,1,8,5,1,30,2,1699,1,0.04002462,6.372478,0.343781,-1
19,F,1,1,8,6,1,29,1,1354,0,0.04690284,6.379519,0.4005627,-1
19,F,1,1,8,7,1,32,4,2709,0,7.167351E-08,6.398069,0,-1
19,F,1,1,8,8,5,31,3,2853,0,1.48473E-07,6.443501,0,-1
19,F,1,1,8,9,6,29,1,1954,1,0.8530641,12.42213,3.828992,-1
19,F,1,1,8,10,6,32,4,2476,0,0.5197398,12.46221,2.36074,-1
19,F,1,1,8,11,2,29,1,2276,1,0.4867511,12.42366,2.181219,-1
19,F,1,1,8,12,2,31,3,2443,0,0.1325436,12.36682,0.6013339,-1
19,F,1,1,8,13,5,29,1,1188,0,0.05202486,6.380126,0.4476244,-1
19,F,1,1,8,14,6,30,2,2187,0,0.8226709,12.3666,3.779734,-1
19,F,1,1,8,15,5,32,4,2266,0,0.2259144,6.419015,1.90711,-1
19,F,1,1,8,16,2,30,2,1965,0,0.4640917,12.35976,2.091719,-1
19,F,1,1,9,1,1,36,4,3871,0,0.3726793,6.40774,3.134628,-1
19,F,1,1,9,2,6,34,2,1543,0,0.3926384,12.3485,1.777842,-1
19,F,1,1,9,3,2,35,3,2810,0,0.0913497,12.37888,0.414487,-1
19,F,1,1,9,4,5,33,1,1210,0,0.2382121,6.379532,2.05795,-1
19,F,1,1,9,5,2,34,2,1565,0,0.8138747,12.37269,3.655752,-1
19,F,1,1,9,6,2,33,1,1043,0,0.7443632,12.43374,3.33736,-1
19,F,1,1,9,7,5,35,3,2676,0,0.3854935,6.475718,3.257263,-1
19,F,1,1,9,8,5,34,2,1288,0,0.5120406,6.370233,4.375422,-1
19,F,1,1,9,9,1,35,3,2532,0,5.644214E-08,6.476359,0,-1
19,F,1,1,9,10,1,34,2,1187,0,0.1091373,6.372763,0.9352362,-1
19,F,1,1,9,11,2,36,4,2865,1,0.653258,12.4632,2.937183,-1
19,F,1,1,9,12,6,35,3,4732,0,0.60506,12.38344,2.775516,-1
19,F,1,1,9,13,6,33,1,821,0,0.3273574,12.41848,1.470602,-1
19,F,1,1,9,14,6,36,4,2921,1,0.2420557,12.43901,1.086965,-1
19,F,1,1,9,15,1,33,1,1054,0,0.1286781,6.384798,1.093785,-1
19,F,1,1,9,16,5,36,4,6443,0,0.07457923,6.419257,0.6382713,-1
19,F,1,1,10,1,6,37,1,9999,0,-1,-1,-1,-1
19,F,1,1,10,2,6,38,2,1321,0,0.4821599,12.34044,2.174929,-1
19,F,1,1,10,3,6,39,3,2298,0,0.8887509,12.37709,4.068856,-1
19,F,1,1,10,4,1,38,2,1265,0,0.5082311,6.380724,4.354782,-1
19,F,1,1,10,5,6,40,4,2287,0,0.1085337,12.45109,0.4897892,-1
19,F,1,1,10,6,5,39,3,3988,1,0.3151166,6.463624,2.707977,-1
19,F,1,1,10,7,1,40,4,2287,0,0.3443489,6.402695,2.910066,-1
19,F,1,1,10,8,1,37,1,1099,0,0.3967532,6.390293,3.330842,-1
19,F,1,1,10,9,5,38,2,1443,0,0.2113253,6.379704,1.787832,-1
19,F,1,1,10,10,5,40,4,2776,0,2.598038E-08,6.411893,0,-1
19,F,1,1,10,11,5,37,1,876,0,0.1273677,6.387449,1.082455,-1
19,F,1,1,10,12,2,40,4,5876,3,0.837356,12.46147,3.801585,-1
19,F,1,1,10,13,2,37,1,2465,2,0.02549469,12.42343,0.1153499,-1
19,F,1,1,10,14,2,39,3,2565,0,0.2781995,12.37482,1.266868,-1
19,F,1,1,10,15,2,38,2,1266,0,0.6281186,12.34555,2.827086,-1
19,F,1,1,10,16,1,39,3,2321,0,0.09165341,6.471057,0.7763211,-1
19,F,1,1,11,1,6,42,2,1588,0,0.7671925,12.33592,3.497824,-1
19,F,1,1,11,2,4,43,3,2732,0,0.5356737,12.37216,2.451921,-1
19,F,1,1,11,3,4,42,2,1676,0,0.8368848,12.35197,3.853004,-1
19,F,1,1,11,4,5,41,1,1077,0,0.1775382,6.380203,1.534549,-1
19,F,1,1,11,5,5,44,4,3121,0,0.001331775,6.422746,0,-1
19,F,1,1,11,6,6,41,1,5076,1,0.2472537,12.4227,1.111531,-1
19,F,1,1,11,7,3,43,3,2977,0,2.51578E-07,6.474294,0,-1
19,F,1,1,11,8,4,44,4,2932,1,0.1846647,12.47092,0.8327476,-1
19,F,1,1,11,9,6,43,3,2254,0,0.09846269,12.37676,0.4458725,-1
19,F,1,1,11,10,5,42,2,1499,0,0.5071957,6.369174,4.300973,-1
19,F,1,1,11,11,3,41,1,1043,0,0.1630333,6.385938,1.383667,-1
19,F,1,1,11,12,3,44,4,3398,0,0.1725687,6.410372,1.459113,-1
19,F,1,1,11,13,3,42,2,1243,0,0.4341039,6.382728,3.712462,-1
19,F,1,1,11,14,5,43,3,2810,0,0.4195183,6.45852,3.542708,-1
19,F,1,1,11,15,4,41,1,843,0,0.4849921,12.43517,2.201849,-1
19,F,1,1,11,16,6,44,4,1754,0,0.7504546,12.44468,3.409041,-1
19,F,1,1,12,1,6,46,2,2543,2,0.4664224,12.3414,2.104033,-1
19,F,1,1,12,2,4,48,4,3577,0,0.8967221,12.46135,4.061872,-1
19,F,1,1,12,3,5,46,2,1365,0,0.4781463,6.37633,4.051396,-1
19,F,1,1,12,4,6,47,3,5820,0,1.042038,12.39661,4.77922,-1
19,F,1,1,12,5,6,45,1,1755,2,0.1749756,12.41971,0.7912999,-1
19,F,1,1,12,6,3,48,4,2499,0,0.2312861,6.414033,1.99007,-1
19,F,1,1,12,7,4,46,2,3943,2,0.7680117,12.34931,3.453151,-1
19,F,1,1,12,8,6,48,4,3976,2,0.8747916,12.43605,3.977443,-1
19,F,1,1,12,9,5,45,1,1143,0,0.2669357,6.383121,2.253075,-1
19,F,1,1,12,10,3,46,2,2087,2,0.1314612,6.378592,1.126744,-1
19,F,1,1,12,11,4,47,3,2421,0,0.1675878,12.38237,0.7571809,-1
19,F,1,1,12,12,3,45,1,999,0,0.2518401,6.392829,2.128081,-1
19,F,1,1,12,13,5,48,4,3043,0,0.02674977,6.422294,0.2272819,-1
19,F,1,1,12,14,3,47,3,2976,0,0.04362803,6.460753,0.3716771,-1
19,F,1,1,12,15,4,45,1,1165,0,0.7713476,12.43168,3.455758,-1
19,F,1,1,12,16,5,47,3,3099,1,1.959109E-07,6.468798,0,-1
19,F,1,1,13,1,5,52,4,2776,0,0.05921713,6.407392,0.5031891,-1
19,F,1,1,13,2,4,49,1,965,0,0.6972046,12.42912,3.12393,-1
19,F,1,1,13,3,5,51,3,3032,0,1.977374E-07,6.44121,0,-1
19,F,1,1,13,4,3,49,1,1087,0,0.2916584,6.384187,2.460129,-1
19,F,1,1,13,5,4,50,2,4932,1,0.4913855,12.34684,2.216378,-1
19,F,1,1,13,6,4,51,3,2555,1,0.5421581,12.35525,2.488764,-1
19,F,1,1,13,7,3,52,4,2787,0,0.2110516,6.390885,1.805044,-1
19,F,1,1,13,8,6,51,3,2121,0,0.09955655,12.36114,0.4515415,-1
19,F,1,1,13,9,6,52,4,2132,0,0.8591727,12.44162,3.900334,-1
19,F,1,1,13,10,6,49,1,1743,1,0.7882998,12.41329,3.526256,-1
19,F,1,1,13,11,3,50,2,1288,0,0.448771,6.375366,3.847664,-1
19,F,1,1,13,12,5,49,1,1476,1,0.5407513,6.380675,4.581548,-1
19,F,1,1,13,13,6,50,2,3299,0,0.5804629,12.36492,2.660578,-1
19,F,1,1,13,14,4,52,4,2254,0,1.658751E-07,12.45967,0,-1
19,F,1,1,13,15,3,51,3,2954,0,4.360392E-07,6.46103,0,-1
19,F,1,1,13,16,5,50,2,1277,0,0.3193022,6.376652,2.724695,-1
19,F,1,1,14,1,4,53,1,1232,0,0.8094532,12.42488,3.621744,-1
19,F,1,1,14,2,6,55,3,2110,0,0.2909669,12.36872,1.327512,-1
19,F,1,1,14,3,4,54,2,1454,0,1.015641,12.34184,4.635909,-1
19,F,1,1,14,4,5,55,3,2754,0,3.042747E-07,6.439078,0.01978234,-1
19,F,1,1,14,5,3,56,4,2599,0,1.794491E-07,6.408379,0,-1
19,F,1,1,14,6,5,54,2,1543,0,0.4715435,6.378361,3.992922,-1
19,F,1,1,14,7,4,56,4,2965,1,0.2950455,12.45475,1.339399,-1
19,F,1,1,14,8,5,53,1,1021,0,0.3181155,6.374619,2.690718,-1
19,F,1,1,14,9,3,55,3,2677,0,0.1641773,6.459034,1.401094,-1
19,F,1,1,14,10,5,56,4,2843,0,0.06804906,6.407764,0.5828267,-1
19,F,1,1,14,11,3,54,2,1143,0,0.3903317,6.37352,3.346967,-1
19,F,1,1,14,12,3,53,1,1021,0,0.2785324,6.380749,2.357919,-1
19,F,1,1,14,13,6,56,4,3009,1,0.1594358,12.44882,0.7206361,-1
19,F,1,1,14,14,6,54,2,1677,1,0.7043189,12.3519,3.169533,-1
19,F,1,1,14,15,6,53,1,1765,1,0.3907408,12.404,1.752342,-1
19,F,1,1,14,16,4,55,3,2843,0,0.1209642,12.39744,0.5482264,-1
19,F,1,1,15,1,3,60,4,2587,0,1.885502E-07,6.413839,0,-1
19,F,1,1,15,2,4,57,1,976,0,0.5965052,12.43899,2.70284,-1
19,F,1,1,15,3,6,60,4,2676,0,0.4316853,12.45167,1.955147,-1
19,F,1,1,15,4,4,59,3,2199,0,0.801472,12.3805,3.671412,-1
19,F,1,1,15,5,3,58,2,1110,0,0.4183519,6.375431,3.586213,-1
19,F,1,1,15,6,6,57,1,987,0,0.7213461,12.44236,3.261348,-1
19,F,1,1,15,7,6,58,2,1376,0,0.6440008,12.36974,2.901848,-1
19,F,1,1,15,8,4,60,4,1865,0,0.4914669,12.46478,2.203804,-1
19,F,1,1,15,9,6,59,3,3843,0,0.5750644,12.3901,2.636113,-1
19,F,1,1,15,10,4,58,2,1421,0,0.0316823,12.34606,0.1440177,-1
19,F,1,1,15,11,5,59,3,2421,0,1.665637E-07,6.475857,0,-1
19,F,1,1,15,12,5,60,4,3288,0,0.1455747,6.404205,1.234639,-1
19,F,1,1,15,13,3,59,3,3843,0,2.002298E-07,6.465686,0.01978234,-1
19,F,1,1,15,14,3,57,1,899,0,1.207376E-07,6.379525,0,-1
19,F,1,1,15,15,5,58,2,1665,1,3.713787E-07,6.382291,0,-1
19,F,1,1,15,16,5,57,1,1210,0,0.1535688,6.392551,1.314922,-1
19,F,1,1,16,1,3,62,2,1210,0,0.5182478,6.371836,4.446556,-1
19,F,1,1,16,2,4,64,4,2165,0,0.2721001,12.46408,1.234004,-1
19,F,1,1,16,3,4,63,3,2188,0,0.2139486,12.37287,0.9671232,-1
19,F,1,1,16,4,6,64,4,2632,0,1.351649E-07,12.44006,0,-1
19,F,1,1,16,5,5,62,2,1299,0,0.2265397,6.382396,1.925798,-1
19,F,1,1,16,6,5,63,3,2465,0,0.3000847,6.443308,2.539524,-1
19,F,1,1,16,7,4,61,1,799,0,0.1226181,12.42171,0.5524929,-1
19,F,1,1,16,8,4,62,2,1299,0,0.09231806,12.3406,0.4182466,-1
19,F,1,1,16,9,6,63,3,2587,0,0.5200311,12.37189,2.364468,-1
19,F,1,1,16,10,3,64,4,3243,0,0.07577168,6.398106,0.6498165,-1
19,F,1,1,16,11,6,62,2,3965,0,0.654242,12.35664,2.962005,-1
19,F,1,1,16,12,3,61,1,954,0,0.3296036,6.377608,2.7919,-1
19,F,1,1,16,13,5,64,4,3577,0,0.1092867,6.395489,0.9381608,-1
19,F,1,1,16,14,5,61,1,1599,1,0.3809406,6.370107,3.207172,-1
19,F,1,1,16,15,3,63,3,2354,0,0.1738186,6.459229,1.485167,-1
19,F,1,1,16,16,6,61,1,1454,1,0.8842202,12.39281,3.953294,-1
19,F,1,1,17,1,3,68,4,2721,0,0.1565849,6.39464,1.336034,-1
19,F,1,1,17,2,4,65,1,865,0,1.038725,12.41723,4.681697,-1
19,F,1,1,17,3,5,67,3,2843,0,0.2495457,6.444141,2.111462,-1
19,F,1,1,17,4,4,66,2,3254,2,0.9531622,12.34209,4.284595,-1
19,F,1,1,17,5,4,68,4,5543,0,0.2696325,12.44828,1.221573,-1
19,F,1,1,17,6,6,67,3,2709,0,0.8568005,12.36294,3.944169,-1
19,F,1,1,17,7,3,66,2,1188,0,0.3808669,6.367547,3.259246,-1
19,F,1,1,17,8,6,68,4,1999,0,0.9707422,12.45554,4.399528,-1
19,F,1,1,17,9,3,65,1,954,0,0.4174124,6.370835,3.515356,-1
19,F,1,1,17,10,4,67,3,2010,0,0.5367526,12.36551,2.467279,-1
19,F,1,1,17,11,5,65,1,1188,0,0.08396746,6.367658,0.7168246,-1
19,F,1,1,17,12,6,66,2,2987,1,0.7240505,12.33028,3.264768,-1
19,F,1,1,17,13,3,67,3,2987,0,0.2128133,6.46653,1.800484,-1
19,F,1,1,17,14,5,68,4,2999,0,0.01268338,6.40047,0.1083524,-1
19,F,1,1,17,15,5,66,2,1443,0,0.2714529,6.377569,2.290808,-1
19,F,1,1,17,16,6,65,1,1032,0,0.5459376,12.42047,2.447206,-1
19,F,1,1,18,1,5,71,3,2999,0,0.3780469,6.44452,3.202285,-1
19,F,1,1,18,2,6,70,2,1710,0,0.4407096,12.3398,2.0034,-1
19,F,1,1,18,3,5,69,1,1832,1,0.06799655,6.359858,0.5811456,-1
19,F,1,1,18,4,5,72,4,2521,0,0.1092224,6.40512,0.9385778,-1
19,F,1,1,18,5,4,69,1,899,0,0.352337,12.41829,1.583997,-1
19,F,1,1,18,6,6,72,4,2832,0,0.6514894,12.42849,2.962798,-1
19,F,1,1,18,7,6,69,1,932,0,0.06225727,12.40648,0.2811602,-1
19,F,1,1,18,8,4,72,4,3543,2,0.3433748,12.44914,1.547375,-1
19,F,1,1,18,9,6,71,3,2687,0,0.776429,12.38814,3.560845,-1
19,F,1,1,18,10,3,70,2,1243,0,0.4549966,6.381512,3.886553,-1
19,F,1,1,18,11,3,71,3,2832,0,4.873699E-08,6.467676,0,-1
19,F,1,1,18,12,3,69,1,943,0,0.1823114,6.38551,1.545857,-1
19,F,1,1,18,13,4,71,3,3099,0,0.7705457,12.37608,3.546189,-1
19,F,1,1,18,14,5,70,2,1343,0,0.4322409,6.370686,3.671839,-1
19,F,1,1,18,15,3,72,4,4165,0,0.09570264,6.397983,0.8211529,-1
19,F,1,1,18,16,4,70,2,3710,0,0.7421839,12.34389,3.382462,-1
19,F,1,1,1,1,7,4,4,6688,0,-1,-1,-1,0
19,F,1,1,1,2,9,2,2,2988,0,-1,-1,-1,1
19,F,1,1,1,3,10,3,3,3421,0,-1,-1,-1,0
19,F,1,1,1,4,7,2,2,1532,0,-1,-1,-1,1
19,F,1,1,1,5,9,3,3,3554,0,-1,-1,-1,1
19,F,1,1,1,6,8,1,1,5243,0,-1,-1,-1,1
19,F,1,1,1,7,8,3,3,3121,0,-1,-1,-1,0
19,F,1,1,1,8,8,4,4,4221,0,-1,-1,-1,0
19,F,1,1,1,9,8,2,2,1832,0,-1,-1,-1,0
19,F,1,1,1,10,10,1,1,1254,0,-1,-1,-1,1
19,F,1,1,1,11,10,4,4,4298,0,-1,-1,-1,1
19,F,1,1,1,12,7,3,3,1410,0,-1,-1,-1,0
19,F,1,1,1,13,7,1,1,2510,0,-1,-1,-1,0
19,F,1,1,1,14,10,2,2,4410,0,-1,-1,-1,1
19,F,1,1,1,15,9,1,1,2976,0,-1,-1,-1,0
19,F,1,1,1,16,9,4,4,2443,0,-1,-1,-1,0
19,F,1,1,2,1,10,3,3,2610,0,-1,-1,-1,1
19,F,1,1,2,2,9,4,4,2832,0,-1,-1,-1,0
19,F,1,1,2,3,10,1,1,1376,0,-1,-1,-1,0
19,F,1,1,2,4,7,3,3,2899,0,-1,-1,-1,0
19,F,1,1,2,5,7,2,2,1621,0,-1,-1,-1,1
19,F,1,1,2,6,9,3,3,3732,0,-1,-1,-1,1
19,F,1,1,2,7,8,2,2,1943,0,-1,-1,-1,0
19,F,1,1,2,8,9,1,1,1854,0,-1,-1,-1,1
19,F,1,1,2,9,10,2,2,1910,0,-1,-1,-1,1
19,F,1,1,2,10,7,4,4,2365,0,-1,-1,-1,0
19,F,1,1,2,11,8,1,1,1577,0,-1,-1,-1,1
19,F,1,1,2,12,8,4,4,2943,0,-1,-1,-1,1
19,F,1,1,2,13,8,3,3,2376,0,-1,-1,-1,0
19,F,1,1,2,14,9,2,2,1854,0,-1,-1,-1,0
19,F,1,1,2,15,10,4,4,3843,0,-1,-1,-1,0
19,F,1,1,2,16,7,1,1,1532,0,-1,-1,-1,0
