Age, Gender, Awareness Type, Session, Block, Trial, Set, Pattern, Quadrant, Response Time, Num Mistakes, Distance From Target, Camera Distance From Target, Angle Error (Degrees), FC Response
22,F,1,1,1,1,5,2,2,2754,0,0.2571731,6.574586,2.117755,-1
22,F,1,1,1,2,2,3,3,3054,0,0.9521169,12.51132,4.339914,-1
22,F,1,1,1,3,6,2,2,3332,0,0.06219904,12.55871,0.2790645,-1
22,F,1,1,1,4,5,1,1,3443,0,0.2189024,6.574905,1.815638,-1
22,F,1,1,1,5,2,4,4,4976,0,8.011286E-08,12.4888,0,-1
22,F,1,1,1,6,6,3,3,1999,0,0.8601524,12.49314,3.912165,-1
22,F,1,1,1,7,6,4,4,4465,0,0.6308804,12.51992,2.812438,-1
22,F,1,1,1,8,2,1,1,2510,0,0.7807956,12.50683,3.54663,-1
22,F,1,1,1,9,1,3,3,5754,0,0.1435023,6.505611,1.217079,-1
22,F,1,1,1,10,6,1,1,2232,0,0.01171994,12.48485,0.05595291,-1
22,F,1,1,1,11,2,2,2,2810,0,0.2412944,12.51117,1.07429,-1
22,F,1,1,1,12,5,3,3,3209,0,0.04401968,6.534691,0.3711503,-1
22,F,1,1,1,13,1,1,1,3321,0,8.609864E-08,6.57719,0,-1
22,F,1,1,1,14,1,4,4,5343,0,0.005227849,6.527519,0.04423466,-1
22,F,1,1,1,15,1,2,2,9999,3,-1,-1,-1,-1
22,F,1,1,1,16,5,4,4,5643,0,0.478963,6.491287,4.02696,-1
22,F,1,1,2,1,1,7,3,1910,0,0.240283,6.521511,2.037881,-1
22,F,1,1,2,2,1,5,1,3254,0,0.08078986,6.578465,0.6766641,-1
22,F,1,1,2,3,5,6,2,2499,0,1.322144E-07,6.567873,0,-1
22,F,1,1,2,4,2,8,4,3521,0,0.8701168,12.5017,3.882066,-1
22,F,1,1,2,5,2,7,3,5876,1,0.5165704,12.46072,2.314607,-1
22,F,1,1,2,6,6,6,2,6810,3,0.8594,12.51497,3.831139,-1
22,F,1,1,2,7,1,8,4,4854,0,0.4279014,6.493179,3.640294,-1
22,F,1,1,2,8,2,6,2,1454,0,0.3477096,12.50288,1.574704,-1
22,F,1,1,2,9,5,5,1,1921,0,0.1031611,6.578353,0.8650193,-1
22,F,1,1,2,10,5,7,3,1588,0,0.2499108,6.52598,2.122924,-1
22,F,1,1,2,11,6,5,1,1599,0,0.5395899,12.48304,2.454235,-1
22,F,1,1,2,12,1,6,2,2766,0,0.3120728,6.576859,2.642566,-1
22,F,1,1,2,13,5,8,4,2277,0,0.545799,6.508268,4.601897,-1
22,F,1,1,2,14,2,5,1,8598,3,0.701107,12.51011,3.180077,-1
22,F,1,1,2,15,6,8,4,9999,0,-1,-1,-1,-1
22,F,1,1,2,16,6,7,3,7099,0,0.7346018,12.44678,3.324488,-1
22,F,1,1,3,1,1,10,2,1587,0,4.357602E-08,6.564757,0,-1
22,F,1,1,3,2,6,12,4,1888,0,0.363728,12.49404,1.633626,-1
22,F,1,1,3,3,1,11,3,3432,0,7.415736E-08,6.520037,0.01978234,-1
22,F,1,1,3,4,1,9,1,2121,0,3.93842E-08,6.59799,0,-1
22,F,1,1,3,5,6,10,2,9999,7,-1,-1,-1,-1
22,F,1,1,3,6,5,11,3,4288,0,0.1907819,6.505085,1.604862,-1
22,F,1,1,3,7,2,9,1,2677,0,0.3081954,12.54381,1.384656,-1
22,F,1,1,3,8,5,12,4,9999,0,-1,-1,-1,-1
22,F,1,1,3,9,2,11,3,1854,1,0.993427,12.48987,4.536392,-1
22,F,1,1,3,10,2,12,4,1543,0,1.063292,12.48814,4.857768,-1
22,F,1,1,3,11,2,10,2,1099,0,0.5420716,12.51293,2.445686,-1
22,F,1,1,3,12,1,12,4,8210,1,0.09090505,6.500875,0.7722777,-1
22,F,1,1,3,13,5,9,1,2588,0,2.100702E-07,6.6174,0,-1
22,F,1,1,3,14,5,10,2,3954,1,0.2848536,6.594251,2.390728,-1
22,F,1,1,3,15,6,11,3,3543,0,0.8778917,12.51633,3.93104,-1
22,F,1,1,3,16,6,9,1,9999,2,-1,-1,-1,-1
22,F,1,1,4,1,6,16,4,2477,0,0.2337955,12.53341,1.04605,-1
22,F,1,1,4,2,1,15,3,2232,0,0.3515398,6.512619,2.925764,-1
22,F,1,1,4,3,6,14,2,1265,0,0.2315201,12.54216,1.042865,-1
22,F,1,1,4,4,2,15,3,1665,0,0.5535969,12.51577,2.477808,-1
22,F,1,1,4,5,6,13,1,1699,0,0.4404224,12.47592,1.993018,-1
22,F,1,1,4,6,2,16,4,1976,0,0.452563,12.49214,2.043443,-1
22,F,1,1,4,7,1,14,2,1810,0,0.04145958,6.567755,0.3449174,-1
22,F,1,1,4,8,1,16,4,5477,0,0.437041,6.554682,3.677434,-1
22,F,1,1,4,9,2,14,2,1732,0,0.6323912,12.51419,2.797014,-1
22,F,1,1,4,10,5,16,4,4521,2,1.236269E-07,6.517368,0,-1
22,F,1,1,4,11,6,15,3,1399,0,0.6365652,12.47724,2.856156,-1
22,F,1,1,4,12,5,13,1,1932,0,0.5437443,6.551363,4.5075,-1
22,F,1,1,4,13,5,14,2,3521,0,0.3205098,6.576294,2.632919,-1
22,F,1,1,4,14,1,13,1,4254,0,0.1861274,6.567533,1.551417,-1
22,F,1,1,4,15,5,15,3,2887,1,0.3574807,6.524041,2.982553,-1
22,F,1,1,4,16,2,13,1,5465,3,0.8577148,12.49805,3.906655,-1
22,F,1,1,5,1,1,20,4,9032,3,0.4630895,6.515554,3.875301,-1
22,F,1,1,5,2,2,19,3,2543,0,0.4628549,12.51034,2.093589,-1
22,F,1,1,5,3,2,17,1,1943,0,0.5364428,12.51961,2.435501,-1
22,F,1,1,5,4,6,19,3,1743,0,0.4122081,12.47792,1.84875,-1
22,F,1,1,5,5,6,20,4,1954,0,0.8807467,12.54416,3.917617,-1
22,F,1,1,5,6,6,18,2,2610,0,0.5714706,12.54701,2.539909,-1
22,F,1,1,5,7,1,17,1,2799,1,0.06779753,6.56853,0.564406,-1
22,F,1,1,5,8,2,20,4,1498,0,0.4648913,12.51422,2.071788,-1
22,F,1,1,5,9,5,19,3,2187,0,0.4447842,6.514487,3.699888,-1
22,F,1,1,5,10,1,18,2,2476,0,0.191999,6.587389,1.585109,-1
22,F,1,1,5,11,5,20,4,3155,0,0.4875153,6.523755,4.093999,-1
22,F,1,1,5,12,2,18,2,2798,1,0.540914,12.48319,2.437911,-1
22,F,1,1,5,13,6,17,1,1921,0,0.2542303,12.51883,1.146542,-1
22,F,1,1,5,14,5,18,2,2687,0,1.05917E-07,6.575138,0,-1
22,F,1,1,5,15,1,19,3,2032,0,0.3480291,6.546003,2.882422,-1
22,F,1,1,5,16,5,17,1,2232,0,0.178475,6.548914,1.47618,-1
22,F,1,1,6,1,2,22,2,1732,0,0.6377867,12.52092,2.840487,-1
22,F,1,1,6,2,6,21,1,1798,1,0.1577594,12.49506,0.7105184,-1
22,F,1,1,6,3,1,23,3,2754,0,0.1914451,6.543643,1.601078,-1
22,F,1,1,6,4,5,22,2,1277,0,0.3579299,6.575056,2.929909,-1
22,F,1,1,6,5,2,24,4,2610,1,0.9067512,12.51247,4.023895,-1
22,F,1,1,6,6,2,23,3,3999,0,0.8363698,12.52732,3.72026,-1
22,F,1,1,6,7,6,22,2,9999,7,-1,-1,-1,-1
22,F,1,1,6,8,5,21,1,3810,0,3.747367E-08,6.536111,0,-1
22,F,1,1,6,9,6,23,3,1799,0,1.064919,12.50722,4.835699,-1
22,F,1,1,6,10,1,24,4,5388,0,8.575604E-08,6.577281,0,-1
22,F,1,1,6,11,5,23,3,1687,0,0.05801309,6.564307,0.4829499,-1
22,F,1,1,6,12,5,24,4,3665,0,0.4640823,6.551978,3.861938,-1
22,F,1,1,6,13,2,21,1,1699,0,0.4830114,12.54573,2.185701,-1
22,F,1,1,6,14,1,22,2,1910,0,0.2251716,6.575098,1.860464,-1
22,F,1,1,6,15,6,24,4,7598,5,0.2712904,12.56023,1.215309,-1
22,F,1,1,6,16,1,21,1,4321,0,0.03227028,6.583436,0.2690692,-1
22,F,1,1,7,1,1,27,3,1399,0,0.1548522,6.559526,1.285575,-1
22,F,1,1,7,2,6,28,4,2788,0,0.5986233,12.58394,2.694353,-1
22,F,1,1,7,3,6,26,2,9999,6,-1,-1,-1,-1
22,F,1,1,7,4,2,25,1,5065,2,0.7210668,12.52876,3.264768,-1
22,F,1,1,7,5,5,28,4,3210,0,0.5385572,6.522017,4.518307,-1
22,F,1,1,7,6,2,26,2,2610,0,0.2771881,12.52501,1.250075,-1
22,F,1,1,7,7,2,27,3,2387,0,0.4606197,12.51357,2.059566,-1
22,F,1,1,7,8,5,25,1,2521,0,0.06446585,6.572923,0.5377761,-1
22,F,1,1,7,9,6,27,3,3532,1,0.8340746,12.46764,3.709243,-1
22,F,1,1,7,10,6,25,1,7787,4,0.5274669,12.60222,2.347937,-1
22,F,1,1,7,11,2,28,4,3221,0,0.0332378,12.53101,0.1493534,-1
22,F,1,1,7,12,5,26,2,2965,0,0.2375923,6.622781,1.951239,-1
22,F,1,1,7,13,1,28,4,5065,0,2.288696E-07,6.569626,0,-1
22,F,1,1,7,14,1,25,1,2099,1,0.1419913,6.594831,1.18366,-1
22,F,1,1,7,15,1,26,2,2777,1,0.2427196,6.618892,1.991643,-1
22,F,1,1,7,16,5,27,3,2988,0,0.5055116,6.578099,4.188953,-1
22,F,1,1,8,1,1,30,2,2621,0,0.404743,6.611032,3.299781,-1
22,F,1,1,8,2,6,29,1,1754,0,0.1150536,12.55582,0.5166202,-1
22,F,1,1,8,3,2,30,2,5732,4,0.8683318,12.53158,3.874341,-1
22,F,1,1,8,4,6,32,4,9999,2,-1,-1,-1,-1
22,F,1,1,8,5,1,31,3,4265,0,0.3122232,6.564714,2.58134,-1
22,F,1,1,8,6,5,32,4,4609,1,0.1372293,6.531136,1.145859,-1
22,F,1,1,8,7,2,29,1,2266,0,0.3919153,12.57216,1.765803,-1
22,F,1,1,8,8,2,31,3,5510,0,0.6484424,12.55576,2.881335,-1
22,F,1,1,8,9,1,32,4,9999,0,-1,-1,-1,-1
22,F,1,1,8,10,5,30,2,2710,0,0.01767611,6.60504,0.14537,-1
22,F,1,1,8,11,6,31,3,2010,0,1.068451,12.55037,4.830754,-1
22,F,1,1,8,12,5,29,1,3087,2,0.01042969,6.590337,0.08622923,-1
22,F,1,1,8,13,2,32,4,1854,0,0.7127002,12.53137,3.160254,-1
22,F,1,1,8,14,5,31,3,2143,0,0.377049,6.566101,3.128376,-1
22,F,1,1,8,15,6,30,2,1632,0,0.3655919,12.55542,1.632188,-1
22,F,1,1,8,16,1,29,1,1820,0,0.2023848,6.62273,1.670818,-1
22,F,1,1,9,1,5,35,3,2443,0,0.2731676,6.578458,2.255853,-1
22,F,1,1,9,2,5,34,2,2465,0,0.4510041,6.601966,3.680254,-1
22,F,1,1,9,3,6,35,3,2510,0,0.3685549,12.56251,1.655994,-1
22,F,1,1,9,4,6,33,1,1354,0,0.3177145,12.58039,1.430945,-1
22,F,1,1,9,5,1,35,3,1587,0,0.401384,6.577371,3.308313,-1
22,F,1,1,9,6,1,36,4,8254,4,0.4751585,6.59163,3.947941,-1
22,F,1,1,9,7,1,34,2,1777,0,0.3217883,6.582757,2.636856,-1
22,F,1,1,9,8,1,33,1,1621,0,0.2951374,6.594531,2.450483,-1
22,F,1,1,9,9,2,34,2,1199,0,0.216689,12.53725,0.9667184,-1
22,F,1,1,9,10,5,36,4,4332,1,0.434754,6.563333,3.688386,-1
22,F,1,1,9,11,5,33,1,2243,0,0.5489906,6.572574,4.536478,-1
22,F,1,1,9,12,6,34,2,1565,0,0.3152978,12.54405,1.402629,-1
22,F,1,1,9,13,6,36,4,2332,0,0.3743479,12.5397,1.673744,-1
22,F,1,1,9,14,2,35,3,2143,0,0.7363278,12.55965,3.282828,-1
22,F,1,1,9,15,2,33,1,1232,0,0.4440794,12.56868,2.003498,-1
22,F,1,1,9,16,2,36,4,1976,0,0.283343,12.53831,1.263001,-1
22,F,1,1,10,1,6,37,1,1610,0,0.4147428,12.5385,1.868231,-1
22,F,1,1,10,2,1,40,4,5821,0,0.459725,6.581918,3.85214,-1
22,F,1,1,10,3,5,39,3,2588,0,0.5182248,6.617704,4.277,-1
22,F,1,1,10,4,5,38,2,7832,0,0.01627888,6.606263,0.1341704,-1
22,F,1,1,10,5,2,40,4,2221,0,0.9481705,12.54387,4.196707,-1
22,F,1,1,10,6,6,38,2,1143,0,8.093447E-08,12.55255,0,-1
22,F,1,1,10,7,5,37,1,2310,0,0.5477215,6.624246,4.53937,-1
22,F,1,1,10,8,2,38,2,1065,0,0.06543989,12.54969,0.2920831,-1
22,F,1,1,10,9,1,39,3,1755,0,0.5276827,6.593887,4.30234,-1
22,F,1,1,10,10,2,37,1,2076,0,0.5039399,12.57494,2.255072,-1
22,F,1,1,10,11,5,40,4,4243,1,3.684089E-08,6.581877,0,-1
22,F,1,1,10,12,1,38,2,2432,0,0.2363513,6.596812,1.960145,-1
22,F,1,1,10,13,6,39,3,1698,0,0.01223614,12.57408,0.05233916,-1
22,F,1,1,10,14,6,40,4,2899,0,0.2720351,12.54865,1.221893,-1
22,F,1,1,10,15,2,39,3,3054,0,0.6339283,12.57244,2.841107,-1
22,F,1,1,10,16,1,37,1,1254,0,0.3406796,6.614062,2.822096,-1
22,F,1,1,11,1,6,43,3,3332,1,1.4635E-07,12.55099,0,-1
22,F,1,1,11,2,5,41,1,2065,0,4.05115E-07,6.607203,0,-1
22,F,1,1,11,3,6,44,4,1910,0,0.6149418,12.58012,2.737453,-1
22,F,1,1,11,4,4,41,1,2498,0,0.7194488,12.56768,3.248416,-1
22,F,1,1,11,5,3,43,3,4176,1,0.4041823,6.566172,3.44526,-1
22,F,1,1,11,6,3,42,2,2521,0,0.1639318,6.578665,1.355952,-1
22,F,1,1,11,7,5,43,3,1365,0,0.5002593,6.576118,4.269896,-1
22,F,1,1,11,8,4,42,2,1543,0,8.707153E-08,12.55285,0,-1
22,F,1,1,11,9,5,44,4,3676,0,0.5123181,6.563932,4.277,-1
22,F,1,1,11,10,4,43,3,5076,0,0.857919,12.57637,3.802306,-1
22,F,1,1,11,11,6,41,1,1499,0,0.9660326,12.57626,4.360714,-1
22,F,1,1,11,12,4,44,4,2765,1,0.9306226,12.55157,4.229155,-1
22,F,1,1,11,13,6,42,2,1720,0,0.6451772,12.58784,2.874057,-1
22,F,1,1,11,14,3,41,1,2799,1,0.1081861,6.59166,0.9061184,-1
22,F,1,1,11,15,3,44,4,4065,1,0.5246041,6.598995,4.395697,-1
22,F,1,1,11,16,5,42,2,2754,0,1.480782E-07,6.625887,0,-1
22,F,1,1,12,1,3,45,1,2110,1,0.3609523,6.607731,3.029959,-1
22,F,1,1,12,2,3,46,2,5721,1,9.751633E-08,6.586725,0,-1
22,F,1,1,12,3,3,47,3,1610,0,0.3098827,6.564024,2.554816,-1
22,F,1,1,12,4,6,48,4,1587,0,0.307202,12.60255,1.372876,-1
22,F,1,1,12,5,6,46,2,2510,0,0.1269453,12.55926,0.5657911,-1
22,F,1,1,12,6,4,48,4,4387,3,0.2216306,12.54233,0.9869508,-1
22,F,1,1,12,7,4,46,2,1377,0,0.8746176,12.55225,3.899028,-1
22,F,1,1,12,8,6,47,3,1999,0,0.3535882,12.55742,1.580906,-1
22,F,1,1,12,9,5,45,1,3443,0,0.06914129,6.570117,0.5730078,-1
22,F,1,1,12,10,5,46,2,3832,1,0.343585,6.583718,2.915979,-1
22,F,1,1,12,11,6,45,1,1466,0,1.004395,12.54402,4.563771,-1
22,F,1,1,12,12,5,47,3,1499,0,0.1761377,6.607699,1.45804,-1
22,F,1,1,12,13,3,48,4,4177,0,0.2554245,6.595124,2.125412,-1
22,F,1,1,12,14,4,47,3,2343,0,0.4758632,12.54922,2.134784,-1
22,F,1,1,12,15,4,45,1,2576,0,8.103817E-08,12.56037,0,-1
22,F,1,1,12,16,5,48,4,5865,0,0.2917807,6.596101,2.444325,-1
22,F,1,1,13,1,5,51,3,1365,0,0.5424464,6.57865,4.56969,-1
22,F,1,1,13,2,6,49,1,1388,0,0.8688745,12.53579,3.952848,-1
22,F,1,1,13,3,3,50,2,1532,0,0.5013633,6.569369,4.107848,-1
22,F,1,1,13,4,4,51,3,1265,0,0.7178718,12.5706,3.24347,-1
22,F,1,1,13,5,3,52,4,5898,2,0.4889967,6.651114,4.045301,-1
22,F,1,1,13,6,5,50,2,6243,5,0.2535933,6.550609,2.095271,-1
22,F,1,1,13,7,4,49,1,8287,5,0.4889316,12.56633,2.207087,-1
22,F,1,1,13,8,4,50,2,2110,0,0.970998,12.52107,4.3283,-1
22,F,1,1,13,9,3,49,1,4132,3,0.2587735,6.717603,2.135242,-1
22,F,1,1,13,10,3,51,3,1376,0,0.1598173,6.505931,1.336181,-1
22,F,1,1,13,11,6,50,2,1243,0,0.6978536,12.58282,3.142923,-1
22,F,1,1,13,12,4,52,4,1798,0,0.4851956,12.50376,2.160664,-1
22,F,1,1,13,13,6,51,3,9999,0,-1,-1,-1,-1
22,F,1,1,13,14,5,52,4,2309,0,0.5213503,6.469562,4.412331,-1
22,F,1,1,13,15,5,49,1,2210,0,0.2502128,6.620756,2.067343,-1
22,F,1,1,13,16,6,52,4,6499,0,0.9735021,12.5304,4.336257,-1
22,F,1,1,14,1,4,53,1,2533,0,0.3585835,12.5533,1.61701,-1
22,F,1,1,14,2,5,56,4,2988,2,0.2027979,6.527047,1.71395,-1
22,F,1,1,14,3,3,54,2,2255,1,0.4887591,6.585289,4.012638,-1
22,F,1,1,14,4,6,55,3,4221,0,0.6401939,12.52988,2.852521,-1
22,F,1,1,14,5,6,53,1,2032,1,0.9237736,12.53645,4.202769,-1
22,F,1,1,14,6,4,56,4,2210,0,0.7332009,12.49482,3.294674,-1
22,F,1,1,14,7,5,54,2,3554,1,0.5663725,6.61916,4.681613,-1
22,F,1,1,14,8,6,56,4,2510,1,1.060834,12.50459,4.723893,-1
22,F,1,1,14,9,4,54,2,9999,6,-1,-1,-1,-1
22,F,1,1,14,10,5,55,3,1899,1,0.3994079,6.530608,3.395748,-1
22,F,1,1,14,11,3,56,4,9732,5,0.2181514,6.484156,1.843768,-1
22,F,1,1,14,12,5,53,1,5209,2,0.1621522,6.668163,1.331633,-1
22,F,1,1,14,13,6,54,2,7398,3,0.6064664,12.61475,2.729002,-1
22,F,1,1,14,14,3,55,3,1332,0,0.2006824,6.528212,1.691885,-1
22,F,1,1,14,15,3,53,1,3976,2,0.4254445,6.645769,3.510396,-1
22,F,1,1,14,16,4,55,3,1565,0,0.6202454,12.5188,2.775163,-1
22,F,1,1,15,1,4,60,4,2821,1,0.9632447,12.52089,4.283863,-1
22,F,1,1,15,2,6,58,2,7065,3,0.9412897,12.57106,4.191057,-1
22,F,1,1,15,3,6,60,4,2288,0,0.9480075,12.52443,4.206775,-1
22,F,1,1,15,4,3,57,1,3254,1,0.5196353,6.670132,4.258276,-1
22,F,1,1,15,5,5,58,2,3743,2,0.04108823,6.699644,0.3351346,-1
22,F,1,1,15,6,4,57,1,1476,0,0.6870157,12.56813,3.073452,-1
22,F,1,1,15,7,5,59,3,2499,0,0.1837083,6.564926,1.531102,-1
22,F,1,1,15,8,5,57,1,1677,0,0.5044619,6.65531,4.148882,-1
22,F,1,1,15,9,4,59,3,2221,0,0.256569,12.53174,1.146371,-1
22,F,1,1,15,10,3,58,2,4832,3,0.1283696,6.682457,1.044365,-1
22,F,1,1,15,11,3,60,4,5454,1,0.2538481,6.498441,2.144571,-1
22,F,1,1,15,12,4,58,2,4654,2,0.5286073,12.63107,2.380226,-1
22,F,1,1,15,13,5,60,4,3254,0,0.519774,6.503945,4.410244,-1
22,F,1,1,15,14,6,59,3,1943,0,0.2772056,12.53307,1.237488,-1
22,F,1,1,15,15,6,57,1,2076,0,0.08489422,12.52463,0.3810355,-1
22,F,1,1,15,16,3,59,3,1077,0,0.1765543,6.52971,1.471932,-1
22,F,1,1,16,1,5,61,1,6610,5,0.5190315,6.6406,4.332507,-1
22,F,1,1,16,2,4,62,2,6521,3,0.4049917,12.56016,1.810781,-1
22,F,1,1,16,3,6,64,4,6776,4,0.6027649,12.52878,2.690427,-1
22,F,1,1,16,4,3,63,3,2110,0,0.1660888,6.520844,1.402769,-1
22,F,1,1,16,5,3,62,2,5865,3,0.1722316,6.716874,1.395777,-1
22,F,1,1,16,6,5,63,3,6199,2,0.06721844,6.636488,0.555319,-1
22,F,1,1,16,7,4,61,1,1176,0,1.107307E-07,12.54869,0,-1
22,F,1,1,16,8,3,64,4,6232,0,0.1622789,6.545879,1.367019,-1
22,F,1,1,16,9,3,61,1,1676,0,0.1590932,6.610188,1.312986,-1
22,F,1,1,16,10,6,62,2,6165,5,0.8567202,12.64053,3.797049,-1
22,F,1,1,16,11,4,63,3,2743,0,0.7110728,12.50946,3.211869,-1
22,F,1,1,16,12,4,64,4,2421,0,0.7695757,12.52678,3.415639,-1
22,F,1,1,16,13,6,61,1,1443,0,0.7273442,12.51084,3.305116,-1
22,F,1,1,16,14,5,62,2,4910,0,0.389165,6.605809,3.178538,-1
22,F,1,1,16,15,5,64,4,5187,0,0.2244598,6.486596,1.892895,-1
22,F,1,1,16,16,6,63,3,4932,3,0.6814196,12.60231,3.032478,-1
22,F,1,1,17,1,6,65,1,1432,0,1.074353,12.56387,4.860187,-1
22,F,1,1,17,2,6,68,4,3765,1,0.716186,12.59219,3.168915,-1
22,F,1,1,17,3,4,66,2,1777,0,1.0371,12.60026,4.610232,-1
22,F,1,1,17,4,4,67,3,1365,0,0.6074741,12.58495,2.694499,-1
22,F,1,1,17,5,3,65,1,1477,0,0.4955517,6.665921,4.074821,-1
22,F,1,1,17,6,5,67,3,1643,0,0.2345779,6.5994,1.935529,-1
22,F,1,1,17,7,3,68,4,4576,0,0.2960797,6.56983,2.471243,-1
22,F,1,1,17,8,5,66,2,2154,1,9.181004E-08,6.682951,0,-1
22,F,1,1,17,9,6,67,3,2621,2,0.9340054,12.56752,4.239377,-1
22,F,1,1,17,10,3,66,2,1821,1,0.2715163,6.653526,2.224664,-1
22,F,1,1,17,11,5,68,4,4176,2,0.3804229,6.55757,3.185736,-1
22,F,1,1,17,12,3,67,3,1320,0,0.514638,6.608761,4.1975,-1
22,F,1,1,17,13,4,65,1,1665,0,7.362502E-08,12.62693,0,-1
22,F,1,1,17,14,4,68,4,1799,0,0.4438564,12.5872,1.969806,-1
22,F,1,1,17,15,5,65,1,1865,0,0.007188499,6.68339,0.05595291,-1
22,F,1,1,17,16,6,66,2,2177,1,4.883671E-08,12.61784,0,-1
22,F,1,1,18,1,5,72,4,4209,1,0.4096474,6.544755,3.425256,-1
22,F,1,1,18,2,4,69,1,2320,0,0.3555601,12.63412,1.579419,-1
22,F,1,1,18,3,5,71,3,1410,0,0.1163216,6.600998,0.9618481,-1
22,F,1,1,18,4,5,70,2,3743,0,0.3412395,6.691741,2.766191,-1
22,F,1,1,18,5,6,71,3,2154,2,0.9539662,12.59021,4.32178,-1
22,F,1,1,18,6,4,72,4,1988,1,0.4418601,12.5837,1.956648,-1
22,F,1,1,18,7,5,69,1,2776,0,0.4268131,6.66407,3.456834,-1
22,F,1,1,18,8,6,72,4,3310,2,0.02985705,12.62729,0.132704,-1
22,F,1,1,18,9,4,71,3,1443,0,0.771093,12.60899,3.46238,-1
22,F,1,1,18,10,6,70,2,3910,0,0.9724681,12.65786,4.315566,-1
22,F,1,1,18,11,3,69,1,1543,0,0.2373533,6.686936,1.937752,-1
22,F,1,1,18,12,3,71,3,1377,0,0.06309584,6.609365,0.5245137,-1
22,F,1,1,18,13,3,70,2,2566,1,0.2677758,6.667441,2.174749,-1
22,F,1,1,18,14,6,69,1,1298,0,1.026325,12.62723,4.634472,-1
22,F,1,1,18,15,4,70,2,1399,0,0.5098968,12.621,2.241055,-1
22,F,1,1,18,16,3,72,4,5532,3,0.01892968,6.57047,0.1582588,-1
22,F,1,1,1,1,7,4,4,8399,0,-1,-1,-1,0
22,F,1,1,1,2,7,1,1,2443,0,-1,-1,-1,0
22,F,1,1,1,3,8,2,2,2588,0,-1,-1,-1,1
22,F,1,1,1,4,8,3,3,5998,0,-1,-1,-1,1
22,F,1,1,1,5,10,4,4,2077,0,-1,-1,-1,1
22,F,1,1,1,6,7,2,2,1954,0,-1,-1,-1,0
22,F,1,1,1,7,7,3,3,1643,0,-1,-1,-1,1
22,F,1,1,1,8,10,2,2,5554,0,-1,-1,-1,0
22,F,1,1,1,9,9,1,1,1454,0,-1,-1,-1,1
22,F,1,1,1,10,9,2,2,1521,0,-1,-1,-1,1
22,F,1,1,1,11,8,4,4,2099,0,-1,-1,-1,1
22,F,1,1,1,12,10,3,3,2154,0,-1,-1,-1,0
22,F,1,1,1,13,10,1,1,4832,0,-1,-1,-1,1
22,F,1,1,1,14,9,3,3,1477,0,-1,-1,-1,1
22,F,1,1,1,15,9,4,4,2955,0,-1,-1,-1,0
22,F,1,1,1,16,8,1,1,1443,0,-1,-1,-1,0
22,F,1,1,2,1,8,2,2,1388,0,-1,-1,-1,1
22,F,1,1,2,2,10,3,3,3631,0,-1,-1,-1,1
22,F,1,1,2,3,10,1,1,3844,0,-1,-1,-1,0
22,F,1,1,2,4,7,2,2,2566,0,-1,-1,-1,1
22,F,1,1,2,5,7,4,4,4765,0,-1,-1,-1,0
22,F,1,1,2,6,9,2,2,1721,0,-1,-1,-1,1
22,F,1,1,2,7,9,1,1,1343,0,-1,-1,-1,1
22,F,1,1,2,8,9,4,4,2310,0,-1,-1,-1,0
22,F,1,1,2,9,7,1,1,1743,0,-1,-1,-1,0
22,F,1,1,2,10,8,3,3,1677,0,-1,-1,-1,1
22,F,1,1,2,11,10,2,2,1887,0,-1,-1,-1,1
22,F,1,1,2,12,7,3,3,2010,0,-1,-1,-1,0
22,F,1,1,2,13,10,4,4,2721,0,-1,-1,-1,0
22,F,1,1,2,14,9,3,3,1165,0,-1,-1,-1,1
22,F,1,1,2,15,8,4,4,1765,0,-1,-1,-1,1
22,F,1,1,2,16,8,1,1,1976,0,-1,-1,-1,0
