Age, Gender, Awareness Type, Session, Block, Trial, Set, Pattern, Quadrant, Response Time, Num Mistakes, Distance From Target, Camera Distance From Target, Angle Error (Degrees), FC Response
18,F,0,1,1,1,2,4,4,2864,0,0.4266992,12.38062,1.939771,-1
18,F,0,1,1,2,1,3,3,2187,1,0.02864342,6.346282,0.2486604,-1
18,F,0,1,1,3,1,1,1,4409,1,0.3367189,6.150688,3.05486,-1
18,F,0,1,1,4,1,2,2,1863,0,0.3156504,6.474955,2.649224,-1
18,F,0,1,1,5,1,4,4,1476,0,0.3914672,6.54551,3.285272,-1
18,F,0,1,1,6,2,2,2,9999,0,-1,-1,-1,-1
18,F,0,1,1,7,2,3,3,3842,1,0.3340269,12.13109,1.559218,-1
18,F,0,1,1,8,2,1,1,1387,0,0.001078398,12.22685,0,-1
18,F,0,1,2,1,1,7,3,2453,0,7.916965E-08,6.341906,0,-1
18,F,0,1,2,2,1,8,4,6064,0,0.1318007,6.552296,1.097892,-1
18,F,0,1,2,3,1,6,2,1487,0,0.4247364,6.473474,3.523034,-1
18,F,0,1,2,4,2,7,3,3253,0,0.4892591,12.1328,2.29243,-1
18,F,0,1,2,5,1,5,1,5354,1,0.1990231,6.144547,1.776411,-1
18,F,0,1,2,6,2,6,2,6631,0,0.7358552,12.33667,3.315466,-1
18,F,0,1,2,7,2,8,4,2998,0,0.4246976,12.3633,1.916936,-1
18,F,0,1,2,8,2,5,1,2253,1,0.1428301,12.22034,0.6581939,-1
18,F,0,1,3,1,1,10,2,1809,0,7.025471E-08,6.464057,0,-1
18,F,0,1,3,2,2,9,1,1831,1,0.8358575,12.21555,3.828429,-1
18,F,0,1,3,3,1,11,3,2553,0,0.08227137,6.306175,0.7132671,-1
18,F,0,1,3,4,2,12,4,1464,0,0.8065224,12.36668,3.630599,-1
18,F,0,1,3,5,1,9,1,5375,0,7.307702E-08,6.1566,0,-1
18,F,0,1,3,6,2,10,2,2554,0,0.8896688,12.34523,4.103651,-1
18,F,0,1,3,7,1,12,4,3886,0,0.219746,6.546383,1.818115,-1
18,F,0,1,3,8,2,11,3,1920,0,0.348759,12.13604,1.614467,-1
18,F,0,1,4,1,1,14,2,1564,0,0.2153009,6.478174,1.806778,-1
18,F,0,1,4,2,1,16,4,3387,1,0.1773899,6.543162,1.472862,-1
18,F,0,1,4,3,2,15,3,3131,3,0.8310927,12.12342,3.889827,-1
18,F,0,1,4,4,2,13,1,1197,0,0.6637372,12.17634,3.069883,-1
18,F,0,1,4,5,1,15,3,3620,1,0.3448516,6.360793,2.966033,-1
18,F,0,1,4,6,2,14,2,1564,0,0.4807184,12.31287,2.173128,-1
18,F,0,1,4,7,2,16,4,931,0,0.4315119,12.38812,1.971296,-1
18,F,0,1,4,8,1,13,1,1665,1,0.4223226,6.133249,3.742196,-1
18,F,0,1,5,1,2,20,4,2675,1,0.7225142,12.35046,3.312157,-1
18,F,0,1,5,2,1,18,2,1620,0,2.448057E-08,6.469703,0,-1
18,F,0,1,5,3,1,20,4,2286,0,0.254937,6.52018,2.115351,-1
18,F,0,1,5,4,2,17,1,3787,0,0.4184889,12.21852,1.942493,-1
18,F,0,1,5,5,1,19,3,1709,0,0.3381441,6.263306,2.954858,-1
18,F,0,1,5,6,2,18,2,786,0,0.9164588,12.36669,4.217422,-1
18,F,0,1,5,7,2,19,3,1109,0,0.379103,12.14027,1.761142,-1
18,F,0,1,5,8,1,17,1,1498,0,0.03295756,6.1869,0.2934199,-1
18,F,0,1,6,1,2,22,2,1909,1,0.5956669,12.36448,2.722827,-1
18,F,0,1,6,2,1,23,3,876,0,0.4450241,6.30446,3.864168,-1
18,F,0,1,6,3,1,21,1,1242,0,0.09529036,6.188749,0.8476528,-1
18,F,0,1,6,4,2,24,4,1542,0,0.6964171,12.37326,3.132691,-1
18,F,0,1,6,5,1,22,2,2042,0,0.5282466,6.500111,4.432084,-1
18,F,0,1,6,6,2,21,1,1397,0,1.015527,12.23236,4.712683,-1
18,F,0,1,6,7,2,23,3,1598,1,0.5443687,12.13661,2.509129,-1
18,F,0,1,6,8,1,24,4,1531,0,0.1647831,6.543743,1.373161,-1
18,F,0,1,7,1,2,27,3,2042,1,0.1849458,12.13862,0.8536337,-1
18,F,0,1,7,2,1,28,4,1676,0,0.06873753,6.550132,0.5740312,-1
18,F,0,1,7,3,2,25,1,1243,0,7.369709E-08,12.22829,0,-1
18,F,0,1,7,4,2,26,2,1565,0,0.5213809,12.35075,2.349521,-1
18,F,0,1,7,5,1,27,3,1620,0,0.4974904,6.303571,4.352352,-1
18,F,0,1,7,6,2,28,4,1109,0,0.7039115,12.37424,3.172373,-1
18,F,0,1,7,7,1,26,2,2664,0,0.080761,6.505906,0.680413,-1
18,F,0,1,7,8,1,25,1,1087,0,0.1218308,6.18821,1.077563,-1
18,F,0,1,8,1,2,30,2,953,0,1.000863,12.35938,4.577485,-1
18,F,0,1,8,2,1,31,3,2042,0,0.3643163,6.311739,3.195798,-1
18,F,0,1,8,3,1,30,2,2776,0,0.02888224,6.506614,0.2406627,-1
18,F,0,1,8,4,2,29,1,1365,0,0.2391105,12.24619,1.094322,-1
18,F,0,1,8,5,2,32,4,1953,1,9.538854E-08,12.37864,0,-1
18,F,0,1,8,6,1,29,1,842,0,0.08147246,6.19769,0.7257769,-1
18,F,0,1,8,7,2,31,3,1176,0,0.5398637,12.13781,2.484828,-1
18,F,0,1,8,8,1,32,4,1742,0,0.1344421,6.549084,1.134187,-1
18,F,0,1,9,1,1,35,3,2343,0,0.2515334,6.310407,2.19829,-1
18,F,0,1,9,2,2,33,1,876,0,0.2308694,12.1847,1.071554,-1
18,F,0,1,9,3,1,36,4,1631,0,0.2571941,6.518137,2.147398,-1
18,F,0,1,9,4,1,33,1,998,0,0.1477727,6.132942,1.336473,-1
18,F,0,1,9,5,2,35,3,1176,0,0.6114283,12.10617,2.818279,-1
18,F,0,1,9,6,2,34,2,1209,0,0.5669079,12.30112,2.579823,-1
18,F,0,1,9,7,2,36,4,842,0,0.1600576,12.35061,0.7241574,-1
18,F,0,1,9,8,1,34,2,9999,0,-1,-1,-1,-1
18,F,0,1,10,1,1,40,4,1176,0,0.3847195,6.514801,3.235675,-1
18,F,0,1,10,2,1,39,3,2120,1,2.086972E-07,6.299424,0,-1
18,F,0,1,10,3,2,40,4,1131,0,0.08816017,12.34584,0.4010509,-1
18,F,0,1,10,4,2,37,1,1365,0,0.1687728,12.19101,0.7818466,-1
18,F,0,1,10,5,2,38,2,1009,0,0.1638677,12.30451,0.749388,-1
18,F,0,1,10,6,2,39,3,2076,0,0.01059552,12.09073,0.04423466,-1
18,F,0,1,10,7,1,37,1,1309,0,0.3833332,6.133202,3.511288,-1
18,F,0,1,10,8,1,38,2,4775,1,0.117939,6.521169,0.9944565,-1
18,F,0,1,11,1,1,43,3,1897,0,0.309032,6.390787,2.667998,-1
18,F,0,1,11,2,1,42,2,1275,0,3.008785E-08,6.437399,0,-1
18,F,0,1,11,3,1,44,4,5587,1,0.3950098,6.56137,3.266746,-1
18,F,0,1,11,4,2,41,1,2942,0,0.568143,12.24895,2.632324,-1
18,F,0,1,11,5,2,44,4,998,0,2.817192E-08,12.47662,0.01978234,-1
18,F,0,1,11,6,2,42,2,2031,0,1.727681E-07,12.33608,0,-1
18,F,0,1,11,7,1,41,1,2009,2,9.632937E-08,6.156179,0.01978234,-1
18,F,0,1,11,8,2,43,3,5720,1,1.10117E-07,12.10839,0.01978234,-1
18,F,0,1,12,1,1,46,2,3853,0,6.30649E-08,6.406584,0,-1
18,F,0,1,12,2,2,48,4,1276,0,0.4200169,12.42316,1.902589,-1
18,F,0,1,12,3,2,46,2,1787,1,0.295588,12.32535,1.354508,-1
18,F,0,1,12,4,1,45,1,1920,0,0.3182485,6.12132,2.878888,-1
18,F,0,1,12,5,1,48,4,1553,1,0.4451131,6.585356,3.745752,-1
18,F,0,1,12,6,1,47,3,1732,0,0.2241773,6.404378,1.934619,-1
18,F,0,1,12,7,2,45,1,3387,3,0.5764268,12.11403,2.657118,-1
18,F,0,1,12,8,2,47,3,3153,1,0.3812379,12.15268,1.757249,-1
18,F,0,1,13,1,2,50,2,1065,0,0.4119392,12.33155,1.889998,-1
18,F,0,1,13,2,1,51,3,1342,0,0.214175,6.396644,1.850338,-1
18,F,0,1,13,3,1,52,4,1731,0,0.1098273,6.573739,0.9123595,-1
18,F,0,1,13,4,1,50,2,3387,0,4.900331E-08,6.435439,0,-1
18,F,0,1,13,5,2,51,3,1431,0,0.1750845,12.15675,0.8055148,-1
18,F,0,1,13,6,2,49,1,1564,0,0.516943,12.22462,2.382856,-1
18,F,0,1,13,7,2,52,4,964,0,0.6079469,12.41971,2.755556,-1
18,F,0,1,13,8,1,49,1,1076,0,0.2491854,6.152968,2.251685,-1
18,F,0,1,14,1,1,56,4,1220,0,2.665059E-08,6.577117,0,-1
18,F,0,1,14,2,2,55,3,1386,0,0.18871,12.16089,0.8677295,-1
18,F,0,1,14,3,2,53,1,1298,0,0.2096346,12.22632,0.9685385,-1
18,F,0,1,14,4,1,54,2,1720,0,0.1849018,6.439984,1.585479,-1
18,F,0,1,14,5,1,55,3,3309,0,0.2218698,6.389559,1.916528,-1
18,F,0,1,14,6,2,54,2,1164,0,0.3712566,12.34027,1.699618,-1
18,F,0,1,14,7,2,56,4,1108,0,0.2930945,12.4221,1.328101,-1
18,F,0,1,14,8,1,53,1,1442,0,1.601006E-07,6.155769,0,-1
18,F,0,1,15,1,2,58,2,998,0,0.0323502,12.33874,0.14537,-1
18,F,0,1,15,2,1,60,4,1509,0,8.025795E-08,6.578983,0,-1
18,F,0,1,15,3,2,57,1,1542,0,0.2130845,12.22181,0.977788,-1
18,F,0,1,15,4,2,60,4,1120,0,0.3192157,12.41882,1.447668,-1
18,F,0,1,15,5,1,59,3,3542,0,0.1470174,6.386539,1.270108,-1
18,F,0,1,15,6,1,58,2,2476,0,0.1185972,6.440742,1.000733,-1
18,F,0,1,15,7,1,57,1,1920,1,3.691695E-08,6.151854,0,-1
18,F,0,1,15,8,2,59,3,1065,0,0.6737077,12.1719,3.136626,-1
18,F,0,1,16,1,2,62,2,1165,0,0.5110536,12.34169,2.339419,-1
18,F,0,1,16,2,2,61,1,1231,0,0.2378741,12.23145,1.100029,-1
18,F,0,1,16,3,1,62,2,3286,0,0.3401798,6.449054,2.881743,-1
18,F,0,1,16,4,1,64,4,2998,0,0.04823648,6.57956,0.4005627,-1
18,F,0,1,16,5,2,63,3,2831,0,0.4240857,12.16361,1.946519,-1
18,F,0,1,16,6,2,64,4,1409,0,0.1470026,12.42317,0.6658786,-1
18,F,0,1,16,7,1,63,3,4142,0,0.4809611,6.392853,4.184415,-1
18,F,0,1,16,8,1,61,1,1521,0,3.995178E-08,6.157338,0,-1
18,F,0,1,17,1,4,66,2,1519,0,0.6844048,12.35965,3.1275,-1
18,F,0,1,17,2,3,65,1,1398,0,0.2644801,6.141094,2.341593,-1
18,F,0,1,17,3,3,66,2,2153,1,0.2419721,6.454958,2.033747,-1
18,F,0,1,17,4,4,65,1,2409,0,0.2335648,12.19097,1.077927,-1
18,F,0,1,17,5,3,68,4,5853,0,0.1400345,6.564607,1.173198,-1
18,F,0,1,17,6,3,67,3,2831,0,3.239478E-08,6.350318,0,-1
18,F,0,1,17,7,4,68,4,1309,0,0.1240891,12.40468,0.5588315,-1
18,F,0,1,17,8,4,67,3,1498,0,0.5963777,12.13223,2.777349,-1
18,F,0,1,18,1,4,72,4,1687,0,0.5265664,12.40379,2.367694,-1
18,F,0,1,18,2,3,69,1,4531,0,0.197594,6.12974,1.759252,-1
18,F,0,1,18,3,3,71,3,2620,0,0.1896737,6.377134,1.642586,-1
18,F,0,1,18,4,4,70,2,1298,0,0.3289346,12.35095,1.498416,-1
18,F,0,1,18,5,3,72,4,2009,0,0.1639879,6.55473,1.385363,-1
18,F,0,1,18,6,4,69,1,1109,0,0.8525662,12.20695,3.964226,-1
18,F,0,1,18,7,3,70,2,3020,0,0.2167695,6.445654,1.843662,-1
18,F,0,1,18,8,4,71,3,1420,0,0.3050619,12.11779,1.406113,-1
18,F,0,1,19,1,3,73,1,4109,0,0.2000888,6.121294,1.789035,-1
18,F,0,1,19,2,3,76,4,6353,0,0.1407105,6.56193,1.169523,-1
18,F,0,1,19,3,3,74,2,8209,0,0.1494872,6.440815,1.277175,-1
18,F,0,1,19,4,4,76,4,1787,0,1.004763,12.34488,4.579838,-1
18,F,0,1,19,5,3,75,3,2242,1,0.5180446,6.309049,4.530645,-1
18,F,0,1,19,6,4,74,2,976,0,0.5262766,12.29262,2.419941,-1
18,F,0,1,19,7,4,75,3,6142,3,0.5519363,12.16237,2.54745,-1
18,F,0,1,19,8,4,73,1,2876,0,0.864417,12.21088,3.999537,-1
18,F,0,1,20,1,3,78,2,2865,1,0.009974056,6.440845,0.08622923,-1
18,F,0,1,20,2,3,80,4,2320,0,1.073302E-07,6.529243,0,-1
18,F,0,1,20,3,3,79,3,3398,1,0.3463418,6.314696,3.024333,-1
18,F,0,1,20,4,4,78,2,3776,0,0.09193408,12.31151,0.4201138,-1
18,F,0,1,20,5,4,77,1,1465,0,0.8846854,12.19753,4.092229,-1
18,F,0,1,20,6,4,79,3,1298,0,0.1200518,12.11308,0.5574291,-1
18,F,0,1,20,7,3,77,1,3209,0,0.4302125,6.116216,3.845271,-1
18,F,0,1,20,8,4,80,4,2731,0,0.3421262,12.35808,1.558967,-1
18,F,0,1,20,1,2,79,3,1587,1,0.8030469,12.13845,3.736069,-1
18,F,0,1,20,2,2,78,2,3587,1,0.02743627,12.29814,0.1235407,-1
18,F,0,1,20,3,2,77,1,2465,0,0.2836145,12.19665,1.30731,-1
18,F,0,1,20,4,1,80,4,3998,0,0.1323075,6.542457,1.119775,-1
18,F,0,1,20,5,1,77,1,2520,0,0.1758069,6.135531,1.593113,-1
18,F,0,1,20,6,2,80,4,2109,1,0.5972879,12.36169,2.719949,-1
18,F,0,1,20,7,1,78,2,2465,0,0.4604941,6.445671,3.95473,-1
18,F,0,1,20,8,1,79,3,3131,0,0.1034665,6.319717,0.9024397,-1
18,F,0,1,21,1,1,82,2,2753,0,0.396037,6.590515,3.28074,-1
18,F,0,1,21,2,2,83,3,1387,1,0.2859978,12.25608,1.316707,-1
18,F,0,1,21,3,2,84,4,2176,1,0.06321286,12.51587,0.2839303,-1
18,F,0,1,21,4,2,81,1,2798,2,0.3602569,12.29649,1.639963,-1
18,F,0,1,21,5,2,82,2,1465,0,0.09984951,12.44867,0.4489339,-1
18,F,0,1,21,6,1,81,1,1176,0,0.3555973,6.260873,3.093324,-1
18,F,0,1,21,7,1,83,3,3442,1,0.02910602,6.438796,0.2486604,-1
18,F,0,1,21,8,1,84,4,3020,1,0.5079295,6.714284,4.159254,-1
18,F,0,1,22,1,1,85,1,987,0,0.2880516,6.264768,2.508583,-1
18,F,0,1,22,2,2,88,4,1175,0,0.4905029,12.52527,2.179962,-1
18,F,0,1,22,3,2,87,3,1309,0,0.7187702,12.27619,3.325902,-1
18,F,0,1,22,4,1,88,4,2231,0,0.2770583,6.68846,2.256113,-1
18,F,0,1,22,5,1,86,2,9999,1,-1,-1,-1,-1
18,F,0,1,22,6,1,87,3,5053,1,0.3697726,6.451036,3.182723,-1
18,F,0,1,22,7,2,85,1,1753,1,0.3951613,12.34471,1.791222,-1
18,F,0,1,22,8,2,86,2,809,0,0.7120099,12.4659,3.227921,-1
18,F,0,1,23,1,1,89,1,3198,1,0.1423751,6.248916,1.246783,-1
18,F,0,1,23,2,1,91,3,3509,0,0.1402784,6.460557,1.19763,-1
18,F,0,1,23,3,2,92,4,1376,0,0.05885844,12.52886,0.2624426,-1
18,F,0,1,23,4,2,90,2,1620,0,0.04975471,12.46228,0.2238118,-1
18,F,0,1,23,5,1,92,4,1242,0,0.3910744,6.710537,3.229254,-1
18,F,0,1,23,6,1,90,2,1920,0,1.803313E-08,6.549305,0,-1
18,F,0,1,23,7,2,89,1,3442,0,0.08964008,12.3493,0.4092611,-1
18,F,0,1,23,8,2,91,3,3253,0,0.8098642,12.27437,3.71109,-1
18,F,0,1,24,1,1,96,4,1398,0,0.02582442,6.703277,0.2102893,-1
18,F,0,1,24,2,2,93,1,1087,0,0.3983162,12.33086,1.810457,-1
18,F,0,1,24,3,1,94,2,4120,0,0.189135,6.55539,1.578056,-1
18,F,0,1,24,4,1,95,3,3631,0,0.1656953,6.463795,1.413054,-1
18,F,0,1,24,5,1,93,1,1376,0,0.5040904,6.267855,4.470104,-1
18,F,0,1,24,6,2,94,2,987,0,0.6640142,12.46625,3.010124,-1
18,F,0,1,24,7,2,96,4,1276,0,0.3574266,12.53186,1.587453,-1
18,F,0,1,24,8,2,95,3,1642,0,0.1780104,12.27251,0.8130105,-1
18,F,0,1,25,1,1,100,4,2376,0,0.1242408,6.712986,1.012011,-1
18,F,0,1,25,2,1,98,2,3054,0,0.04414104,6.577094,0.365305,-1
18,F,0,1,25,3,2,99,3,2676,0,0.6053681,12.2934,2.760808,-1
18,F,0,1,25,4,2,100,4,1376,0,0.03805737,12.53804,0.1701742,-1
18,F,0,1,25,5,2,97,1,1731,1,0.2830696,12.35255,1.297243,-1
18,F,0,1,25,6,1,99,3,3498,0,2.019659E-08,6.462865,0,-1
18,F,0,1,25,7,2,98,2,953,0,0.6877564,12.4756,3.067395,-1
18,F,0,1,25,8,1,97,1,2742,1,0.5160109,6.277088,4.507152,-1
18,F,0,1,26,1,2,102,2,1697,1,0.8342589,12.48136,3.746432,-1
18,F,0,1,26,2,1,101,1,1354,0,0.2302448,6.273511,2.003693,-1
18,F,0,1,26,3,2,104,4,876,0,0.7445348,12.54268,3.343105,-1
18,F,0,1,26,4,1,102,2,1720,0,3.027889E-08,6.574007,0,-1
18,F,0,1,26,5,1,103,3,2320,0,0.3900525,6.456369,3.336715,-1
18,F,0,1,26,6,1,104,4,1331,0,0.1130126,6.7193,0.930201,-1
18,F,0,1,26,7,2,103,3,3676,0,0.1545299,12.27922,0.7058211,-1
18,F,0,1,26,8,2,101,1,2053,1,0.3873274,12.36444,1.754351,-1
18,F,0,1,27,1,2,106,2,1720,0,0.1454321,12.41069,0.6590852,-1
18,F,0,1,27,2,2,107,3,2220,1,1.706725E-07,12.19813,0.01978234,-1
18,F,0,1,27,3,2,105,1,2476,0,0.7471109,12.27539,3.395172,-1
18,F,0,1,27,4,2,108,4,1120,0,0.280183,12.4504,1.26872,-1
18,F,0,1,27,5,1,107,3,4053,0,1.049213E-07,6.373689,0,-1
18,F,0,1,27,6,1,105,1,1665,0,6.548377E-08,6.227507,0,-1
18,F,0,1,27,7,1,106,2,2187,1,6.562673E-09,6.534932,0,-1
18,F,0,1,27,8,1,108,4,1942,0,0.09841878,6.639092,0.8173313,-1
18,F,0,1,28,1,2,111,3,2865,0,0.6295304,12.19754,2.933048,-1
18,F,0,1,28,2,2,109,1,4709,0,0.3236515,12.30371,1.473261,-1
18,F,0,1,28,3,1,112,4,2053,0,0.0417443,6.638059,0.3460502,-1
18,F,0,1,28,4,1,109,1,1465,0,1.042369E-08,6.227815,0,-1
18,F,0,1,28,5,2,110,2,2676,0,0.7115403,12.42939,3.234464,-1
18,F,0,1,28,6,1,111,3,2953,0,0.4184862,6.374899,3.618607,-1
18,F,0,1,28,7,1,110,2,1920,0,0.4048812,6.538024,3.388303,-1
18,F,0,1,28,8,2,112,4,1098,0,1.688043E-07,12.45538,0,-1
18,F,0,1,29,1,2,114,2,1098,0,0.2428145,12.41655,1.092174,-1
18,F,0,1,29,2,2,116,4,931,0,0.1228956,12.45599,0.5535544,-1
18,F,0,1,29,3,1,113,1,1498,0,0.2313343,6.21636,2.079708,-1
18,F,0,1,29,4,1,115,3,3176,0,0.1644128,6.375589,1.423128,-1
18,F,0,1,29,5,1,116,4,1431,0,0.1949041,6.64004,1.593113,-1
18,F,0,1,29,6,2,115,3,2898,0,0.3874989,12.18863,1.80168,-1
18,F,0,1,29,7,1,114,2,4787,0,0.2244099,6.546255,1.848539,-1
18,F,0,1,29,8,2,113,1,1542,0,0.7277784,12.29893,3.335307,-1
18,F,0,1,30,1,1,119,3,1965,1,5.787873E-08,6.377924,0,-1
18,F,0,1,30,2,2,117,1,2142,0,0.5467648,12.30529,2.497635,-1
18,F,0,1,30,3,2,119,3,1876,0,0.9484211,12.19727,4.425318,-1
18,F,0,1,30,4,1,120,4,2342,0,0.3021757,6.635643,2.459493,-1
18,F,0,1,30,5,2,118,2,853,0,0.2665458,12.41919,1.198773,-1
18,F,0,1,30,6,1,117,1,1320,0,0.01562518,6.223037,0.1370561,-1
18,F,0,1,30,7,2,120,4,1398,0,0.4053312,12.45333,1.839731,-1
18,F,0,1,30,8,1,118,2,3576,0,1.208264E-07,6.545504,0,-1
18,F,0,1,31,1,2,121,1,1609,0,0.3024257,12.29452,1.383384,-1
18,F,0,1,31,2,2,122,2,976,0,0.1683785,12.41592,0.7576976,-1
18,F,0,1,31,3,1,123,3,2931,0,0.06628361,6.374973,0.5723243,-1
18,F,0,1,31,4,2,124,4,1564,0,0.4963498,12.45547,2.254204,-1
18,F,0,1,31,5,1,121,1,1431,0,0.06312421,6.222194,0.5588315,-1
18,F,0,1,31,6,1,124,4,1176,0,0.3156569,6.65361,2.615914,-1
18,F,0,1,31,7,2,123,3,2720,0,0.1316588,12.20832,0.6058724,-1
18,F,0,1,31,8,1,122,2,3209,0,0.3011705,6.54664,2.536207,-1
18,F,0,1,32,1,1,128,4,1520,0,3.82086E-08,6.639796,0,-1
18,F,0,1,32,2,1,127,3,2009,0,9.650672E-08,6.376711,0,-1
18,F,0,1,32,3,2,128,4,1709,0,0.1425061,12.45952,0.6440698,-1
18,F,0,1,32,4,2,127,3,1642,0,0.5375468,12.20176,2.455112,-1
18,F,0,1,32,5,1,126,2,2876,0,0.09392215,6.546382,0.7878303,-1
18,F,0,1,32,6,2,125,1,2120,1,0.3630349,12.30825,1.659064,-1
18,F,0,1,32,7,2,126,2,1665,0,0.08047307,12.4234,0.3631561,-1
18,F,0,1,32,8,1,125,1,1487,0,0.001127221,6.214601,0,-1
18,F,0,1,33,1,2,131,3,1453,0,0.5346634,12.20188,2.491515,-1
18,F,0,1,33,2,2,130,2,887,0,0.5547162,12.42769,2.527162,-1
18,F,0,1,33,3,1,129,1,1476,0,0.1619393,6.214105,1.429166,-1
18,F,0,1,33,4,1,130,2,2742,0,0.2023554,6.550103,1.692579,-1
18,F,0,1,33,5,1,132,4,1975,1,1.797362E-07,6.642868,0,-1
18,F,0,1,33,6,2,129,1,965,0,0.2680511,12.2792,1.235589,-1
18,F,0,1,33,7,1,131,3,3253,0,0.4813825,6.380554,4.160054,-1
18,F,0,1,33,8,2,132,4,1231,0,5.227307E-08,12.45836,0,-1
18,F,0,1,34,1,1,133,1,1153,0,0.367453,6.224222,3.233556,-1
18,F,0,1,34,2,1,135,3,2965,0,0.1053122,6.375518,0.9056864,-1
18,F,0,1,34,3,1,136,4,1565,0,0.1576386,6.651918,1.304913,-1
18,F,0,1,34,4,1,134,2,3820,0,2.043643E-07,6.547759,0,-1
18,F,0,1,34,5,2,135,3,2498,0,0.3015674,12.19665,1.397598,-1
18,F,0,1,34,6,2,133,1,1353,0,0.0505982,12.29661,0.23239,-1
18,F,0,1,34,7,2,136,4,954,0,0.6127046,12.45671,2.769303,-1
18,F,0,1,34,8,2,134,2,1042,0,0.3451762,12.42209,1.569476,-1
18,F,0,1,35,1,2,137,1,1020,0,0.3751149,12.29885,1.710407,-1
18,F,0,1,35,2,1,140,4,3498,1,0.02645196,6.658545,0.2193969,-1
18,F,0,1,35,3,1,137,1,1976,0,0.1134993,6.222667,1.000733,-1
18,F,0,1,35,4,2,138,2,898,0,0.06506558,12.41896,0.2934199,-1
18,F,0,1,35,5,1,139,3,1754,1,0.4746521,6.383709,4.099592,-1
18,F,0,1,35,6,1,138,2,1309,0,1.174127E-07,6.548792,0,-1
18,F,0,1,35,7,2,140,4,1731,1,0.07312924,12.45243,0.3286494,-1
18,F,0,1,35,8,2,139,3,1753,0,0.8173979,12.19692,3.735597,-1
18,F,0,1,37,1,3,146,2,2542,0,1.005034E-07,6.54463,0,-1
18,F,0,1,37,2,4,148,4,1231,0,2.865593E-07,12.47423,0,-1
18,F,0,1,37,3,4,145,1,1165,0,0.1138536,12.26885,0.5207698,-1
18,F,0,1,37,4,4,147,3,2241,0,0.1332137,12.20142,0.615167,-1
18,F,0,1,37,5,4,146,2,1409,0,0.3556844,12.43742,1.6158,-1
18,F,0,1,37,6,3,147,3,2453,0,0.2821141,6.362434,2.448725,-1
18,F,0,1,37,7,3,145,1,2898,0,0.4465599,6.232376,3.906103,-1
18,F,0,1,37,8,3,148,4,4053,0,0.03721875,6.652553,0.3071049,-1
18,F,0,1,38,1,4,149,1,1287,0,0.217051,12.28582,0.9909081,-1
18,F,0,1,38,2,4,151,3,1876,1,0.6645953,12.23086,3.054348,-1
18,F,0,1,38,3,3,149,1,2587,0,7.681984E-08,6.209721,0,-1
18,F,0,1,38,4,3,151,3,2931,0,0.3650983,6.345787,3.156473,-1
18,F,0,1,38,5,4,150,2,1342,0,0.378507,12.44382,1.69789,-1
18,F,0,1,38,6,3,152,4,1398,0,1.634591E-07,6.641613,0,-1
18,F,0,1,38,7,3,150,2,3220,0,0.1759272,6.559442,1.462462,-1
18,F,0,1,38,8,4,152,4,6542,1,0.8717347,12.47104,3.935471,-1
18,F,0,1,39,1,4,155,3,2853,0,0.6520684,12.18295,2.999243,-1
18,F,0,1,39,2,4,153,1,3164,1,0.9364709,12.29986,4.300245,-1
18,F,0,1,39,3,3,156,4,1409,0,3.930997E-08,6.628605,0,-1
18,F,0,1,39,4,3,153,1,1054,0,0.1835342,6.22062,1.638053,-1
18,F,0,1,39,5,3,155,3,5653,2,0.2524459,6.369393,2.190084,-1
18,F,0,1,39,6,3,154,2,2142,0,0.2626596,6.553397,2.2062,-1
18,F,0,1,39,7,4,156,4,3687,1,0.5273154,12.46133,2.394573,-1
18,F,0,1,39,8,4,154,2,9999,0,-1,-1,-1,-1
18,F,0,1,40,1,4,159,3,1565,0,0.7031374,12.23241,3.204302,-1
18,F,0,1,40,2,4,157,1,1620,1,0.1885161,12.29085,0.8602557,-1
18,F,0,1,40,3,4,160,4,1720,1,0.4188088,12.45887,1.871058,-1
18,F,0,1,40,4,3,157,1,1798,0,0.2333552,6.219998,2.094804,-1
18,F,0,1,40,5,3,158,2,2931,0,0.4282911,6.535026,3.558535,-1
18,F,0,1,40,6,3,159,3,3120,0,0.04074421,6.354643,0.3516591,-1
18,F,0,1,40,7,3,160,4,1165,0,0.3449458,6.662231,2.866623,-1
18,F,0,1,40,8,4,158,2,976,0,0.2947741,12.42846,1.324708,-1
18,F,0,1,41,1,1,163,3,3676,0,0.09430019,6.395952,0.8122882,-1
18,F,0,1,41,2,2,162,2,1187,0,0.4562737,12.42467,2.059186,-1
18,F,0,1,41,3,2,161,1,2720,1,0.5583754,12.30927,2.553896,-1
18,F,0,1,41,4,2,163,3,1376,0,0.3265437,12.20992,1.506362,-1
18,F,0,1,41,5,1,161,1,1387,0,0.4713177,6.234797,4.142646,-1
18,F,0,1,41,6,1,164,4,1120,0,0.0922258,6.646001,0.7648944,-1
18,F,0,1,41,7,1,162,2,1965,1,2.107085E-07,6.534029,0,-1
18,F,0,1,41,8,2,164,4,953,0,0.1406602,12.46798,0.6348901,-1
18,F,0,1,42,1,1,165,1,987,0,9.52347E-08,6.227787,0,-1
18,F,0,1,42,2,2,166,2,3365,0,0.5628392,12.42318,2.530722,-1
18,F,0,1,42,3,2,167,3,1820,0,0.5631926,12.20925,2.58278,-1
18,F,0,1,42,4,1,166,2,1376,0,0.4714557,6.537483,3.915567,-1
18,F,0,1,42,5,2,168,4,1942,1,0.1235142,12.45824,0.5549665,-1
18,F,0,1,42,6,1,167,3,3142,0,0.02565455,6.391249,0.2211734,-1
18,F,0,1,42,7,2,165,1,1442,0,0.5041296,12.29803,2.327256,-1
18,F,0,1,42,8,1,168,4,1676,0,2.014713E-07,6.648464,0,-1
18,F,0,1,43,1,2,171,3,1787,0,0.3709212,12.20827,1.715434,-1
18,F,0,1,43,2,2,169,1,1553,0,0.8009995,12.29702,3.666555,-1
18,F,0,1,43,3,1,170,2,1809,0,0.1031906,6.537748,0.854092,-1
18,F,0,1,43,4,1,171,3,1309,0,0.4076662,6.398955,3.512347,-1
18,F,0,1,43,5,1,169,1,1120,0,0.1475304,6.224964,1.296488,-1
18,F,0,1,43,6,2,172,4,842,0,0.1183429,12.46601,0.5293413,-1
18,F,0,1,43,7,2,170,2,1031,0,3.085805E-07,12.41724,0,-1
18,F,0,1,43,8,1,172,4,1076,0,0.02052607,6.650847,0.1701742,-1
18,F,0,1,44,1,2,173,1,1076,0,0.304019,12.29447,1.390861,-1
18,F,0,1,44,2,2,176,4,887,0,0.2732929,12.46596,1.219649,-1
18,F,0,1,44,3,2,175,3,964,0,0.01067396,12.21153,0.04845664,-1
18,F,0,1,44,4,1,176,4,2920,0,0.1461394,6.655973,1.198773,-1
18,F,0,1,44,5,1,174,2,4076,2,0.3380565,6.52711,2.820708,-1
18,F,0,1,44,6,1,173,1,1076,0,0.2114047,6.21237,1.857621,-1
18,F,0,1,44,7,2,174,2,4009,0,1.047551,12.4264,4.778933,-1
18,F,0,1,44,8,1,175,3,8975,0,0.05109097,6.395931,0.4374548,-1
18,F,0,1,45,1,2,178,2,1265,0,0.5473908,12.43036,2.470767,-1
18,F,0,1,45,2,1,180,4,2076,0,0.4845059,6.637797,3.995373,-1
18,F,0,1,45,3,1,179,3,4131,0,2.630992E-08,6.402559,0,-1
18,F,0,1,45,4,2,180,4,2787,2,0.8892822,12.43956,3.990076,-1
18,F,0,1,45,5,1,177,1,1031,0,0.3121406,6.200511,2.829024,-1
18,F,0,1,45,6,1,178,2,3209,0,0.4230756,6.543878,3.511678,-1
18,F,0,1,45,7,2,179,3,1498,0,0.9334531,12.159,4.295095,-1
18,F,0,1,45,8,2,177,1,2065,0,0.3556729,12.28628,1.628467,-1
18,F,0,1,46,1,2,182,2,1931,0,0.342238,12.42841,1.556454,-1
18,F,0,1,46,2,2,183,3,1242,0,0.9069115,12.17917,4.154684,-1
18,F,0,1,46,3,1,184,4,2220,0,0.1309652,6.645137,1.076473,-1
18,F,0,1,46,4,2,181,1,2220,0,0.8064526,12.29386,3.723574,-1
18,F,0,1,46,5,1,183,3,3331,0,0.4827685,6.386545,4.167955,-1
18,F,0,1,46,6,2,184,4,931,0,0.309059,12.46624,1.376577,-1
18,F,0,1,46,7,1,182,2,1876,0,0.3105864,6.546719,2.548218,-1
18,F,0,1,46,8,1,181,1,1842,0,0.2105039,6.21744,1.871476,-1
18,F,0,1,47,1,1,188,4,1176,0,0.09467626,6.650209,0.7785863,-1
18,F,0,1,47,2,1,185,1,1387,1,0.3547489,6.226319,3.120858,-1
18,F,0,1,47,3,1,187,3,2931,0,0.4133506,6.384739,3.574893,-1
18,F,0,1,47,4,2,188,4,953,0,0.638095,12.46756,2.861428,-1
18,F,0,1,47,5,2,186,2,931,0,0.2485579,12.42353,1.127959,-1
18,F,0,1,47,6,2,185,1,931,0,0.1438217,12.29353,0.6564078,-1
18,F,0,1,47,7,1,186,2,3787,0,0.1451959,6.540987,1.205285,-1
18,F,0,1,47,8,2,187,3,3665,2,0.2675718,12.16649,1.228601,-1
18,F,0,1,48,1,2,192,4,1265,0,0.134589,12.45686,0.605226,-1
18,F,0,1,48,2,1,191,3,2531,0,0.1565543,6.378652,1.351905,-1
18,F,0,1,48,3,2,189,1,3741,1,2.888217E-08,12.27298,0,-1
18,F,0,1,48,4,2,190,2,2742,0,0.2789586,12.4184,1.26083,-1
18,F,0,1,48,5,1,189,1,2054,2,0.4385068,6.198642,3.920015,-1
18,F,0,1,48,6,1,192,4,787,0,0.3251123,6.650115,2.680807,-1
18,F,0,1,48,7,2,191,3,1342,0,0.8031977,12.19102,3.734653,-1
18,F,0,1,48,8,1,190,2,2620,0,0.3396434,6.535444,2.878208,-1
18,F,0,1,49,1,1,195,3,3076,0,0.06426468,6.337126,0.5588315,-1
18,F,0,1,49,2,1,193,1,2231,2,0.1678576,6.110265,1.512714,-1
18,F,0,1,49,3,2,196,4,909,0,1.384731E-07,12.35142,0,-1
18,F,0,1,49,4,1,194,2,4142,0,0.158606,6.41953,1.361281,-1
18,F,0,1,49,5,2,193,1,1531,0,0.6200702,12.15393,2.894959,-1
18,F,0,1,49,6,2,194,2,1287,0,5.416376E-08,12.26835,0,-1
18,F,0,1,49,7,2,195,3,2220,1,2.186423E-08,12.05828,0,-1
18,F,0,1,49,8,1,196,4,1509,0,0.02798264,6.491178,0.2373883,-1
18,F,0,1,50,1,1,199,3,3176,0,2.374028E-07,6.287622,0,-1
18,F,0,1,50,2,2,200,4,1087,0,0.2182906,12.32575,0.9999508,-1
18,F,0,1,50,3,2,197,1,998,0,0.517737,12.14777,2.380719,-1
18,F,0,1,50,4,2,198,2,1098,0,0.4469531,12.25929,2.047366,-1
18,F,0,1,50,5,1,200,4,2153,0,0.2291449,6.49276,1.936338,-1
18,F,0,1,50,6,1,198,2,1609,0,0.520118,6.399897,4.371794,-1
18,F,0,1,50,7,2,199,3,1609,0,0.7587805,12.04371,3.580148,-1
18,F,0,1,50,8,1,197,1,1509,0,1.640603E-07,6.074432,0,-1
18,F,0,1,51,1,2,202,2,1109,0,0.6794753,12.29082,3.135627,-1
18,F,0,1,51,2,2,203,3,1598,0,0.9197727,12.08596,4.316474,-1
18,F,0,1,51,3,1,201,1,3065,0,0.2140078,6.066171,1.938863,-1
18,F,0,1,51,4,1,204,4,1865,0,0.4861695,6.486243,4.13891,-1
18,F,0,1,51,5,1,203,3,2531,0,0.07576138,6.316123,0.660568,-1
18,F,0,1,51,6,2,201,1,1987,1,0.4652277,12.05504,2.18373,-1
18,F,0,1,51,7,2,204,4,4942,2,0.4294102,12.29499,1.943098,-1
18,F,0,1,51,8,1,202,2,2031,1,0.3647402,6.454168,3.066693,-1
18,F,0,1,52,1,2,207,3,2553,0,0.8338927,12.08304,3.896968,-1
18,F,0,1,52,2,1,208,4,4654,2,0.3508887,6.485154,2.954726,-1
18,F,0,1,52,3,1,205,1,7064,0,0.440839,6.182483,3.960865,-1
18,F,0,1,52,4,2,206,2,5787,7,0.2627691,12.31095,1.20366,-1
18,F,0,1,52,5,2,205,1,2398,0,0.6064151,12.23199,2.812299,-1
18,F,0,1,52,6,1,206,2,5831,1,2.099155E-07,6.470583,0,-1
18,F,0,1,52,7,2,208,4,1109,0,1.910992E-07,12.3371,0,-1
18,F,0,1,52,8,1,207,3,5964,2,0.4272717,6.184068,3.807092,-1
18,F,0,1,53,1,1,209,1,2387,1,0.4416313,6.035855,4.065246,-1
18,F,0,1,53,2,1,212,4,1087,0,0.04116809,6.532032,0.3449174,-1
18,F,0,1,53,3,2,209,1,5142,4,0.5290785,12.20496,2.454713,-1
18,F,0,1,53,4,2,210,2,598,0,0.8264375,12.28911,3.800349,-1
18,F,0,1,53,5,2,212,4,1698,0,2.09102E-07,12.36997,0,-1
18,F,0,1,53,6,1,211,3,2687,0,0.1162038,6.328281,1.012204,-1
18,F,0,1,53,7,1,210,2,2476,1,0.2244924,6.65098,1.87043,-1
18,F,0,1,53,8,2,211,3,1964,1,0.5196315,12.20427,2.383267,-1
18,F,0,1,54,1,1,216,4,1631,0,0.4455632,6.623847,3.659714,-1
18,F,0,1,54,2,2,214,2,2576,1,0.07932704,12.44922,0.3577275,-1
18,F,0,1,54,3,1,213,1,4131,0,0.08582713,6.28433,0.7543329,-1
18,F,0,1,54,4,1,214,2,2431,1,0.1464787,6.613107,1.203985,-1
18,F,0,1,54,5,2,215,3,2209,0,1.901799E-07,12.18115,0,-1
18,F,0,1,54,6,2,213,1,909,0,0.7280877,12.34719,3.345622,-1
18,F,0,1,54,7,2,216,4,5009,4,0.8541259,12.37975,3.848427,-1
18,F,0,1,54,8,1,215,3,4031,1,0.4544808,6.484652,3.892946,-1
18,F,0,1,55,1,1,217,1,2409,0,0.1464014,6.283049,1.291649,-1
18,F,0,1,55,2,1,218,2,2209,0,0.03911508,6.588156,0.3232465,-1
18,F,0,1,55,3,2,219,3,1065,0,0.5218091,12.26359,2.385155,-1
18,F,0,1,55,4,1,220,4,1865,1,0.1064204,6.722462,0.8704314,-1
18,F,0,1,55,5,1,219,3,1654,0,1.090529E-07,6.450181,0,-1
18,F,0,1,55,6,2,218,2,976,0,0.5176279,12.48703,2.341844,-1
18,F,0,1,55,7,2,217,1,1120,0,0.2433348,12.3498,1.104644,-1
18,F,0,1,55,8,2,220,4,1120,1,0.8546962,12.53691,3.831548,-1
18,F,0,1,56,1,1,221,1,942,0,0.1149672,6.267148,1.016256,-1
18,F,0,1,56,2,2,223,3,1198,0,0.6031855,12.26321,2.738383,-1
18,F,0,1,56,3,2,222,2,1231,0,0.8695101,12.48851,3.964226,-1
18,F,0,1,56,4,1,223,3,2209,0,0.1604167,6.448221,1.360994,-1
18,F,0,1,56,5,2,224,4,1164,0,0.2847058,12.54946,1.262846,-1
18,F,0,1,56,6,2,221,1,1131,0,0.3482594,12.34101,1.593973,-1
18,F,0,1,56,7,1,222,2,2587,0,0.01710715,6.592446,0.1412742,-1
18,F,0,1,56,8,1,224,4,2687,0,0.1982331,6.717355,1.618704,-1
18,F,0,1,57,1,4,225,1,2153,2,0.546511,12.35097,2.516295,-1
18,F,0,1,57,2,4,228,4,2320,1,0.7458093,12.5513,3.343105,-1
18,F,0,1,57,3,3,227,3,2753,0,0.48967,6.411494,4.17992,-1
18,F,0,1,57,4,3,225,1,1131,0,0.09621502,6.273483,0.8420942,-1
18,F,0,1,57,5,4,226,2,1887,0,0.2858226,12.47156,1.294373,-1
18,F,0,1,57,6,3,228,4,1520,1,0.2110233,6.716077,1.719081,-1
18,F,0,1,57,7,3,226,2,1809,0,0.4947934,6.59815,4.078039,-1
18,F,0,1,57,8,4,227,3,7842,1,0.6506047,12.24567,3.011164,-1
18,F,0,1,58,1,3,230,2,3675,1,1.74994E-07,6.576604,0,-1
18,F,0,1,58,2,4,229,1,2843,0,0.6679685,12.32005,3.084705,-1
18,F,0,1,58,3,3,231,3,2031,0,0.3687123,6.424054,3.140805,-1
18,F,0,1,58,4,4,232,4,4765,2,0.5419431,12.51418,2.447686,-1
18,F,0,1,58,5,4,230,2,1798,0,0.960363,12.50727,4.320556,-1
18,F,0,1,58,6,3,229,1,7431,0,0.1378422,6.229112,1.225092,-1
18,F,0,1,58,7,4,231,3,2098,0,0.8350445,12.2456,3.864877,-1
18,F,0,1,58,8,3,232,4,2331,0,0.04424236,6.708638,0.3626169,-1
18,F,0,1,59,1,4,233,1,3653,1,0.3939352,12.30825,1.815422,-1
18,F,0,1,59,2,4,235,3,2553,0,0.6766667,12.28211,3.128877,-1
18,F,0,1,59,3,3,233,1,1298,0,0.3426677,6.244935,3.009213,-1
18,F,0,1,59,4,3,234,2,1742,0,0.1108466,6.578824,0.9159984,-1
18,F,0,1,59,5,4,236,4,1842,0,0.1889135,12.55339,0.8425589,-1
18,F,0,1,59,6,4,234,2,6320,0,0.9072372,12.50123,4.130906,-1
18,F,0,1,59,7,3,235,3,3242,1,0.4073254,6.399417,3.502131,-1
18,F,0,1,59,8,3,236,4,3354,0,1.02052E-07,6.726042,0,-1
18,F,0,1,60,1,4,237,1,5309,0,0.6780336,12.34268,3.077271,-1
18,F,0,1,60,2,3,239,3,2065,1,0.3426075,6.437562,2.94889,-1
18,F,0,1,60,3,4,240,4,1520,0,0.086464,12.54214,0.3861367,-1
18,F,0,1,60,4,3,238,2,2976,0,0.08205441,6.601437,0.6737661,-1
18,F,0,1,60,5,3,237,1,1532,0,0.1497381,6.258615,1.308657,-1
18,F,0,1,60,6,4,239,3,2209,0,0.1874154,12.28979,0.8604831,-1
18,F,0,1,60,7,4,238,2,6798,0,1.019473,12.49859,4.611888,-1
18,F,0,1,60,8,3,240,4,3731,1,0.4807421,6.739884,4.002718,-1
18,F,0,1,61,1,1,243,3,2790,0,0.1776752,6.346495,1.545477,-1
18,F,0,1,61,2,1,241,1,943,0,0.1821014,6.11132,1.655285,-1
18,F,0,1,61,3,2,244,4,2810,2,0.7100002,12.35564,3.258646,-1
18,F,0,1,61,4,2,242,2,753,0,0.5947514,12.27673,2.742454,-1
18,F,0,1,61,5,2,241,1,2498,0,0.2875966,12.17422,1.327954,-1
18,F,0,1,61,6,2,243,3,1542,0,0.2353859,12.11078,1.087505,-1
18,F,0,1,61,7,1,242,2,1731,0,8.006089E-08,6.38929,0,-1
18,F,0,1,61,8,1,244,4,1465,0,0.1125836,6.515938,0.9501812,-1
18,F,0,1,62,1,2,247,3,1542,1,0.3266232,12.11999,1.508958,-1
18,F,0,1,62,2,1,248,4,1365,0,0.009807161,6.521338,0.08156469,-1
18,F,0,1,62,3,1,245,1,987,0,0.006206098,6.127757,0.05934703,-1
18,F,0,1,62,4,1,247,3,2898,0,0.2731351,6.343488,2.355179,-1
18,F,0,1,62,5,2,248,4,1009,0,0.8483024,12.37626,3.859757,-1
18,F,0,1,62,6,1,246,2,3353,0,2.307821E-07,6.397069,0,-1
18,F,0,1,62,7,2,245,1,1742,0,0.2491612,12.17705,1.146371,-1
18,F,0,1,62,8,2,246,2,2887,1,0.06961036,12.28611,0.3183671,-1
18,F,0,1,1,1,5,3,3,4663,0,5.357531,6.379022,57.01582,-1
18,F,0,1,1,2,6,1,1,665,0,5.637709,12.19723,27.52995,-1
18,F,0,1,1,3,6,3,3,320,0,4.672128,12.12153,22.67108,-1
18,F,0,1,1,4,7,1,1,465,0,3.252378,6.132686,32.0281,-1
18,F,0,1,1,5,5,2,2,487,0,2.820329,6.422252,24.76501,-1
18,F,0,1,1,6,6,4,4,687,0,0.3513547,12.35819,1.587083,-1
18,F,0,1,1,7,5,1,1,731,0,1.30934,6.125499,11.71691,-1
18,F,0,1,1,8,7,3,3,1220,0,0.8993102,6.321525,7.834563,-1
18,F,0,1,1,9,8,4,4,542,0,8.605489,12.40128,43.61103,-1
18,F,0,1,1,10,8,2,2,498,0,2.739427,12.30842,12.51445,-1
18,F,0,1,1,11,5,4,4,776,0,3.771239,6.523678,35.31594,-1
18,F,0,1,1,12,8,3,3,642,0,4.870438,12.15116,23.62949,-1
18,F,0,1,1,13,6,2,2,420,0,8.343439,12.30265,42.70176,-1
18,F,0,1,1,14,7,4,4,442,0,3.168819,6.525639,28.38005,-1
18,F,0,1,1,15,7,2,2,1198,0,0.9918848,6.424499,8.309739,-1
18,F,0,1,1,16,8,1,1,398,0,8.874795,12.2057,46.64405,-1
18,F,0,1,2,1,6,4,4,342,0,4.179781,12.37238,19.57976,-1
18,F,0,1,2,2,7,3,3,298,0,3.789294,6.323566,35.0742,-1
18,F,0,1,2,3,5,2,2,309,0,1.593325,6.418344,13.69624,-1
18,F,0,1,2,4,6,1,1,287,0,7.746449,12.19745,39.42649,-1
18,F,0,1,2,5,8,3,3,265,0,8.172769,12.16931,42.18979,-1
18,F,0,1,2,6,7,1,1,320,0,3.215198,6.12963,31.63686,-1
18,F,0,1,2,7,6,2,2,265,0,1.637991,12.30953,7.567738,-1
18,F,0,1,2,8,6,3,3,253,0,3.70674,12.11264,17.81968,-1
18,F,0,1,2,9,5,1,1,420,0,2.210072,6.131603,20.73206,-1
18,F,0,1,2,10,5,3,3,653,0,5.089733,6.357792,53.08602,-1
18,F,0,1,2,11,8,4,4,309,0,5.746652,12.38172,27.65353,-1
18,F,0,1,2,12,8,1,1,242,0,2.825957,12.1952,13.39875,-1
18,F,0,1,2,13,5,4,4,242,0,3.29662,6.520632,29.83144,-1
18,F,0,1,2,14,7,2,2,20,0,5.836583,6.449767,64.81377,-1
18,F,0,1,2,15,7,4,4,498,0,2.291034,6.52031,19.6048,-1
18,F,0,1,2,16,8,2,2,342,0,2.793714,12.32318,13.00712,-1
