Age, Gender, Awareness Type, Session, Block, Trial, Set, Pattern, Quadrant, Response Time, Num Mistakes, Distance From Target, Camera Distance From Target, Angle Error (Degrees), FC Response
30,F,0,1,1,1,1,3,3,2542,0,0.4561217,6.052557,4.223316,-1
30,F,0,1,1,2,2,2,2,9999,2,-1,-1,-1,-1
30,F,0,1,1,3,2,1,1,9999,2,-1,-1,-1,-1
30,F,0,1,1,4,1,4,4,3109,0,0.2122815,6.459066,1.809051,-1
30,F,0,1,1,5,2,3,3,5387,1,0.2594315,12.12913,1.205772,-1
30,F,0,1,1,6,1,1,1,3576,0,0.435967,6.119398,3.844456,-1
30,F,0,1,1,7,1,2,2,9999,4,-1,-1,-1,-1
30,F,0,1,1,8,2,4,4,9999,3,-1,-1,-1,-1
30,F,0,1,2,1,1,6,2,9999,2,-1,-1,-1,-1
30,F,0,1,2,2,2,7,3,2320,0,0.5141961,12.10701,2.40428,-1
30,F,0,1,2,3,1,8,4,9999,2,-1,-1,-1,-1
30,F,0,1,2,4,2,5,1,9999,3,-1,-1,-1,-1
30,F,0,1,2,5,1,7,3,2476,0,0.1514297,6.087372,1.365157,-1
30,F,0,1,2,6,1,5,1,6498,1,0.3194341,6.013185,2.952671,-1
30,F,0,1,2,7,2,8,4,9999,2,-1,-1,-1,-1
30,F,0,1,2,8,2,6,2,9120,1,0.953564,12.38893,4.295369,-1
30,F,0,1,3,1,2,9,1,9999,3,-1,-1,-1,-1
30,F,0,1,3,2,2,12,4,9999,2,-1,-1,-1,-1
30,F,0,1,3,3,1,10,2,5764,0,0.4787593,6.464227,4.014687,-1
30,F,0,1,3,4,2,11,3,2565,0,0.487236,12.18307,2.241928,-1
30,F,0,1,3,5,2,10,2,1909,0,0.3605652,12.4651,1.614952,-1
30,F,0,1,3,6,1,12,4,3342,0,0.1340149,6.469547,1.136083,-1
30,F,0,1,3,7,1,11,3,6376,1,0.3246946,6.121457,2.920541,-1
30,F,0,1,3,8,1,9,1,3187,0,0.5255958,6.179539,4.586163,-1
30,F,0,1,4,1,1,15,3,1853,0,6.864919E-08,6.12129,0,-1
30,F,0,1,4,2,1,16,4,2742,0,0.1197032,6.462354,1.008525,-1
30,F,0,1,4,3,2,14,2,3198,0,0.6677451,12.45661,2.980846,-1
30,F,0,1,4,4,2,13,1,2620,0,0.9914744,12.2361,4.495316,-1
30,F,0,1,4,5,2,16,4,1331,0,0.1722238,12.30442,0.7820969,-1
30,F,0,1,4,6,2,15,3,1753,0,0.5940211,12.17335,2.753993,-1
30,F,0,1,4,7,1,13,1,2565,0,0.4724494,6.18573,4.112851,-1
30,F,0,1,4,8,1,14,2,4453,1,0.3776129,6.44783,3.178476,-1
30,F,0,1,5,1,1,20,4,2154,0,0.4314297,6.445891,3.654199,-1
30,F,0,1,5,2,1,18,2,7309,2,0.4895569,6.440634,4.089213,-1
30,F,0,1,5,3,2,17,1,9999,4,-1,-1,-1,-1
30,F,0,1,5,4,2,18,2,909,0,0.572491,12.43901,2.561855,-1
30,F,0,1,5,5,1,19,3,2098,0,0.3395137,6.120478,3.005308,-1
30,F,0,1,5,6,2,20,4,1576,0,0.3717807,12.29397,1.676431,-1
30,F,0,1,5,7,2,19,3,1631,0,0.1653316,12.1481,0.7659171,-1
30,F,0,1,5,8,1,17,1,2654,0,0.4065847,6.160026,3.553965,-1
30,F,0,1,6,1,2,22,2,1320,0,0.8917093,12.43082,3.983543,-1
30,F,0,1,6,2,1,21,1,6753,2,0.3951212,6.150377,3.469328,-1
30,F,0,1,6,3,2,24,4,2398,0,0.1782334,12.29176,0.8127698,-1
30,F,0,1,6,4,2,23,3,1942,0,0.1161802,12.14553,0.5374122,-1
30,F,0,1,6,5,1,24,4,2420,0,0.03708518,6.460046,0.3140353,-1
30,F,0,1,6,6,2,21,1,3398,0,0.06217302,12.21468,0.2846186,-1
30,F,0,1,6,7,1,22,2,3531,0,0.5166125,6.43835,4.356625,-1
30,F,0,1,6,8,1,23,3,1597,0,4.51048E-08,6.11609,0,-1
30,F,0,1,7,1,2,26,2,898,0,0.9906266,12.44579,4.418807,-1
30,F,0,1,7,2,1,28,4,2620,0,0.3880949,6.458403,3.308076,-1
30,F,0,1,7,3,2,25,1,6331,2,0.9155899,12.21722,4.160054,-1
30,F,0,1,7,4,1,26,2,4909,1,0.5405512,6.432309,4.550489,-1
30,F,0,1,7,5,2,27,3,1498,0,0.2319253,12.1475,1.075928,-1
30,F,0,1,7,6,1,25,1,1920,0,0.1719564,6.158712,1.516074,-1
30,F,0,1,7,7,1,27,3,1753,0,1.785204E-08,6.121595,0,-1
30,F,0,1,7,8,2,28,4,1565,0,0.3983491,12.29823,1.804285,-1
30,F,0,1,8,1,1,31,3,1498,0,0.2083452,6.128029,1.844617,-1
30,F,0,1,8,2,1,30,2,2431,0,0.3916962,6.435825,3.303042,-1
30,F,0,1,8,3,1,32,4,3775,1,0.4290414,6.459619,3.664365,-1
30,F,0,1,8,4,2,29,1,5064,2,0.5233096,12.21648,2.383349,-1
30,F,0,1,8,5,2,30,2,3242,1,0.8295034,12.43879,3.741411,-1
30,F,0,1,8,6,1,29,1,3776,1,0.2358577,6.156489,2.076317,-1
30,F,0,1,8,7,2,31,3,1798,0,0.2944296,12.15458,1.358403,-1
30,F,0,1,8,8,2,32,4,1487,0,0.4601183,12.29989,2.070843,-1
30,F,0,1,9,1,1,34,2,7020,2,0.2301458,6.465923,1.931379,-1
30,F,0,1,9,2,2,33,1,1954,0,0.4615507,12.24725,2.098258,-1
30,F,0,1,9,3,2,36,4,1854,0,0.5461074,12.3207,2.457024,-1
30,F,0,1,9,4,2,35,3,3220,0,0.6177519,12.18649,2.858828,-1
30,F,0,1,9,5,2,34,2,1942,0,0.4660894,12.47943,2.080461,-1
30,F,0,1,9,6,1,33,1,1176,0,0.4050251,6.205522,3.520365,-1
30,F,0,1,9,7,1,35,3,1487,0,0.1679287,6.142422,1.484904,-1
30,F,0,1,9,8,1,36,4,5531,1,0.05188319,6.472876,0.4374548,-1
30,F,0,1,10,1,1,39,3,1687,0,6.89012E-08,6.142889,0,-1
30,F,0,1,10,2,1,38,2,7576,3,0.3882222,6.460794,3.328138,-1
30,F,0,1,10,3,2,39,3,1298,0,1.913515E-07,12.1853,0,-1
30,F,0,1,10,4,1,40,4,3542,0,0.5429428,6.475139,4.618085,-1
30,F,0,1,10,5,1,37,1,1909,0,0.1814454,6.194712,1.590039,-1
30,F,0,1,10,6,2,40,4,1320,0,0.5461847,12.31395,2.509909,-1
30,F,0,1,10,7,2,37,1,2076,0,0.7633048,12.25018,3.461362,-1
30,F,0,1,10,8,2,38,2,2209,1,0.5728808,12.47825,2.603312,-1
30,F,0,1,11,1,2,41,1,1497,0,0.8388879,12.24705,3.812129,-1
30,F,0,1,11,2,2,44,4,2109,0,0.2133514,12.31666,0.9769872,-1
30,F,0,1,11,3,2,43,3,1687,0,0.1449389,12.18853,0.6664661,-1
30,F,0,1,11,4,2,42,2,920,0,0.7026786,12.47046,3.133004,-1
30,F,0,1,11,5,1,44,4,3942,0,0.3819893,6.471323,3.230346,-1
30,F,0,1,11,6,1,43,3,1353,0,0.5108306,6.150651,4.470542,-1
30,F,0,1,11,7,1,42,2,3598,1,0.1350374,6.462168,1.133669,-1
30,F,0,1,11,8,1,41,1,1187,0,0.4245585,6.190343,3.703696,-1
30,F,0,1,12,1,1,47,3,1354,0,6.243553E-09,6.141443,0,-1
30,F,0,1,12,2,2,48,4,1887,0,0.106295,12.31289,0.4821389,-1
30,F,0,1,12,3,2,45,1,1409,0,0.5428482,12.23943,2.491515,-1
30,F,0,1,12,4,2,46,2,964,0,0.02298573,12.46587,0.1027921,-1
30,F,0,1,12,5,1,45,1,3198,2,0.4172003,6.182005,3.642553,-1
30,F,0,1,12,6,1,48,4,3298,1,2.312478E-07,6.481103,0,-1
30,F,0,1,12,7,2,47,3,3142,1,0.7746739,12.17631,3.621203,-1
30,F,0,1,12,8,1,46,2,9587,5,0.2764233,6.453907,2.32591,-1
30,F,0,1,13,1,2,52,4,1587,0,0.9033705,12.2643,4.11504,-1
30,F,0,1,13,2,2,49,1,1498,0,0.6222374,12.24185,2.826601,-1
30,F,0,1,13,3,2,51,3,1420,0,0.3151235,12.19986,1.446045,-1
30,F,0,1,13,4,2,50,2,1265,0,0.9690988,12.47023,4.316927,-1
30,F,0,1,13,5,1,52,4,3965,0,0.0756644,6.522526,0.6327289,-1
30,F,0,1,13,6,1,51,3,1454,0,1.079372E-07,6.169817,0,-1
30,F,0,1,13,7,1,49,1,1476,0,0.461238,6.18097,4.030363,-1
30,F,0,1,13,8,1,50,2,1776,0,0.4971611,6.416667,4.204493,-1
30,F,0,1,14,1,1,55,3,2109,0,7.024796E-08,6.166651,0,-1
30,F,0,1,14,2,2,53,1,4342,2,0.8779442,12.22514,3.987228,-1
30,F,0,1,14,3,2,55,3,1231,0,0.3290663,12.18253,1.525211,-1
30,F,0,1,14,4,1,56,4,2387,0,0.2334274,6.512688,1.946821,-1
30,F,0,1,14,5,1,54,2,8753,5,0.4405558,6.423048,3.839818,-1
30,F,0,1,14,6,2,56,4,2287,0,0.3593006,12.32902,1.635542,-1
30,F,0,1,14,7,1,53,1,6098,3,0.1409359,6.164137,1.242223,-1
30,F,0,1,14,8,2,54,2,1721,1,0.2159876,12.46277,0.9733753,-1
30,F,0,1,15,1,2,60,4,3520,0,0.2672227,12.33438,1.222694,-1
30,F,0,1,15,2,1,58,2,2809,0,0.3692436,6.430463,3.115082,-1
30,F,0,1,15,3,2,59,3,1198,0,0.5243574,12.18735,2.428338,-1
30,F,0,1,15,4,2,58,2,776,0,0.5670223,12.45744,2.544606,-1
30,F,0,1,15,5,2,57,1,7364,3,0.5270216,12.19293,2.405908,-1
30,F,0,1,15,6,1,59,3,4876,2,0.09769344,6.136823,0.8760335,-1
30,F,0,1,15,7,1,57,1,3098,1,0.4134574,6.152006,3.664098,-1
30,F,0,1,15,8,1,60,4,2954,0,0.1622205,6.498872,1.357827,-1
30,F,0,1,16,1,1,63,3,1698,0,1.992114E-07,6.151418,0,-1
30,F,0,1,16,2,1,64,4,2487,0,0.2632262,6.497879,2.198201,-1
30,F,0,1,16,3,2,62,2,1265,0,0.8168169,12.46134,3.6595,-1
30,F,0,1,16,4,2,63,3,1053,0,0.9828221,12.17006,4.592309,-1
30,F,0,1,16,5,2,61,1,1465,0,0.7791044,12.22248,3.54812,-1
30,F,0,1,16,6,2,64,4,3309,0,0.03326819,12.32999,0.1506579,-1
30,F,0,1,16,7,1,61,1,2920,0,0.5073703,6.16902,4.438885,-1
30,F,0,1,16,8,1,62,2,4453,1,0.4211909,6.430865,3.553634,-1
30,F,0,1,17,1,3,65,1,3109,1,0.1984647,6.171744,1.745628,-1
30,F,0,1,17,2,3,66,2,5376,2,0.3222158,6.446847,2.720525,-1
30,F,0,1,17,3,4,68,4,1720,0,0.3162611,12.35299,1.427796,-1
30,F,0,1,17,4,4,65,1,2387,1,0.4309837,12.23697,1.961742,-1
30,F,0,1,17,5,3,68,4,4476,1,1.220993E-07,6.506134,0,-1
30,F,0,1,17,6,4,67,3,1531,0,0.07494087,12.17158,0.3460502,-1
30,F,0,1,17,7,4,66,2,2253,0,0.5446495,12.47959,2.432365,-1
30,F,0,1,17,8,3,67,3,2076,0,2.577985E-07,6.175433,0,-1
30,F,0,1,18,1,4,72,4,3242,0,0.5256171,12.34761,2.380884,-1
30,F,0,1,18,2,3,70,2,4331,2,0.1471948,6.425143,1.246312,-1
30,F,0,1,18,3,3,69,1,1709,0,0.2051386,6.172668,1.803091,-1
30,F,0,1,18,4,3,72,4,3720,0,0.4026453,6.489709,3.403926,-1
30,F,0,1,18,5,3,71,3,1431,0,6.606527E-08,6.155667,0,-1
30,F,0,1,18,6,4,70,2,1098,0,0.4000282,12.46295,1.789363,-1
30,F,0,1,18,7,4,69,1,1564,0,0.1138026,12.25144,0.5200178,-1
30,F,0,1,18,8,4,71,3,1598,0,0.3844668,12.16466,1.77233,-1
30,F,0,1,19,1,4,74,2,1109,0,0.3194771,12.46216,1.430261,-1
30,F,0,1,19,2,4,73,1,1487,0,0.350885,12.23025,1.602422,-1
30,F,0,1,19,3,3,76,4,2865,1,0.2394502,6.50096,2.008571,-1
30,F,0,1,19,4,4,75,3,1287,0,0.6616101,12.16514,3.082928,-1
30,F,0,1,19,5,4,76,4,3298,0,0.3779653,12.34522,1.730314,-1
30,F,0,1,19,6,3,75,3,1387,0,8.127163E-08,6.154584,0,-1
30,F,0,1,19,7,3,74,2,4087,1,0.01955708,6.448984,0.165511,-1
30,F,0,1,19,8,3,73,1,1731,0,0.2235492,6.174953,1.965032,-1
30,F,0,1,20,1,4,79,3,1498,0,0.3712564,12.18079,1.722492,-1
30,F,0,1,20,2,3,78,2,4065,1,0.16099,6.430811,1.360562,-1
30,F,0,1,20,3,3,80,4,2320,0,0.3808198,6.489733,3.219175,-1
30,F,0,1,20,4,4,77,1,2020,0,0.4993441,12.25023,2.273656,-1
30,F,0,1,20,5,4,78,2,1287,0,1.021618,12.46328,4.558145,-1
30,F,0,1,20,6,4,80,4,2409,0,0.09310425,12.33242,0.4238235,-1
30,F,0,1,20,7,3,77,1,2998,0,0.03627492,6.173873,0.3214254,-1
30,F,0,1,20,8,3,79,3,1531,0,0.0689512,6.160542,0.608772,-1
30,F,0,1,20,1,2,78,2,765,0,0.7993171,12.45915,3.565461,-1
30,F,0,1,20,2,2,79,3,1042,0,0.4002765,12.18705,1.847056,-1
30,F,0,1,20,3,1,77,1,1142,0,0.06176361,6.169761,0.5450047,-1
30,F,0,1,20,4,2,80,4,1098,0,0.5065458,12.32464,2.325321,-1
30,F,0,1,20,5,1,79,3,1498,0,0.3389876,6.168668,2.978613,-1
30,F,0,1,20,6,1,80,4,2731,1,0.2478583,6.498807,2.070087,-1
30,F,0,1,20,7,2,77,1,2776,0,1.047381,12.2399,4.76929,-1
30,F,0,1,20,8,1,78,2,1909,0,0.2458061,6.432488,2.072638,-1
30,F,0,1,21,1,2,84,4,1576,0,0.3877932,12.3229,1.759586,-1
30,F,0,1,21,2,2,81,1,1987,0,0.2539636,12.22882,1.159103,-1
30,F,0,1,21,3,2,82,2,1276,1,0.04111228,12.46848,0.1845175,-1
30,F,0,1,21,4,1,81,1,1331,0,0.2997361,6.178037,2.622042,-1
30,F,0,1,21,5,1,83,3,1887,0,0.09132681,6.156007,0.8064859,-1
30,F,0,1,21,6,1,84,4,4065,1,0.4251701,6.495192,3.549941,-1
30,F,0,1,21,7,2,83,3,998,0,0.2795832,12.18383,1.296035,-1
30,F,0,1,21,8,1,82,2,6387,2,0.4586342,6.42081,3.875756,-1
30,F,0,1,22,1,1,85,1,1542,0,0.4716815,6.156939,4.176639,-1
30,F,0,1,22,2,1,87,3,1642,0,0.1573782,6.156761,1.388326,-1
30,F,0,1,22,3,2,86,2,1709,1,0.342353,12.46326,1.532379,-1
30,F,0,1,22,4,2,88,4,2153,0,0.1484758,12.33458,0.6726035,-1
30,F,0,1,22,5,1,86,2,2553,1,0.32588,6.427507,2.750081,-1
30,F,0,1,22,6,1,88,4,4265,0,0.5517354,6.494047,4.671561,-1
30,F,0,1,22,7,2,87,3,865,0,0.03022263,12.18936,0.1398823,-1
30,F,0,1,22,8,2,85,1,1731,0,0.687429,12.23303,3.138061,-1
30,F,0,1,23,1,2,92,4,2920,0,0.2151349,12.33572,0.9783881,-1
30,F,0,1,23,2,2,90,2,909,0,0.8531213,12.44517,3.813516,-1
30,F,0,1,23,3,1,92,4,3687,0,0.1574687,6.503647,1.332661,-1
30,F,0,1,23,4,1,89,1,1487,0,0.2442264,6.163154,2.150586,-1
30,F,0,1,23,5,2,91,3,2087,0,0.2287954,12.1771,1.058879,-1
30,F,0,1,23,6,2,89,1,3942,0,0.07448519,12.2352,0.3409232,-1
30,F,0,1,23,7,1,90,2,2921,0,0.5474674,6.44268,4.613375,-1
30,F,0,1,23,8,1,91,3,2087,0,0.3794781,6.159072,3.380551,-1
30,F,0,1,24,1,2,96,4,1820,0,0.6355609,12.33154,2.903331,-1
30,F,0,1,24,2,2,94,2,1365,0,0.5849646,12.46002,2.612469,-1
30,F,0,1,24,3,2,95,3,809,0,0.06232608,12.18892,0.2859903,-1
30,F,0,1,24,4,1,93,1,2864,2,1.186641E-07,6.164639,0,-1
30,F,0,1,24,5,1,96,4,2265,1,0.4158254,6.510118,3.4523,-1
30,F,0,1,24,6,1,95,3,1320,0,0.3117281,6.166268,2.720309,-1
30,F,0,1,24,7,2,93,1,1364,0,0.1468885,12.22925,0.6737661,-1
30,F,0,1,24,8,1,94,2,1687,0,0.4172735,6.433946,3.519142,-1
30,F,0,1,25,1,2,99,3,1420,0,0.1094385,12.18499,0.5047422,-1
30,F,0,1,25,2,1,100,4,2498,0,0.5546461,6.504879,4.663167,-1
30,F,0,1,25,3,1,98,2,3709,2,0.162795,6.434518,1.368021,-1
30,F,0,1,25,4,2,100,4,1276,0,0.0994339,12.33263,0.4498048,-1
30,F,0,1,25,5,2,98,2,1365,1,0.2119169,12.46796,0.9503872,-1
30,F,0,1,25,6,2,97,1,1498,0,0.905605,12.22991,4.110517,-1
30,F,0,1,25,7,1,99,3,1231,0,0.2459679,6.162836,2.164827,-1
30,F,0,1,25,8,1,97,1,2620,1,0.4588403,6.14686,4.016735,-1
30,F,0,1,26,1,2,102,2,1109,0,0.2541754,12.46184,1.14141,-1
30,F,0,1,26,2,2,104,4,1276,0,0.6791905,12.32227,3.057038,-1
30,F,0,1,26,3,2,101,1,1576,0,0.3709156,12.23268,1.695121,-1
30,F,0,1,26,4,1,104,4,4153,0,0.289014,6.496027,2.449525,-1
30,F,0,1,26,5,2,103,3,1142,0,0.035932,12.18053,0.166689,-1
30,F,0,1,26,6,1,102,2,2131,0,0.03883853,6.447291,0.3280534,-1
30,F,0,1,26,7,1,101,1,1509,0,0.146197,6.17559,1.286792,-1
30,F,0,1,26,8,1,103,3,1376,0,0.1956595,6.147213,1.770894,-1
30,F,0,1,27,1,2,106,2,898,0,0.7191508,12.46379,3.207905,-1
30,F,0,1,27,2,1,105,1,5120,1,0.4066162,6.172975,3.54961,-1
30,F,0,1,27,3,1,106,2,2454,1,0.4528343,6.449593,3.830474,-1
30,F,0,1,27,4,1,108,4,2420,0,1.044669E-07,6.498317,0,-1
30,F,0,1,27,5,1,107,3,1054,0,0.1783746,6.154656,1.581401,-1
30,F,0,1,27,6,2,108,4,1242,0,0.2857777,12.32447,1.294676,-1
30,F,0,1,27,7,2,105,1,1554,0,0.553701,12.23959,2.535281,-1
30,F,0,1,27,8,2,107,3,1042,0,0.8166152,12.18269,3.820237,-1
30,F,0,1,28,1,1,112,4,2998,1,0.0473838,6.494174,0.3981127,-1
30,F,0,1,28,2,1,110,2,3154,1,6.272148E-08,6.439159,0,-1
30,F,0,1,28,3,2,111,3,1176,0,0.286943,12.17779,1.329132,-1
30,F,0,1,28,4,2,112,4,2265,0,0.5460215,12.32882,2.455351,-1
30,F,0,1,28,5,1,109,1,1843,0,0.3258809,6.171571,2.856156,-1
30,F,0,1,28,6,2,110,2,809,0,0.3788418,12.46364,1.695121,-1
30,F,0,1,28,7,1,111,3,1776,0,0.2664884,6.153752,2.388599,-1
30,F,0,1,28,8,2,109,1,1131,0,0.726889,12.22935,3.327785,-1
30,F,0,1,29,1,1,116,4,2243,0,0.4143773,6.500101,3.510619,-1
30,F,0,1,29,2,2,114,2,2597,2,0.6357208,12.47051,2.836211,-1
30,F,0,1,29,3,1,113,1,1287,0,0.02448411,6.172888,0.2158,-1
30,F,0,1,29,4,2,115,3,1087,0,0.6214072,12.18357,2.898608,-1
30,F,0,1,29,5,2,113,1,3053,2,0.6137619,12.22591,2.793933,-1
30,F,0,1,29,6,1,114,2,2665,1,0.3890228,6.437483,3.256662,-1
30,F,0,1,29,7,1,115,3,1354,0,0.2545124,6.157389,2.301463,-1
30,F,0,1,29,8,2,116,4,1353,0,7.426689E-08,12.33664,0,-1
30,F,0,1,30,1,1,117,1,4598,2,0.02770779,6.164509,0.2446942,-1
30,F,0,1,30,2,2,119,3,1209,0,0.3263547,12.17892,1.513231,-1
30,F,0,1,30,3,1,120,4,2587,0,0.1671888,6.500567,1.399137,-1
30,F,0,1,30,4,1,119,3,1331,0,0.2599352,6.160738,2.317395,-1
30,F,0,1,30,5,1,118,2,2587,1,0.4325225,6.429747,3.637227,-1
30,F,0,1,30,6,2,120,4,1620,0,0.9062295,12.33084,4.14959,-1
30,F,0,1,30,7,2,117,1,1387,0,0.7913846,12.22397,3.5963,-1
30,F,0,1,30,8,2,118,2,898,0,0.9175941,12.45891,4.100977,-1
30,F,0,1,31,1,1,123,3,3276,1,0.2704839,6.14928,2.421235,-1
30,F,0,1,31,2,2,121,1,1698,0,0.5598273,12.22596,2.550368,-1
30,F,0,1,31,3,1,124,4,2609,0,0.2737485,6.495568,2.298144,-1
30,F,0,1,31,4,1,121,1,1309,0,0.5226662,6.166056,4.574702,-1
30,F,0,1,31,5,2,122,2,820,0,0.8704709,12.45413,3.890883,-1
30,F,0,1,31,6,2,124,4,1553,0,0.06341065,12.32844,0.2880355,-1
30,F,0,1,31,7,1,122,2,2143,0,0.5437652,6.421474,4.596488,-1
30,F,0,1,31,8,2,123,3,1487,0,0.8667004,12.1663,4.049946,-1
30,F,0,1,32,1,2,126,2,842,0,0.6449093,12.45607,2.880248,-1
30,F,0,1,32,2,2,128,4,2209,0,0.247925,12.32425,1.123613,-1
30,F,0,1,32,3,1,127,3,2020,0,0.07778566,6.161218,0.690405,-1
30,F,0,1,32,4,2,125,1,1831,0,0.8316219,12.21576,3.851123,-1
30,F,0,1,32,5,2,127,3,1031,0,0.9389058,12.17611,4.384588,-1
30,F,0,1,32,6,1,128,4,2187,0,0.04326256,6.501594,0.3631561,-1
30,F,0,1,32,7,1,125,1,2176,0,0.1666853,6.171757,1.466871,-1
30,F,0,1,32,8,1,126,2,2476,0,0.4381729,6.433636,3.695917,-1
30,F,0,1,33,1,2,132,4,1165,0,0.5103583,12.32064,2.312068,-1
30,F,0,1,33,2,2,131,3,754,0,0.2832426,12.18351,1.30176,-1
30,F,0,1,33,3,2,130,2,1465,1,0.378712,12.45459,1.695583,-1
30,F,0,1,33,4,2,129,1,1320,0,0.7276498,12.22362,3.30926,-1
30,F,0,1,33,5,1,130,2,2876,1,0.2907386,6.423749,2.454793,-1
30,F,0,1,33,6,1,129,1,3042,2,0.2261442,6.159731,1.988004,-1
30,F,0,1,33,7,1,131,3,1298,0,0.1832391,6.151947,1.649838,-1
30,F,0,1,33,8,1,132,4,3454,0,0.05105973,6.505802,0.4316007,-1
30,F,0,1,34,1,1,134,2,3565,1,0.357316,6.426705,2.999896,-1
30,F,0,1,34,2,2,135,3,1109,0,0.3818856,12.18087,1.77222,-1
30,F,0,1,34,3,2,133,1,1620,0,0.9305372,12.22316,4.227256,-1
30,F,0,1,34,4,1,135,3,2298,1,0.1723814,6.152787,1.549524,-1
30,F,0,1,34,5,2,134,2,987,0,0.2246015,12.46029,1.00736,-1
30,F,0,1,34,6,2,136,4,1820,0,5.918417E-08,12.3337,0,-1
30,F,0,1,34,7,1,133,1,1376,0,0.4934289,6.171335,4.300199,-1
30,F,0,1,34,8,1,136,4,4420,0,0.04754458,6.500579,0.3986039,-1
30,F,0,1,35,1,2,137,1,5920,4,0.07121257,12.21598,0.3274564,-1
30,F,0,1,35,2,1,140,4,3375,1,2.141304E-07,6.504597,0,-1
30,F,0,1,35,3,1,139,3,1376,0,0.3451448,6.161129,3.035768,-1
30,F,0,1,35,4,1,138,2,2542,0,0.2906422,6.287853,2.505616,-1
30,F,0,1,35,5,1,137,1,2076,1,0.2378791,6.070129,2.122187,-1
30,F,0,1,35,6,2,140,4,1665,0,0.04966447,12.31517,0.2246844,-1
30,F,0,1,35,7,2,138,2,1209,0,0.5803723,12.46189,2.602485,-1
30,F,0,1,35,8,2,139,3,1776,0,0.1313358,12.19413,0.6045791,-1
30,F,0,1,37,1,4,148,4,1420,0,0.5006347,12.33896,2.285419,-1
30,F,0,1,37,2,4,147,3,1098,0,0.7130507,12.18206,3.2765,-1
30,F,0,1,37,3,3,146,2,4598,3,0.3314182,6.398932,2.808329,-1
30,F,0,1,37,4,3,147,3,1031,0,0.5269034,6.198223,4.684458,-1
30,F,0,1,37,5,3,145,1,1376,0,0.1179747,6.188836,1.04155,-1
30,F,0,1,37,6,3,148,4,4076,0,0.2164143,6.521199,1.798745,-1
30,F,0,1,37,7,4,145,1,2054,1,0.7331721,12.21509,3.397823,-1
30,F,0,1,37,8,4,146,2,4220,3,0.73228,12.46032,3.267525,-1
30,F,0,1,38,1,4,152,4,9999,0,-1,-1,-1,-1
30,F,0,1,38,2,4,149,1,3165,2,0.5109641,12.22551,2.33045,-1
30,F,0,1,38,3,4,151,3,1631,1,0.8573219,12.16203,4.008927,-1
30,F,0,1,38,4,3,150,2,2631,1,0.1306264,6.406003,1.108535,-1
30,F,0,1,38,5,3,152,4,2131,0,1.385231E-07,6.520741,0,-1
30,F,0,1,38,6,4,150,2,8242,2,0.6199477,12.47006,2.771987,-1
30,F,0,1,38,7,3,149,1,1842,1,0.3133595,6.157028,2.799322,-1
30,F,0,1,38,8,3,151,3,2698,0,0.1540939,6.200754,1.354219,-1
30,F,0,1,39,1,4,154,2,1598,1,0.3258629,12.46229,1.462328,-1
30,F,0,1,39,2,4,153,1,1431,0,0.2811784,12.23419,1.282679,-1
30,F,0,1,39,3,3,155,3,1587,0,0.1556983,6.20045,1.36845,-1
30,F,0,1,39,4,3,154,2,1498,0,0.3767401,6.411216,3.186903,-1
30,F,0,1,39,5,3,153,1,1520,0,0.2868525,6.165104,2.520104,-1
30,F,0,1,39,6,4,156,4,1665,0,0.4899338,12.34869,2.209303,-1
30,F,0,1,39,7,4,155,3,1242,0,0.3670705,12.17599,1.697544,-1
30,F,0,1,39,8,3,156,4,3531,1,0.3814727,6.531225,3.160316,-1
30,F,0,1,40,1,3,158,2,2542,1,0.1174922,6.411869,0.993472,-1
30,F,0,1,40,2,4,160,4,2553,0,0.3326964,12.34578,1.504022,-1
30,F,0,1,40,3,3,157,1,1909,0,4.734251E-08,6.163407,0,-1
30,F,0,1,40,4,3,159,3,3609,1,0.1035125,6.189542,0.923233,-1
30,F,0,1,40,5,4,157,1,1320,0,0.7029088,12.22116,3.209674,-1
30,F,0,1,40,6,3,160,4,3098,0,0.09828628,6.519613,0.8201992,-1
30,F,0,1,40,7,4,158,2,1065,0,1.001012,12.4652,4.460498,-1
30,F,0,1,40,8,4,159,3,998,0,0.3754142,12.17391,1.740688,-1
30,F,0,1,41,1,1,162,2,2742,0,0.4260164,6.439584,3.589706,-1
30,F,0,1,41,2,2,164,4,1065,0,0.922712,12.34858,4.175654,-1
30,F,0,1,41,3,1,161,1,1998,1,0.08708346,6.179042,0.7669383,-1
30,F,0,1,41,4,2,162,2,1020,0,0.2742039,12.47896,1.231306,-1
30,F,0,1,41,5,1,163,3,1054,0,0.1566882,6.186083,1.37615,-1
30,F,0,1,41,6,2,161,1,1065,0,0.07994089,12.2383,0.3658403,-1
30,F,0,1,41,7,1,164,4,1442,0,0.1511275,6.527169,1.271186,-1
30,F,0,1,41,8,2,163,3,831,0,0.1815475,12.21095,0.8336869,-1
30,F,0,1,42,1,1,168,4,3153,0,1.972647E-07,6.532094,0,-1
30,F,0,1,42,2,2,166,2,965,0,0.6670656,12.47423,2.989437,-1
30,F,0,1,42,3,1,167,3,1009,0,7.640333E-08,6.171908,0,-1
30,F,0,1,42,4,1,165,1,1176,0,1.354955E-07,6.178348,0,-1
30,F,0,1,42,5,1,166,2,3309,2,0.4551093,6.413736,3.846849,-1
30,F,0,1,42,6,2,167,3,853,0,0.4354098,12.19945,2.013437,-1
30,F,0,1,42,7,2,168,4,2820,1,0.62744,12.33002,2.840555,-1
30,F,0,1,42,8,2,165,1,1131,0,0.6598991,12.22942,3.021678,-1
30,F,0,1,43,1,1,170,2,2176,0,0.4940015,6.434016,4.166874,-1
30,F,0,1,43,2,1,171,3,2298,0,0.1560346,6.167303,1.401513,-1
30,F,0,1,43,3,2,172,4,1309,0,0.3024127,12.34981,1.375297,-1
30,F,0,1,43,4,1,169,1,1220,0,0.2945789,6.173553,2.583766,-1
30,F,0,1,43,5,2,170,2,776,0,0.4768456,12.46778,2.130838,-1
30,F,0,1,43,6,2,171,3,942,0,0.350735,12.19195,1.62558,-1
30,F,0,1,43,7,1,172,4,3676,0,0.1125511,6.528822,0.9389946,-1
30,F,0,1,43,8,2,169,1,954,0,0.2456277,12.24164,1.120299,-1
30,F,0,1,44,1,2,176,4,1198,0,0.753621,12.34589,3.420909,-1
30,F,0,1,44,2,1,175,3,2409,0,0.1365401,6.181164,1.200241,-1
30,F,0,1,44,3,1,174,2,3564,1,0.03276452,6.429713,0.2762456,-1
30,F,0,1,44,4,2,173,1,5376,1,1.004304,12.2219,4.654085,-1
30,F,0,1,44,5,1,176,4,2342,0,0.3097056,6.525809,2.613668,-1
30,F,0,1,44,6,2,175,3,698,0,0.1989585,12.20546,0.9130027,-1
30,F,0,1,44,7,2,174,2,1042,0,0.1767799,12.47491,0.7967216,-1
30,F,0,1,44,8,1,173,1,1409,0,0.4133176,6.175103,3.656074,-1
30,F,0,1,45,1,2,179,3,1053,0,0.8598819,12.19296,4.009269,-1
30,F,0,1,45,2,1,178,2,1598,0,0.2401821,6.429265,2.024584,-1
30,F,0,1,45,3,1,179,3,1687,1,0.3184628,6.181173,2.773046,-1
30,F,0,1,45,4,2,177,1,1076,0,9.577697E-08,12.23184,0,-1
30,F,0,1,45,5,2,178,2,731,0,0.08728447,12.46752,0.3916712,-1
30,F,0,1,45,6,1,180,4,3664,0,0.3282062,6.5268,2.767747,-1
30,F,0,1,45,7,1,177,1,1076,0,0.195415,6.180163,1.714064,-1
30,F,0,1,45,8,2,180,4,1720,0,0.1192035,12.35204,0.5410409,-1
30,F,0,1,46,1,1,183,3,1531,0,0.4226488,6.186424,3.703696,-1
30,F,0,1,46,2,1,181,1,1254,0,0.4274768,6.169778,3.799421,-1
30,F,0,1,46,3,1,182,2,3253,0,0.3833113,6.428524,3.234585,-1
30,F,0,1,46,4,2,181,1,1842,1,0.306318,12.23187,1.413608,-1
30,F,0,1,46,5,2,184,4,1776,0,1.102954E-07,12.35611,0.01978234,-1
30,F,0,1,46,6,2,183,3,842,0,0.3790393,12.20232,1.738663,-1
30,F,0,1,46,7,1,184,4,3253,0,0.3535174,6.526336,2.983275,-1
30,F,0,1,46,8,2,182,2,931,0,0.5096494,12.47585,2.275463,-1
30,F,0,1,47,1,1,185,1,1276,0,0.4142885,6.184879,3.613246,-1
30,F,0,1,47,2,2,186,2,876,0,0.2872072,12.47353,1.290437,-1
30,F,0,1,47,3,2,187,3,953,0,0.6723709,12.20758,3.118034,-1
30,F,0,1,47,4,1,188,4,2120,0,0.07385925,6.537598,0.6119779,-1
30,F,0,1,47,5,2,185,1,1131,0,0.9860509,12.23166,4.503891,-1
30,F,0,1,47,6,2,188,4,1209,0,0.4747558,12.36137,2.164556,-1
30,F,0,1,47,7,1,186,2,3242,2,0.2046907,6.422637,1.764805,-1
30,F,0,1,47,8,1,187,3,2331,0,0.4284651,6.184198,3.763223,-1
30,F,0,1,48,1,2,189,1,1309,0,0.5540774,12.22841,2.552593,-1
30,F,0,1,48,2,2,190,2,931,0,0.07414257,12.47234,0.3322025,-1
30,F,0,1,48,3,1,192,4,2120,1,0.07664482,6.531925,0.6471007,-1
30,F,0,1,48,4,1,189,1,1431,0,0.2260455,6.173635,2.023617,-1
30,F,0,1,48,5,2,191,3,987,0,0.7368593,12.19222,3.435073,-1
30,F,0,1,48,6,1,190,2,2420,0,1.30175E-07,6.441965,0,-1
30,F,0,1,48,7,1,191,3,1254,0,0.011201,6.176919,0.09691329,-1
30,F,0,1,48,8,2,192,4,3009,1,0.3343062,12.36124,1.525339,-1
30,F,0,1,49,1,2,194,2,1031,0,0.180385,12.49299,0.8072135,-1
30,F,0,1,49,2,1,196,4,2887,0,0.3341886,6.539022,2.814525,-1
30,F,0,1,49,3,1,194,2,2909,0,0.2358048,6.440678,1.977244,-1
30,F,0,1,49,4,1,195,3,1243,0,0.09744911,6.198946,0.8554656,-1
30,F,0,1,49,5,1,193,1,1165,0,0.2477799,6.203776,2.171957,-1
30,F,0,1,49,6,2,195,3,765,0,0.8582126,12.22664,3.925556,-1
30,F,0,1,49,7,2,196,4,987,0,0.2304088,12.36633,1.04324,-1
30,F,0,1,49,8,2,193,1,1009,0,0.3619097,12.25259,1.67035,-1
30,F,0,1,50,1,1,198,2,1309,0,0.1183168,6.448325,0.9911057,-1
30,F,0,1,50,2,1,199,3,1909,2,0.5223119,6.194379,4.541699,-1
30,F,0,1,50,3,1,197,1,1020,0,0.2508359,6.208205,2.197222,-1
30,F,0,1,50,4,2,200,4,1120,0,0.4594892,12.37543,2.065354,-1
30,F,0,1,50,5,2,198,2,842,0,0.7697229,12.49469,3.488856,-1
30,F,0,1,50,6,2,197,1,1153,0,3.277592E-08,12.25556,0,-1
30,F,0,1,50,7,1,200,4,1787,0,0.2565888,6.543875,2.124675,-1
30,F,0,1,50,8,2,199,3,1009,0,0.001474369,12.22415,0,-1
30,F,0,1,51,1,2,201,1,920,0,0.9123115,12.2633,4.135359,-1
30,F,0,1,51,2,2,203,3,1365,1,0.0962506,12.21708,0.4423477,-1
30,F,0,1,51,3,1,204,4,2231,0,0.001783568,6.548833,0,-1
30,F,0,1,51,4,1,201,1,1154,0,1.275918E-08,6.197745,0,-1
30,F,0,1,51,5,1,202,2,1920,0,0.1550817,6.447165,1.302361,-1
30,F,0,1,51,6,2,204,4,1453,0,0.6746497,12.3749,3.052617,-1
30,F,0,1,51,7,2,202,2,676,0,0.05414445,12.49305,0.2422834,-1
30,F,0,1,51,8,1,203,3,1342,0,0.2004931,6.202907,1.755243,-1
30,F,0,1,52,1,2,205,1,898,0,0.4584815,12.25283,2.107844,-1
30,F,0,1,52,2,1,208,4,1665,0,0.3077409,6.547129,2.542913,-1
30,F,0,1,52,3,1,207,3,1053,0,0.3850846,6.20366,3.413231,-1
30,F,0,1,52,4,1,206,2,2465,0,0.1399171,6.447542,1.180846,-1
30,F,0,1,52,5,2,208,4,1798,1,0.9675028,12.37423,4.349696,-1
30,F,0,1,52,6,2,206,2,754,0,0.5278612,12.49341,2.362978,-1
30,F,0,1,52,7,1,205,1,2665,2,0.05218846,6.190454,0.4601268,-1
30,F,0,1,52,8,2,207,3,898,0,0.682407,12.22384,3.121674,-1
30,F,0,1,53,1,2,212,4,1509,0,0.3832383,12.37684,1.739113,-1
30,F,0,1,53,2,2,209,1,1353,0,0.9799791,12.2611,4.497799,-1
30,F,0,1,53,3,1,212,4,3309,1,0.0003602723,6.549232,0,-1
30,F,0,1,53,4,2,211,3,754,0,0.07965985,12.23082,0.365305,-1
30,F,0,1,53,5,1,210,2,1887,0,0.1322774,6.451759,1.108358,-1
30,F,0,1,53,6,1,211,3,1442,0,0.2131448,6.203048,1.873253,-1
30,F,0,1,53,7,2,210,2,1243,0,0.2320105,12.493,1.041175,-1
30,F,0,1,53,8,1,209,1,1165,0,1.159768E-08,6.2015,0,-1
30,F,0,1,54,1,2,215,3,898,0,0.09213454,12.22238,0.4224361,-1
30,F,0,1,54,2,2,216,4,1020,0,1.011971,12.37868,4.612738,-1
30,F,0,1,54,3,1,213,1,1576,1,0.1995643,6.195999,1.777622,-1
30,F,0,1,54,4,1,214,2,2187,0,0.08068614,6.455279,0.6769533,-1
30,F,0,1,54,5,2,213,1,1098,0,0.7494268,12.25243,3.436555,-1
30,F,0,1,54,6,2,214,2,876,0,0.3146126,12.49341,1.405556,-1
30,F,0,1,54,7,1,216,4,2020,1,5.868901E-08,6.549254,0,-1
30,F,0,1,54,8,1,215,3,1220,0,5.523652E-08,6.206665,0.01978234,-1
30,F,0,1,55,1,2,218,2,1020,0,0.2550734,12.50181,1.147054,-1
30,F,0,1,55,2,1,220,4,1509,0,0.2180795,6.550748,1.815638,-1
30,F,0,1,55,3,2,217,1,1009,0,0.1173123,12.25988,0.5366834,-1
30,F,0,1,55,4,1,219,3,1165,0,0.1645496,6.206945,1.431902,-1
30,F,0,1,55,5,1,218,2,1042,0,0.4757384,6.459463,3.969459,-1
30,F,0,1,55,6,2,220,4,920,0,0.1944762,12.38161,0.8809339,-1
30,F,0,1,55,7,2,219,3,1509,1,0.9964879,12.21933,4.637725,-1
30,F,0,1,55,8,1,217,1,1153,0,1.049121E-07,6.19919,0,-1
30,F,0,1,56,1,2,224,4,1031,0,0.6785918,12.37512,3.103497,-1
30,F,0,1,56,2,2,222,2,742,0,0.5422028,12.49057,2.417189,-1
30,F,0,1,56,3,1,224,4,1642,0,0.1011879,6.544233,0.8432553,-1
30,F,0,1,56,4,1,221,1,1176,0,2.294834E-07,6.196298,0,-1
30,F,0,1,56,5,2,223,3,976,0,0.3523712,12.21849,1.632308,-1
30,F,0,1,56,6,2,221,1,1153,0,0.9381427,12.24955,4.310344,-1
30,F,0,1,56,7,1,223,3,1342,0,0.1753724,6.207311,1.534676,-1
30,F,0,1,56,8,1,222,2,1076,0,0.3209863,6.445712,2.701246,-1
30,F,0,1,57,1,3,227,3,1987,1,0.09462903,6.202209,0.8397673,-1
30,F,0,1,57,2,3,225,1,1565,0,0.1396308,6.212113,1.223333,-1
30,F,0,1,57,3,4,226,2,1731,0,0.1658254,12.50747,0.7449358,-1
30,F,0,1,57,4,4,228,4,1065,0,0.4595377,12.37708,2.095458,-1
30,F,0,1,57,5,4,227,3,787,0,0.4895811,12.20568,2.262091,-1
30,F,0,1,57,6,3,226,2,2253,1,4.758725E-08,6.449101,0.01978234,-1
30,F,0,1,57,7,3,228,4,1598,0,0.4192053,6.550103,3.506489,-1
30,F,0,1,57,8,4,225,1,1220,0,1.900587E-07,12.26255,0,-1
30,F,0,1,58,1,4,231,3,898,0,0.3400929,12.20799,1.573336,-1
30,F,0,1,58,2,4,232,4,1009,0,0.1193278,12.3785,0.5370479,-1
30,F,0,1,58,3,4,229,1,1231,0,0.6248643,12.26359,2.869967,-1
30,F,0,1,58,4,3,232,4,1965,1,0.1002912,6.548499,0.8372003,-1
30,F,0,1,58,5,3,229,1,1376,0,0.1045963,6.229693,0.9164255,-1
30,F,0,1,58,6,3,230,2,3020,1,0.1764266,6.451642,1.486089,-1
30,F,0,1,58,7,3,231,3,1042,0,0.114141,6.194148,1.010463,-1
30,F,0,1,58,8,4,230,2,831,0,0.7027147,12.50279,3.12725,-1
30,F,0,1,59,1,4,235,3,976,0,0.01968352,12.20395,0.09065409,-1
30,F,0,1,59,2,3,233,1,1020,0,0.04350534,6.216763,0.3830841,-1
30,F,0,1,59,3,3,235,3,876,0,0.2373013,6.203339,2.112388,-1
30,F,0,1,59,4,4,236,4,887,0,8.237782E-08,12.37063,0,-1
30,F,0,1,59,5,3,234,2,2809,0,0.08307052,6.449924,0.6977351,-1
30,F,0,1,59,6,3,236,4,3254,1,0.3429396,6.531975,2.885612,-1
30,F,0,1,59,7,4,233,1,3531,3,0.4167508,12.24321,1.915506,-1
30,F,0,1,59,8,4,234,2,1087,0,0.6224396,12.49361,2.776644,-1
30,F,0,1,60,1,4,237,1,1065,0,0.2598591,12.25433,1.191405,-1
30,F,0,1,60,2,4,240,4,1865,0,0.8174467,12.40274,3.751185,-1
30,F,0,1,60,3,3,238,2,1676,0,0.4677131,6.447553,3.901087,-1
30,F,0,1,60,4,3,237,1,1254,0,0.09500214,6.192156,0.8364988,-1
30,F,0,1,60,5,3,239,3,1020,0,0.008472061,6.210917,0.07401875,-1
30,F,0,1,60,6,3,240,4,2442,0,0.2147934,6.555482,1.770562,-1
30,F,0,1,60,7,4,238,2,1009,0,0.05691341,12.51144,0.2548778,-1
30,F,0,1,60,8,4,239,3,1031,0,0.8170255,12.22591,3.809971,-1
30,F,0,1,61,1,2,244,4,1254,1,0.1840619,12.38228,0.8379012,-1
30,F,0,1,61,2,1,242,2,1764,1,0.1343354,6.442188,1.145176,-1
30,F,0,1,61,3,1,241,1,1387,0,0.3381284,6.199193,2.952274,-1
30,F,0,1,61,4,2,242,2,1898,0,0.5360968,12.51102,2.434135,-1
30,F,0,1,61,5,1,243,3,1698,0,0.003854888,6.203558,0.03426402,-1
30,F,0,1,61,6,1,244,4,2576,1,0.3096725,6.558043,2.584144,-1
30,F,0,1,61,7,2,243,3,931,0,0.3281035,12.23358,1.512843,-1
30,F,0,1,61,8,2,241,1,3443,3,0.05770957,12.24923,0.2639296,-1
30,F,0,1,62,1,2,246,2,1076,0,1.804218E-07,12.50304,0,-1
30,F,0,1,62,2,2,248,4,1253,0,3.706823E-08,12.38749,0,-1
30,F,0,1,62,3,2,245,1,1087,0,0.2045473,12.26107,0.9350269,-1
30,F,0,1,62,4,1,246,2,2920,0,7.190178E-08,6.448928,0,-1
30,F,0,1,62,5,2,247,3,776,0,0.3695482,12.23582,1.697544,-1
30,F,0,1,62,6,1,248,4,1698,0,0.4107903,6.560214,3.445601,-1
30,F,0,1,62,7,1,247,3,1065,0,0.5023531,6.22613,4.374615,-1
30,F,0,1,62,8,1,245,1,1465,0,0.04081592,6.2033,0.3588198,-1
30,F,0,1,1,1,5,3,3,16519,0,2.479733,6.276556,22.3919,-1
30,F,0,1,1,2,8,1,1,10153,0,6.353956,12.34529,30.97652,-1
30,F,0,1,1,3,5,4,4,5609,0,0.2626697,6.581802,2.1974,-1
30,F,0,1,1,4,5,2,2,4420,0,0.924636,6.48832,7.752335,-1
30,F,0,1,1,5,8,4,4,5298,0,5.632555,12.43347,26.93731,-1
30,F,0,1,1,6,6,3,3,4842,0,1.891157,12.28912,8.742017,-1
30,F,0,1,1,7,7,1,1,1742,0,3.905064,6.282994,38.42788,-1
30,F,0,1,1,8,6,2,2,1487,0,3.64532,12.54264,16.85537,-1
30,F,0,1,1,9,6,4,4,3042,0,1.114857,12.43186,5.056329,-1
30,F,0,1,1,10,6,1,1,3398,0,1.989375,12.32375,9.253701,-1
30,F,0,1,1,11,7,3,3,1953,0,3.049901,6.294207,28.07343,-1
30,F,0,1,1,12,5,1,1,2175,0,3.36635,6.284345,32.38952,-1
30,F,0,1,1,13,7,4,4,2298,0,6.153192,6.608711,68.60269,-1
30,F,0,1,1,14,8,2,2,3098,0,3.786078,12.5404,17.53018,-1
30,F,0,1,1,15,8,3,3,4509,0,2.86683,12.29232,13.42432,-1
30,F,0,1,1,16,7,2,2,5131,0,4.29943,6.521733,41.24244,-1
30,F,0,1,2,1,8,2,2,1142,0,1.206094,12.55771,5.475074,-1
30,F,0,1,2,2,5,3,3,1898,0,2.215687,6.262486,19.43733,-1
30,F,0,1,2,3,8,1,1,3320,0,6.627069,12.36057,32.18239,-1
30,F,0,1,2,4,5,4,4,3420,0,3.512775,6.568373,30.92124,-1
30,F,0,1,2,5,6,1,1,2287,0,2.929713,12.33161,13.54192,-1
30,F,0,1,2,6,6,3,3,7031,0,1.839625,12.28665,8.572652,-1
30,F,0,1,2,7,5,2,2,2742,0,3.422185,6.510079,29.85418,-1
30,F,0,1,2,8,6,4,4,2420,0,4.498209,12.40878,20.97505,-1
30,F,0,1,2,9,7,1,1,1942,0,1.082129E-08,6.264817,0,-1
30,F,0,1,2,10,7,3,3,3287,0,3.290839,6.292164,31.30189,-1
30,F,0,1,2,11,5,1,1,6809,0,5.468461,6.291698,60.36058,-1
30,F,0,1,2,12,6,2,2,1320,0,4.954901,12.53795,23.21923,-1
30,F,0,1,2,13,7,4,4,2598,0,2.774177,6.556943,23.904,-1
30,F,0,1,2,14,7,2,2,3698,0,2.269947,6.535464,19.30335,-1
30,F,0,1,2,15,8,4,4,3720,0,1.053083,12.41685,4.791624,-1
30,F,0,1,2,16,8,3,3,4409,0,3.885166,12.28519,18.3523,-1
