Age, Gender, Awareness Type, Session, Block, Trial, Set, Pattern, Quadrant, Response Time, Num Mistakes, Distance From Target, Camera Distance From Target, Angle Error (Degrees), FC Response
19,F,0,1,1,1,1,1,1,2620,0,0.07746904,6.158992,0.6829963,-1
19,F,0,1,1,2,2,4,4,4387,0,1.055981,12.35772,4.755387,-1
19,F,0,1,1,3,2,1,1,2064,0,0.1957121,12.15551,0.9050379,-1
19,F,0,1,1,4,1,2,2,9999,5,-1,-1,-1,-1
19,F,0,1,1,5,1,3,3,3287,0,0.432981,6.282918,3.770657,-1
19,F,0,1,1,6,1,4,4,9999,4,-1,-1,-1,-1
19,F,0,1,1,7,2,2,2,6420,1,0.6827027,12.36533,3.07256,-1
19,F,0,1,1,8,2,3,3,2631,0,0.2146424,12.24021,0.9877436,-1
19,F,0,1,2,1,2,5,1,7331,3,0.8771564,12.08455,4.057241,-1
19,F,0,1,2,2,1,7,3,2975,0,0.08958153,6.293333,0.7788376,-1
19,F,0,1,2,3,1,8,4,9999,4,-1,-1,-1,-1
19,F,0,1,2,4,2,6,2,6064,1,0.319351,12.26699,1.453604,-1
19,F,0,1,2,5,2,7,3,2164,0,0.6259231,12.16092,2.859444,-1
19,F,0,1,2,6,1,6,2,6520,2,0.4486367,6.490877,3.820954,-1
19,F,0,1,2,7,2,8,4,5820,1,7.152988E-08,12.31901,0,-1
19,F,0,1,2,8,1,5,1,3654,0,0.01490343,6.100073,0.132704,-1
19,F,0,1,3,1,1,10,2,3253,1,0.456261,6.47431,3.811975,-1
19,F,0,1,3,2,2,9,1,1987,0,0.904791,12.09908,4.205983,-1
19,F,0,1,3,3,2,12,4,2998,1,0.1877487,12.30661,0.8522572,-1
19,F,0,1,3,4,2,10,2,2576,0,0.7938223,12.27638,3.605217,-1
19,F,0,1,3,5,1,11,3,3220,0,0.0591917,6.247822,0.518133,-1
19,F,0,1,3,6,1,9,1,2842,0,0.1409941,6.102541,1.260053,-1
19,F,0,1,3,7,2,11,3,2264,0,0.3260242,12.15564,1.503631,-1
19,F,0,1,3,8,1,12,4,4287,1,0.03662584,6.480885,0.3058279,-1
19,F,0,1,4,1,2,14,2,2731,1,0.4766512,12.28195,2.161026,-1
19,F,0,1,4,2,1,16,4,4242,1,0.07076624,6.479809,0.5990517,-1
19,F,0,1,4,3,1,13,1,1931,0,0.2309183,6.107721,2.03519,-1
19,F,0,1,4,4,1,14,2,3665,1,0.3825248,6.472877,3.195921,-1
19,F,0,1,4,5,2,13,1,3620,0,0.6291252,12.09699,2.906229,-1
19,F,0,1,4,6,1,15,3,5920,1,3.265703E-07,6.240834,0,-1
19,F,0,1,4,7,2,16,4,1698,0,0.1916799,12.31135,0.8690815,-1
19,F,0,1,4,8,2,15,3,2242,0,0.282212,12.16291,1.293012,-1
19,F,0,1,5,1,1,17,1,2542,0,0.2790289,6.106162,2.454075,-1
19,F,0,1,5,2,2,19,3,5220,2,0.7042581,12.26662,3.205646,-1
19,F,0,1,5,3,2,18,2,1687,0,0.8698635,12.33801,3.927601,-1
19,F,0,1,5,4,2,17,1,1687,0,0.3444351,12.1544,1.594832,-1
19,F,0,1,5,5,1,18,2,4876,2,0.4494812,6.516425,3.731874,-1
19,F,0,1,5,6,1,20,4,5609,2,0.4956875,6.510405,4.193299,-1
19,F,0,1,5,7,1,19,3,3831,0,0.01545793,6.270085,0.1341704,-1
19,F,0,1,5,8,2,20,4,6287,1,0.8843031,12.32228,3.992137,-1
19,F,0,1,6,1,2,22,2,1764,0,0.6367611,12.2792,2.889679,-1
19,F,0,1,6,2,2,23,3,8653,4,0.6206156,12.13671,2.890289,-1
19,F,0,1,6,3,2,24,4,5020,1,0.7857226,12.30765,3.550658,-1
19,F,0,1,6,4,1,23,3,3654,0,0.4597669,6.266326,4.004577,-1
19,F,0,1,6,5,1,21,1,3353,0,0.2936961,6.081872,2.609096,-1
19,F,0,1,6,6,1,22,2,3176,1,0.1681643,6.46082,1.408894,-1
19,F,0,1,6,7,2,21,1,2031,0,0.9427834,12.08668,4.403265,-1
19,F,0,1,6,8,1,24,4,3098,0,0.5146273,6.492808,4.357075,-1
19,F,0,1,7,1,1,26,2,3876,2,0.4147843,6.460932,3.471585,-1
19,F,0,1,7,2,2,28,4,4742,1,0.4518648,12.31603,2.054428,-1
19,F,0,1,7,3,2,27,3,3365,0,0.1701699,12.16401,0.7810954,-1
19,F,0,1,7,4,2,26,2,4042,1,0.7501253,12.28205,3.451733,-1
19,F,0,1,7,5,1,25,1,2787,0,0.2598914,6.080416,2.356009,-1
19,F,0,1,7,6,1,28,4,2220,0,0.5425062,6.488902,4.596573,-1
19,F,0,1,7,7,2,25,1,3320,1,0.8661544,12.09063,3.996059,-1
19,F,0,1,7,8,1,27,3,2387,0,0.07321038,6.265716,0.6370438,-1
19,F,0,1,8,1,1,30,2,2654,1,0.3726677,6.461208,3.115333,-1
19,F,0,1,8,2,2,29,1,1542,0,0.8761493,12.08581,4.101885,-1
19,F,0,1,8,3,2,31,3,1464,0,0.7606313,12.16274,3.527977,-1
19,F,0,1,8,4,2,30,2,1420,0,0.8116675,12.27611,3.675889,-1
19,F,0,1,8,5,2,32,4,1986,1,0.4827063,12.31506,2.179064,-1
19,F,0,1,8,6,1,31,3,5953,2,0.3331859,6.288764,2.90232,-1
19,F,0,1,8,7,1,32,4,3742,1,0.4276879,6.493407,3.608203,-1
19,F,0,1,8,8,1,29,1,3087,0,0.09937281,6.08079,0.9000514,-1
19,F,0,1,9,1,1,34,2,8298,3,0.1277552,6.53733,1.062568,-1
19,F,0,1,9,2,2,33,1,3876,0,0.9469795,12.15648,4.376719,-1
19,F,0,1,9,3,2,35,3,2154,0,8.917516E-08,12.22935,0,-1
19,F,0,1,9,4,1,36,4,3031,0,1.254753E-07,6.528193,0,-1
19,F,0,1,9,5,1,33,1,2565,1,0.3098712,6.138163,2.751077,-1
19,F,0,1,9,6,1,35,3,3109,0,0.01579288,6.303099,0.1370561,-1
19,F,0,1,9,7,2,34,2,4298,1,0.4666119,12.31449,2.111554,-1
19,F,0,1,9,8,2,36,4,2987,1,0.3082338,12.34467,1.394795,-1
19,F,0,1,10,1,1,39,3,3409,0,0.5131431,6.288105,4.468702,-1
19,F,0,1,10,2,1,37,1,2408,0,1.187014E-07,6.134081,0,-1
19,F,0,1,10,3,1,38,2,4598,1,0.4951892,6.489316,4.128297,-1
19,F,0,1,10,4,2,37,1,2020,0,0.4393256,12.12493,2.037497,-1
19,F,0,1,10,5,2,39,3,2198,0,0.9298542,12.18787,4.234431,-1
19,F,0,1,10,6,1,40,4,3764,1,2.468122E-07,6.54347,0,-1
19,F,0,1,10,7,2,38,2,1920,0,1.024751,12.30054,4.633838,-1
19,F,0,1,10,8,2,40,4,2565,1,0.8169309,12.3407,3.677434,-1
19,F,0,1,11,1,1,42,2,4876,1,0.2368818,6.497045,1.9811,-1
19,F,0,1,11,2,1,44,4,3042,0,0.4317919,6.503428,3.648085,-1
19,F,0,1,11,3,2,41,1,1865,0,0.4326116,12.12403,2.003498,-1
19,F,0,1,11,4,2,42,2,7031,1,0.2537052,12.30439,1.159103,-1
19,F,0,1,11,5,1,41,1,2153,0,0.3449972,6.123657,3.018242,-1
19,F,0,1,11,6,1,43,3,2042,0,0.5252846,6.283356,4.575002,-1
19,F,0,1,11,7,2,44,4,2320,1,0.178948,12.34284,0.8146936,-1
19,F,0,1,11,8,2,43,3,2187,0,0.6847976,12.18165,3.133754,-1
19,F,0,1,12,1,1,48,4,9999,5,-1,-1,-1,-1
19,F,0,1,12,2,1,47,3,3842,0,0.2602138,6.275671,2.26434,-1
19,F,0,1,12,3,2,45,1,1698,0,0.6476111,12.11406,2.986096,-1
19,F,0,1,12,4,2,48,4,1376,0,0.5049857,12.32844,2.278128,-1
19,F,0,1,12,5,1,46,2,2942,1,0.01225068,6.484599,0.1027921,-1
19,F,0,1,12,6,1,45,1,2709,0,0.0423677,6.110581,0.3779418,-1
19,F,0,1,12,7,2,46,2,3542,0,0.5831715,12.29485,2.636262,-1
19,F,0,1,12,8,2,47,3,2453,0,1.006912,12.18988,4.584198,-1
19,F,0,1,13,1,1,50,2,5198,1,0.2060934,6.484945,1.717828,-1
19,F,0,1,13,2,2,52,4,2697,1,0.2695691,12.33642,1.217883,-1
19,F,0,1,13,3,1,51,3,3232,0,0.5378854,6.283452,4.673447,-1
19,F,0,1,13,4,1,52,4,5531,1,0.02595714,6.550224,0.2158,-1
19,F,0,1,13,5,2,49,1,2453,0,0.2713747,12.12489,1.251952,-1
19,F,0,1,13,6,2,50,2,3187,1,0.7647914,12.3142,3.454794,-1
19,F,0,1,13,7,2,51,3,2487,0,0.9040284,12.18682,4.136023,-1
19,F,0,1,13,8,1,49,1,2387,0,0.03321464,6.122064,0.2954137,-1
19,F,0,1,14,1,2,55,3,7886,5,0.3941368,12.21735,1.794278,-1
19,F,0,1,14,2,1,53,1,1798,0,0.3726207,6.137823,3.365285,-1
19,F,0,1,14,3,1,55,3,9575,6,0.05184434,6.324685,0.4471871,-1
19,F,0,1,14,4,2,56,4,2709,1,0.1968829,12.34508,0.8976567,-1
19,F,0,1,14,5,1,54,2,5765,2,0.5374764,6.514194,4.465325,-1
19,F,0,1,14,6,2,53,1,2231,0,0.5772373,12.1385,2.665135,-1
19,F,0,1,14,7,2,54,2,2265,0,0.9295664,12.32524,4.19442,-1
19,F,0,1,14,8,1,56,4,4286,2,0.2880062,6.526454,2.417675,-1
19,F,0,1,15,1,1,57,1,1831,0,0.2787891,6.130126,2.443604,-1
19,F,0,1,15,2,1,60,4,2431,0,0.3231664,6.514112,2.725342,-1
19,F,0,1,15,3,1,59,3,3309,0,0.4317771,6.289981,3.758173,-1
19,F,0,1,15,4,2,60,4,2242,1,0.6596532,12.35304,2.981175,-1
19,F,0,1,15,5,2,57,1,1820,0,0.8079941,12.13186,3.722522,-1
19,F,0,1,15,6,2,58,2,3576,1,4.708021E-08,12.3129,0,-1
19,F,0,1,15,7,2,59,3,2231,0,0.827938,12.1917,3.783824,-1
19,F,0,1,15,8,1,58,2,4476,2,0.3231272,6.499033,2.688535,-1
19,F,0,1,16,1,1,63,3,2354,0,0.321466,6.286785,2.789235,-1
19,F,0,1,16,2,2,62,2,7298,1,0.8374827,12.30613,3.850461,-1
19,F,0,1,16,3,2,64,4,1787,0,0.8578305,12.34034,3.866904,-1
19,F,0,1,16,4,2,61,1,1531,0,0.4257914,12.13178,1.962041,-1
19,F,0,1,16,5,2,63,3,9999,0,-1,-1,-1,-1
19,F,0,1,16,6,1,64,4,3731,1,0.4764385,6.503782,4.025501,-1
19,F,0,1,16,7,1,62,2,2065,1,0.2577289,6.499849,2.143019,-1
19,F,0,1,16,8,1,61,1,1798,0,1.522904E-07,6.134555,0,-1
19,F,0,1,17,1,4,66,2,5942,1,0.6141955,12.33768,2.823136,-1
19,F,0,1,17,2,4,67,3,2031,0,0.6976078,12.2298,3.187088,-1
19,F,0,1,17,3,4,65,1,1564,0,0.2520049,12.1881,1.161969,-1
19,F,0,1,17,4,3,66,2,4531,2,0.3482715,6.534741,2.905016,-1
19,F,0,1,17,5,3,65,1,1709,0,0.2846099,6.146732,2.507256,-1
19,F,0,1,17,6,4,68,4,1331,0,1.056126,12.33137,4.741939,-1
19,F,0,1,17,7,3,67,3,3653,1,5.311027E-08,6.294505,0,-1
19,F,0,1,17,8,3,68,4,3442,1,9.100117E-08,6.524476,0,-1
19,F,0,1,18,1,4,70,2,6120,0,0.3263392,12.34565,1.479755,-1
19,F,0,1,18,2,4,71,3,3053,0,0.2128664,12.18293,0.9735762,-1
19,F,0,1,18,3,3,70,2,4598,2,0.3705283,6.499037,3.071285,-1
19,F,0,1,18,4,3,72,4,3531,0,0.2670006,6.517092,2.246202,-1
19,F,0,1,18,5,3,71,3,2976,0,0.1409143,6.296914,1.218686,-1
19,F,0,1,18,6,3,69,1,1609,0,0.2419411,6.130344,2.141649,-1
19,F,0,1,18,7,4,72,4,1709,0,1.052163,12.34188,4.744169,-1
19,F,0,1,18,8,4,69,1,1231,0,0.4097156,12.14688,1.888755,-1
19,F,0,1,19,1,3,76,4,2720,0,0.5366387,6.504776,4.534708,-1
19,F,0,1,19,2,4,74,2,1853,1,0.4769772,12.30051,2.165369,-1
19,F,0,1,19,3,3,73,1,3464,0,0.1251909,6.128926,1.105884,-1
19,F,0,1,19,4,4,75,3,2220,0,0.09166541,12.17734,0.4201138,-1
19,F,0,1,19,5,4,76,4,1542,0,0.6311387,12.32248,2.833587,-1
19,F,0,1,19,6,3,75,3,3509,0,0.3440218,6.294835,3.004004,-1
19,F,0,1,19,7,4,73,1,1376,0,0.2481985,12.13271,1.14995,-1
19,F,0,1,19,8,3,74,2,4142,1,0.5009435,6.529309,4.277229,-1
19,F,0,1,20,1,4,77,1,1231,0,0.5051994,12.12494,2.325068,-1
19,F,0,1,20,2,3,78,2,3398,1,0.1584847,6.491858,1.340275,-1
19,F,0,1,20,3,4,80,4,2009,0,0.8292528,12.32698,3.728304,-1
19,F,0,1,20,4,4,78,2,1298,0,0.5886995,12.29627,2.662196,-1
19,F,0,1,20,5,3,80,4,3876,2,1.572566E-07,6.512277,0,-1
19,F,0,1,20,6,3,79,3,3631,0,0.2077,6.297419,1.795478,-1
19,F,0,1,20,7,3,77,1,4075,0,0.1468311,6.145619,1.304013,-1
19,F,0,1,20,8,4,79,3,2420,0,1.620264E-07,12.19586,0,-1
19,F,0,1,20,1,2,78,2,3887,2,0.6658726,12.3176,3.011099,-1
19,F,0,1,20,2,1,80,4,3087,0,0.4900597,6.505483,4.139525,-1
19,F,0,1,20,3,1,79,3,3687,0,0.2748874,6.285693,2.392774,-1
19,F,0,1,20,4,2,80,4,1587,0,1.501459E-07,12.35157,0,-1
19,F,0,1,20,5,1,77,1,2620,0,0.0226487,6.13722,0.2007689,-1
19,F,0,1,20,6,2,79,3,1776,0,0.3919862,12.19353,1.790675,-1
19,F,0,1,20,7,1,78,2,1520,0,0.46139,6.505821,3.836757,-1
19,F,0,1,20,8,2,77,1,3831,2,0.3053886,12.12833,1.409449,-1
19,F,0,1,21,1,1,84,4,5598,2,1.41777E-07,6.522856,0,-1
19,F,0,1,21,2,1,83,3,2320,0,0.2647254,6.281946,2.305711,-1
19,F,0,1,21,3,2,84,4,1209,0,0.198553,12.33905,0.8976567,-1
19,F,0,1,21,4,1,81,1,4287,1,7.515429E-08,6.115577,0,-1
19,F,0,1,21,5,1,82,2,3353,2,1.026819E-07,6.486133,0,-1
19,F,0,1,21,6,2,81,1,1653,0,0.3736274,12.11073,1.736073,-1
19,F,0,1,21,7,2,83,3,2853,0,1.03529,12.17363,4.719785,-1
19,F,0,1,21,8,2,82,2,1676,0,0.6428836,12.3023,2.911881,-1
19,F,0,1,22,1,1,88,4,3353,1,1.60003E-07,6.486175,0,-1
19,F,0,1,22,2,2,86,2,1965,0,0.3712237,12.30056,1.684699,-1
19,F,0,1,22,3,2,85,1,1576,0,0.2346025,12.1054,1.086245,-1
19,F,0,1,22,4,2,88,4,1420,0,0.4573977,12.32843,2.062604,-1
19,F,0,1,22,5,1,87,3,3298,0,0.3001956,6.267025,2.620922,-1
19,F,0,1,22,6,1,86,2,3565,2,0.3768929,6.48466,3.143235,-1
19,F,0,1,22,7,1,85,1,2520,0,0.3040859,6.125181,2.698128,-1
19,F,0,1,22,8,2,87,3,1976,0,0.5725283,12.17462,2.654317,-1
19,F,0,1,23,1,2,89,1,1342,0,0.9661015,12.11191,4.546786,-1
19,F,0,1,23,2,2,91,3,3064,1,0.01223925,12.17513,0.05233916,-1
19,F,0,1,23,3,2,92,4,3153,2,0.06622219,12.33257,0.3006659,-1
19,F,0,1,23,4,1,89,1,1765,0,0.1309952,6.11522,1.168351,-1
19,F,0,1,23,5,2,90,2,2387,0,0.1649095,12.30004,0.7499101,-1
19,F,0,1,23,6,1,91,3,4176,2,0.239334,6.271612,2.097512,-1
19,F,0,1,23,7,1,92,4,5676,3,0.03627569,6.54176,0.3032579,-1
19,F,0,1,23,8,1,90,2,1587,0,0.3618807,6.491642,2.992121,-1
19,F,0,1,24,1,2,95,3,2031,0,0.6141209,12.17903,2.822512,-1
19,F,0,1,24,2,2,96,4,2976,2,0.9055452,12.33565,4.083846,-1
19,F,0,1,24,3,1,93,1,2531,0,9.27903E-08,6.113295,0,-1
19,F,0,1,24,4,2,94,2,1509,0,2.581263E-08,12.30435,0,-1
19,F,0,1,24,5,2,93,1,1642,0,0.7738346,12.10449,3.61097,-1
19,F,0,1,24,6,1,94,2,1887,0,0.5271877,6.490532,4.394851,-1
19,F,0,1,24,7,1,95,3,3209,0,0.2295715,6.277746,2.000858,-1
19,F,0,1,24,8,1,96,4,3942,0,0.3470043,6.503676,2.925831,-1
19,F,0,1,25,1,1,97,1,1720,0,0.4332186,6.116038,3.783048,-1
19,F,0,1,25,2,2,98,2,2365,0,0.5913933,12.3036,2.673495,-1
19,F,0,1,25,3,1,100,4,2265,0,0.3932114,6.503996,3.305886,-1
19,F,0,1,25,4,2,97,1,1409,0,0.2889067,12.1209,1.333248,-1
19,F,0,1,25,5,2,100,4,1476,1,0.4276084,12.33638,1.949533,-1
19,F,0,1,25,6,1,99,3,2187,0,0.3190949,6.282904,2.780871,-1
19,F,0,1,25,7,1,98,2,2598,2,0.03754798,6.490448,0.315279,-1
19,F,0,1,25,8,2,99,3,9999,0,-1,-1,-1,-1
19,F,0,1,26,1,1,104,4,2853,0,0.4271604,6.497497,3.612216,-1
19,F,0,1,26,2,1,102,2,1920,1,0.3009498,6.487535,2.498967,-1
19,F,0,1,26,3,2,103,3,3876,0,0.3781373,12.18823,1.738663,-1
19,F,0,1,26,4,2,101,1,1609,0,0.9487829,12.12467,4.372152,-1
19,F,0,1,26,5,1,103,3,4031,1,0.3142425,6.283308,2.742668,-1
19,F,0,1,26,6,1,101,1,1531,0,0.2480253,6.118216,2.18928,-1
19,F,0,1,26,7,2,104,4,1842,1,0.3865248,12.33092,1.746413,-1
19,F,0,1,26,8,2,102,2,1231,0,0.9023111,12.29925,4.085668,-1
19,F,0,1,27,1,2,105,1,1453,0,0.8985037,12.11216,4.205471,-1
19,F,0,1,27,2,1,108,4,3820,1,0.1552126,6.499955,1.295884,-1
19,F,0,1,27,3,1,105,1,1887,0,5.937038E-08,6.118768,0,-1
19,F,0,1,27,4,1,106,2,1709,0,0.4599775,6.490592,3.833591,-1
19,F,0,1,27,5,2,107,3,1853,0,0.4639586,12.1788,2.120157,-1
19,F,0,1,27,6,2,108,4,1187,0,0.9940543,12.3378,4.483012,-1
19,F,0,1,27,7,1,107,3,2576,0,0.03444923,6.281568,0.2993615,-1
19,F,0,1,27,8,2,106,2,2109,0,0.9887465,12.29976,4.477941,-1
19,F,0,1,28,1,1,111,3,2631,0,0.2321329,6.284224,2.021004,-1
19,F,0,1,28,2,2,110,2,4842,2,0.5026667,12.302,2.294223,-1
19,F,0,1,28,3,1,109,1,1665,0,0.2385421,6.118913,2.098258,-1
19,F,0,1,28,4,1,112,4,3898,0,0.410599,6.4989,3.471416,-1
19,F,0,1,28,5,2,109,1,1376,0,0.9503701,12.10871,4.465238,-1
19,F,0,1,28,6,1,110,2,2298,1,0.3453213,6.488494,2.881335,-1
19,F,0,1,28,7,2,112,4,2020,1,0.329205,12.33987,1.487274,-1
19,F,0,1,28,8,2,111,3,2442,1,7.079441E-08,12.18531,0,-1
19,F,0,1,29,1,1,114,2,2664,1,0.2126259,6.487915,1.775419,-1
19,F,0,1,29,2,2,115,3,2109,0,2.361578E-07,12.18948,0,-1
19,F,0,1,29,3,1,113,1,2442,0,0.3639423,6.120935,3.189912,-1
19,F,0,1,29,4,1,115,3,2842,0,4.187002E-08,6.282297,0,-1
19,F,0,1,29,5,1,116,4,2342,1,0.118901,6.503382,0.9930781,-1
19,F,0,1,29,6,2,114,2,1642,0,0.9962857,12.30374,4.500542,-1
19,F,0,1,29,7,2,116,4,998,0,0.2667352,12.33318,1.205772,-1
19,F,0,1,29,8,2,113,1,1909,1,0.4639174,12.1147,2.162294,-1
19,F,0,1,30,1,1,118,2,5165,3,0.06635054,6.490217,0.55778,-1
19,F,0,1,30,2,1,119,3,2831,0,0.1721865,6.287829,1.495933,-1
19,F,0,1,30,3,1,117,1,5865,0,0.3339107,6.118146,2.972824,-1
19,F,0,1,30,4,2,118,2,2775,1,1.030903,12.29454,4.767811,-1
19,F,0,1,30,5,2,119,3,2753,0,0.4570282,12.1847,2.107658,-1
19,F,0,1,30,6,1,120,4,2165,0,0.399337,6.504098,3.373478,-1
19,F,0,1,30,7,2,117,1,1376,0,0.4754616,12.11063,2.201937,-1
19,F,0,1,30,8,2,120,4,1487,0,0.5410882,12.33669,2.438633,-1
19,F,0,1,31,1,1,121,1,2109,0,0.1974291,6.116827,1.740688,-1
19,F,0,1,31,2,2,124,4,998,0,0.7928079,12.33671,3.574455,-1
19,F,0,1,31,3,2,123,3,1553,0,0.3683371,12.18548,1.681676,-1
19,F,0,1,31,4,1,122,2,2765,1,0.262375,6.485634,2.185969,-1
19,F,0,1,31,5,2,121,1,1553,0,0.7664642,12.10558,3.574236,-1
19,F,0,1,31,6,1,123,3,4398,2,0.1210584,6.278914,1.054805,-1
19,F,0,1,31,7,1,124,4,3331,0,0.5401743,6.506258,4.564243,-1
19,F,0,1,31,8,2,122,2,1865,0,0.4148152,12.30081,1.876176,-1
19,F,0,1,32,1,1,128,4,3431,1,0.003547547,6.508983,0.02797646,-1
19,F,0,1,32,2,2,125,1,1320,0,0.5304204,12.1206,2.442964,-1
19,F,0,1,32,3,2,126,2,3631,0,0.7745547,12.29752,3.533245,-1
19,F,0,1,32,4,1,125,1,2665,1,0.1641189,6.109152,1.474323,-1
19,F,0,1,32,5,1,126,2,2154,1,0.5030107,6.482451,4.172135,-1
19,F,0,1,32,6,2,127,3,1798,0,5.653006E-07,12.18104,0,-1
19,F,0,1,32,7,2,128,4,1287,0,0.3836673,12.3349,1.733139,-1
19,F,0,1,32,8,1,127,3,4431,1,0.109546,6.277335,0.9542912,-1
19,F,0,1,33,1,1,132,4,2487,1,0.1574116,6.50582,1.328691,-1
19,F,0,1,33,2,1,131,3,2876,0,0.2864027,6.286894,2.492929,-1
19,F,0,1,33,3,2,129,1,1398,0,0.09034865,12.13351,0.4177785,-1
19,F,0,1,33,4,1,130,2,2031,1,0.3488931,6.476903,2.893944,-1
19,F,0,1,33,5,2,132,4,1331,0,0.283002,12.31779,1.286031,-1
19,F,0,1,33,6,1,129,1,1809,0,0.2125348,6.107258,1.875028,-1
19,F,0,1,33,7,2,130,2,4098,1,0.7815958,12.26902,3.547955,-1
19,F,0,1,33,8,2,131,3,2665,0,0.5254285,12.15252,2.443525,-1
19,F,0,1,34,1,2,134,2,1953,1,0.2662162,12.27125,1.211277,-1
19,F,0,1,34,2,1,135,3,2376,0,0.169242,6.282722,1.469537,-1
19,F,0,1,34,3,1,133,1,1531,0,0.07238796,6.090828,0.6452838,-1
19,F,0,1,34,4,2,135,3,1876,0,0.237542,12.15364,1.09807,-1
19,F,0,1,34,5,1,134,2,1798,1,0.5207357,6.460054,4.360804,-1
19,F,0,1,34,6,2,136,4,1498,1,0.3679875,12.30564,1.666361,-1
19,F,0,1,34,7,2,133,1,1231,0,0.4466564,12.07638,2.067438,-1
19,F,0,1,34,8,1,136,4,2654,1,0.1147578,6.488591,0.9614412,-1
19,F,0,1,35,1,2,138,2,1398,0,0.7256992,12.26137,3.332488,-1
19,F,0,1,35,2,2,137,1,1609,0,0.8880368,12.05954,4.150486,-1
19,F,0,1,35,3,1,139,3,3509,0,0.104862,6.261675,0.916212,-1
19,F,0,1,35,4,1,140,4,2609,1,1.729406E-07,6.476839,0,-1
19,F,0,1,35,5,1,138,2,1831,1,0.248185,6.448141,2.075186,-1
19,F,0,1,35,6,2,140,4,2598,1,0.04960521,12.29016,0.2264194,-1
19,F,0,1,35,7,1,137,1,1742,0,0.2684104,6.084293,2.432526,-1
19,F,0,1,35,8,2,139,3,3298,0,0.374087,12.14145,1.740913,-1
19,F,0,1,37,1,4,145,1,1331,0,0.6082301,12.07436,2.815638,-1
19,F,0,1,37,2,4,146,2,1198,0,0.7652553,12.24028,3.4574,-1
19,F,0,1,37,3,4,148,4,4465,1,0.5878711,12.29362,2.658664,-1
19,F,0,1,37,4,3,145,1,3220,0,0.1368964,6.100455,1.236697,-1
19,F,0,1,37,5,4,147,3,2720,0,0.5087591,12.16786,2.36132,-1
19,F,0,1,37,6,3,148,4,2765,0,0.3953504,6.496341,3.301085,-1
19,F,0,1,37,7,3,146,2,1587,0,0.2394448,6.454481,2.000369,-1
19,F,0,1,37,8,3,147,3,2120,0,0.3821951,6.271252,3.330431,-1
19,F,0,1,38,1,3,152,4,2942,0,0.1464185,6.492526,1.251952,-1
19,F,0,1,38,2,4,149,1,1220,0,0.5503468,12.05779,2.577394,-1
19,F,0,1,38,3,4,151,3,2187,0,0.06557539,12.14619,0.3019647,-1
19,F,0,1,38,4,3,149,1,1431,0,0.01662115,6.110775,0.1480375,-1
19,F,0,1,38,5,3,151,3,3031,0,0.3591487,6.256442,3.132379,-1
19,F,0,1,38,6,3,150,2,1465,0,0.5227291,6.451737,4.382936,-1
19,F,0,1,38,7,4,152,4,1420,0,0.3917315,12.27687,1.774758,-1
19,F,0,1,38,8,4,150,2,3298,3,0.0354201,12.28556,0.1631294,-1
19,F,0,1,39,1,3,156,4,2387,0,0.472023,6.489414,3.991597,-1
19,F,0,1,39,2,3,155,3,3676,0,0.3953131,6.25346,3.457627,-1
19,F,0,1,39,3,3,154,2,1954,1,0.4626381,6.486655,3.859655,-1
19,F,0,1,39,4,4,155,3,2953,0,0.6682603,12.1651,3.108224,-1
19,F,0,1,39,5,3,153,1,3809,0,0.07657935,6.10583,0.6872803,-1
19,F,0,1,39,6,4,156,4,2097,1,0.1528854,12.27373,0.6952065,-1
19,F,0,1,39,7,4,154,2,1198,0,0.579759,12.23562,2.637079,-1
19,F,0,1,39,8,4,153,1,1420,0,1.211465E-07,12.08308,0,-1
19,F,0,1,40,1,3,160,4,2298,0,0.1165382,6.478596,0.9922896,-1
19,F,0,1,40,2,3,159,3,3342,1,0.4223197,6.253807,3.715203,-1
19,F,0,1,40,3,4,158,2,1253,0,0.5175083,12.25539,2.351769,-1
19,F,0,1,40,4,4,157,1,1176,0,0.5919286,12.06327,2.742026,-1
19,F,0,1,40,5,4,160,4,2131,1,0.705204,12.29166,3.190341,-1
19,F,0,1,40,6,4,159,3,2176,0,0.5693054,12.11886,2.59955,-1
19,F,0,1,40,7,3,158,2,3931,2,0.5438666,6.479979,4.562955,-1
19,F,0,1,40,8,3,157,1,1865,0,0.2024193,6.073608,1.80168,-1
19,F,0,1,41,1,2,162,2,1698,0,0.5367815,12.24636,2.44104,-1
19,F,0,1,41,2,2,161,1,1476,0,0.674979,12.06318,3.121924,-1
19,F,0,1,41,3,1,164,4,4220,3,0.2590629,6.494949,2.159486,-1
19,F,0,1,41,4,1,162,2,1631,0,0.2551584,6.445065,2.140003,-1
19,F,0,1,41,5,1,163,3,1965,0,0.02036671,6.251979,0.1758294,-1
19,F,0,1,41,6,2,164,4,1520,0,0.667724,12.28886,3.021354,-1
19,F,0,1,41,7,1,161,1,1698,0,0.1782656,6.06137,1.586836,-1
19,F,0,1,41,8,2,163,3,1842,0,0.1812052,12.13093,0.8425589,-1
19,F,0,1,42,1,1,165,1,1442,0,1.073455E-07,6.061526,0,-1
19,F,0,1,42,2,1,168,4,2576,0,0.4635473,6.473452,3.936317,-1
19,F,0,1,42,3,2,166,2,1287,0,0.4616639,12.24619,2.102638,-1
19,F,0,1,42,4,1,167,3,3620,0,0.5296541,6.257359,4.63388,-1
19,F,0,1,42,5,2,165,1,1398,0,0.7064824,12.04948,3.292534,-1
19,F,0,1,42,6,1,166,2,1931,1,0.283704,6.444696,2.368851,-1
19,F,0,1,42,7,2,168,4,1987,0,0.1692914,12.28519,0.770502,-1
19,F,0,1,42,8,2,167,3,2109,0,0.4468436,12.12915,2.066396,-1
19,F,0,1,43,1,2,170,2,1209,0,0.464401,12.2488,2.109607,-1
19,F,0,1,43,2,2,171,3,2187,0,0.5302358,12.12696,2.467359,-1
19,F,0,1,43,3,1,170,2,2664,1,0.5121221,6.441068,4.288569,-1
19,F,0,1,43,4,2,172,4,1287,0,0.7430574,12.28324,3.359812,-1
19,F,0,1,43,5,1,169,1,1509,0,0.1553557,6.053411,1.386351,-1
19,F,0,1,43,6,1,171,3,2397,0,0.5053711,6.245513,4.422883,-1
19,F,0,1,43,7,1,172,4,3365,0,0.5017999,6.470287,4.206356,-1
19,F,0,1,43,8,2,169,1,1065,0,0.9836646,12.05566,4.561667,-1
19,F,0,1,44,1,2,174,2,1142,0,0.4212503,12.24755,1.915813,-1
19,F,0,1,44,2,2,173,1,1053,0,0.7585861,12.05167,3.522756,-1
19,F,0,1,44,3,1,176,4,2287,0,0.4799103,6.478919,4.072032,-1
19,F,0,1,44,4,1,175,3,3265,0,0.4628398,6.243662,4.046995,-1
19,F,0,1,44,5,1,173,1,1620,0,0.3872461,6.062768,3.425256,-1
19,F,0,1,44,6,2,175,3,3031,2,0.9128024,12.12481,4.222991,-1
19,F,0,1,44,7,1,174,2,2231,0,0.4959566,6.435557,4.124643,-1
19,F,0,1,44,8,2,176,4,1087,0,0.7850429,12.2804,3.549721,-1
19,F,0,1,45,1,1,178,2,2776,2,0.3436048,6.438168,2.885205,-1
19,F,0,1,45,2,1,177,1,2642,0,0.2426211,6.053223,2.18086,-1
19,F,0,1,45,3,2,180,4,1376,0,0.5439034,12.27908,2.462595,-1
19,F,0,1,45,4,2,179,3,1665,0,0.5619563,12.12295,2.617709,-1
19,F,0,1,45,5,2,177,1,1320,0,0.8013692,12.03974,3.771228,-1
19,F,0,1,45,6,1,180,4,3065,1,0.02709495,6.480244,0.2272819,-1
19,F,0,1,45,7,1,179,3,4076,0,0.1940038,6.253174,1.69789,-1
19,F,0,1,45,8,2,178,2,2065,0,0.09280889,12.2472,0.4238235,-1
19,F,0,1,46,1,2,184,4,1220,0,0.4635076,12.28183,2.098072,-1
19,F,0,1,46,2,2,182,2,3609,0,0.6137003,12.24657,2.793582,-1
19,F,0,1,46,3,2,181,1,1276,0,0.6979587,12.05737,3.234464,-1
19,F,0,1,46,4,1,183,3,2376,0,0.2406993,6.252266,2.105428,-1
19,F,0,1,46,5,1,182,2,2565,1,0.2326295,6.44266,1.947524,-1
19,F,0,1,46,6,2,183,3,1486,0,0.7637945,12.14454,3.5609,-1
19,F,0,1,46,7,1,181,1,1842,0,0.2749691,6.093318,2.422932,-1
19,F,0,1,46,8,1,184,4,2976,1,0.1285733,6.479046,1.078471,-1
19,F,0,1,47,1,1,185,1,1454,0,0.3345322,6.067899,2.983669,-1
19,F,0,1,47,2,2,187,3,2209,0,0.9358315,12.12737,4.315067,-1
19,F,0,1,47,3,2,186,2,1920,0,0.5287244,12.25139,2.405745,-1
19,F,0,1,47,4,1,187,3,2098,0,0.4983261,6.254314,4.349921,-1
19,F,0,1,47,5,1,188,4,2876,1,0.3564266,6.478909,2.990812,-1
19,F,0,1,47,6,1,186,2,1342,0,0.5042939,6.439322,4.216029,-1
19,F,0,1,47,7,2,185,1,1309,0,0.9151388,12.03922,4.310798,-1
19,F,0,1,47,8,2,188,4,998,0,0.2337836,12.27956,1.062384,-1
19,F,0,1,48,1,2,189,1,2698,2,0.3980686,12.04073,1.858464,-1
19,F,0,1,48,2,1,190,2,2176,1,0.4217906,6.434808,3.516748,-1
19,F,0,1,48,3,2,191,3,1898,0,1.431522E-07,12.11505,0,-1
19,F,0,1,48,4,2,192,4,1076,0,0.712769,12.27406,3.225797,-1
19,F,0,1,48,5,2,190,2,1376,0,0.5538257,12.23844,2.5222,-1
19,F,0,1,48,6,1,192,4,2631,0,0.1500208,6.469794,1.273493,-1
19,F,0,1,48,7,1,191,3,3142,0,0.07189886,6.241126,0.6299395,-1
19,F,0,1,48,8,1,189,1,2787,0,3.550646E-07,6.052726,0,-1
19,F,0,1,49,1,1,194,2,2142,1,0.5410236,6.429868,4.551694,-1
19,F,0,1,49,2,2,195,3,2020,0,0.154635,12.12066,0.7149112,-1
19,F,0,1,49,3,2,196,4,987,0,0.6868645,12.27798,3.110743,-1
19,F,0,1,49,4,2,194,2,2887,0,0.5368072,12.23244,2.446167,-1
19,F,0,1,49,5,1,195,3,2898,1,0.03347309,6.240132,0.2927522,-1
19,F,0,1,49,6,1,193,1,1553,0,0.494605,6.060546,4.378419,-1
19,F,0,1,49,7,1,196,4,1787,0,0.3685187,6.47071,3.129628,-1
19,F,0,1,49,8,2,193,1,1220,0,0.5323321,12.0456,2.47338,-1
19,F,0,1,50,1,2,198,2,1987,0,0.5629923,12.23872,2.564146,-1
19,F,0,1,50,2,1,199,3,3365,0,6.45016E-08,6.259873,0,-1
19,F,0,1,50,3,2,200,4,998,0,1.005332,12.28009,4.554835,-1
19,F,0,1,50,4,2,197,1,1098,0,0.5611326,12.0432,2.615315,-1
19,F,0,1,50,5,2,199,3,1776,1,0.6936569,12.13201,3.231982,-1
19,F,0,1,50,6,1,197,1,1465,0,2.540051E-07,6.176737,0,-1
19,F,0,1,50,7,1,200,4,1709,0,0.4396831,6.538302,3.694751,-1
19,F,0,1,50,8,1,198,2,2776,2,0.1282138,6.537049,1.065511,-1
19,F,0,1,51,1,1,203,3,2731,0,0.1025859,6.26603,0.8954742,-1
19,F,0,1,51,2,2,201,1,1508,0,0.3157749,12.13162,1.455891,-1
19,F,0,1,51,3,2,202,2,1687,1,0.6748384,12.36582,3.041631,-1
19,F,0,1,51,4,2,204,4,1165,0,1.055046,12.38908,4.739542,-1
19,F,0,1,51,5,2,203,3,1687,0,0.7639592,12.25084,3.467466,-1
19,F,0,1,51,6,1,202,2,2409,1,0.3511814,6.539627,2.897392,-1
19,F,0,1,51,7,1,204,4,2753,0,0.2929603,6.538938,2.460766,-1
19,F,0,1,51,8,1,201,1,1442,0,0.2735455,6.172873,2.382938,-1
19,F,0,1,52,1,2,207,3,3598,0,1.29936E-07,12.24001,0,-1
19,F,0,1,52,2,1,208,4,2109,0,0.4331589,6.542811,3.637604,-1
19,F,0,1,52,3,1,207,3,3454,0,0.3417443,6.324337,2.95287,-1
19,F,0,1,52,4,2,208,4,1098,0,0.873943,12.3938,3.923061,-1
19,F,0,1,52,5,1,206,2,2131,1,0.289273,6.528697,2.386385,-1
19,F,0,1,52,6,1,205,1,1798,0,0.4420502,6.177089,3.842112,-1
19,F,0,1,52,7,2,206,2,2542,0,0.6293828,12.35195,2.840004,-1
19,F,0,1,52,8,2,205,1,1298,0,0.4146942,12.16842,1.907623,-1
19,F,0,1,53,1,1,211,3,2365,1,0.1040584,6.321613,0.9007034,-1
19,F,0,1,53,2,1,210,2,2042,1,0.4524403,6.516329,3.756245,-1
19,F,0,1,53,3,1,209,1,2154,0,0.260437,6.145229,2.279674,-1
19,F,0,1,53,4,1,212,4,1564,0,0.2988435,6.535755,2.511702,-1
19,F,0,1,53,5,2,210,2,3620,0,0.4151421,12.32963,1.882632,-1
19,F,0,1,53,6,2,211,3,9999,4,-1,-1,-1,-1
19,F,0,1,53,7,2,212,4,3464,0,0.3381588,12.34646,1.523414,-1
19,F,0,1,53,8,2,209,1,1287,0,0.3066947,12.12971,1.421752,-1
19,F,0,1,54,1,1,215,3,2131,0,0.3618611,6.330003,3.130191,-1
19,F,0,1,54,2,2,214,2,1853,0,0.5220266,12.30616,2.358749,-1
19,F,0,1,54,3,1,213,1,1520,0,0.3386522,6.124249,2.966099,-1
19,F,0,1,54,4,1,216,4,1698,0,0.3244455,6.544312,2.72448,-1
19,F,0,1,54,5,2,213,1,4676,0,0.07856128,12.1301,0.3626169,-1
19,F,0,1,54,6,1,214,2,2864,2,0.339822,6.487187,2.814386,-1
19,F,0,1,54,7,2,216,4,1642,1,0.4644149,12.3491,2.111276,-1
19,F,0,1,54,8,2,215,3,2698,0,0.7237195,12.19967,3.353688,-1
19,F,0,1,55,1,1,220,4,4475,2,0.06974418,6.532244,0.5811456,-1
19,F,0,1,55,2,1,218,2,3342,2,0.316139,6.483371,2.635,-1
19,F,0,1,55,3,2,217,1,5031,4,0.7831546,12.10815,3.666716,-1
19,F,0,1,55,4,2,219,3,2153,0,0.9187794,12.19046,4.25326,-1
19,F,0,1,55,5,1,217,1,1398,0,0.1207482,6.12014,1.068811,-1
19,F,0,1,55,6,1,219,3,3609,1,0.1756152,6.298812,1.517493,-1
19,F,0,1,55,7,2,220,4,1042,0,0.8898142,12.35335,4.005311,-1
19,F,0,1,55,8,2,218,2,1909,1,0.3708302,12.30023,1.678764,-1
19,F,0,1,56,1,1,223,3,3098,0,0.1996436,6.301179,1.72839,-1
19,F,0,1,56,2,2,221,1,3365,3,0.8655748,12.10911,4.001887,-1
19,F,0,1,56,3,1,222,2,2498,1,0.351417,6.488869,2.928439,-1
19,F,0,1,56,4,1,221,1,1709,0,0.4267722,6.108358,3.746223,-1
19,F,0,1,56,5,2,224,4,1186,0,0.9139899,12.34593,4.10985,-1
19,F,0,1,56,6,2,222,2,2153,1,0.5930412,12.29886,2.680076,-1
19,F,0,1,56,7,2,223,3,1776,0,0.5157322,12.1934,2.386385,-1
19,F,0,1,56,8,1,224,4,3809,0,0.2462299,6.521964,2.056713,-1
19,F,0,1,57,1,3,225,1,8698,8,0.3844492,6.08492,3.440995,-1
19,F,0,1,57,2,4,226,2,1342,0,0.9635696,12.28012,4.378241,-1
19,F,0,1,57,3,4,227,3,1854,0,0.9002866,12.21754,4.164101,-1
19,F,0,1,57,4,3,226,2,2875,1,0.06143754,6.479379,0.5162413,-1
19,F,0,1,57,5,3,228,4,2976,0,0.4089876,6.519392,3.441451,-1
19,F,0,1,57,6,3,227,3,3253,0,0.3724075,6.288924,3.246608,-1
19,F,0,1,57,7,4,228,4,1531,0,0.9799038,12.37575,4.427707,-1
19,F,0,1,57,8,4,225,1,1398,0,0.9196298,12.10363,4.292541,-1
19,F,0,1,58,1,4,230,2,1709,1,0.5478238,12.28316,2.48065,-1
19,F,0,1,58,2,3,232,4,3786,2,0.04423626,6.524999,0.3695653,-1
19,F,0,1,58,3,3,230,2,2953,1,0.1357079,6.522285,1.136428,-1
19,F,0,1,58,4,4,231,3,1886,0,0.703944,12.19205,3.202652,-1
19,F,0,1,58,5,4,229,1,1531,0,0.5139155,12.11525,2.388435,-1
19,F,0,1,58,6,4,232,4,1297,0,0.1824865,12.33196,0.8311011,-1
19,F,0,1,58,7,3,229,1,2287,0,0.1838033,6.112139,1.627145,-1
19,F,0,1,58,8,3,231,3,2620,1,0.05995621,6.299299,0.5248867,-1
19,F,0,1,59,1,3,234,2,2565,2,0.350258,6.483175,2.92757,-1
19,F,0,1,59,2,4,233,1,1953,0,0.4960456,12.15886,2.315029,-1
19,F,0,1,59,3,4,236,4,1253,0,0.9691398,12.32044,4.358109,-1
19,F,0,1,59,4,4,234,2,1864,1,0.9203129,12.28105,4.15176,-1
19,F,0,1,59,5,4,235,3,1420,0,0.6973848,12.16385,3.192611,-1
19,F,0,1,59,6,3,236,4,2465,1,0.209911,6.512781,1.757805,-1
19,F,0,1,59,7,3,235,3,3742,0,9.832299E-08,6.28536,0,-1
19,F,0,1,59,8,3,233,1,3009,0,0.3629265,6.15159,3.224583,-1
19,F,0,1,60,1,3,240,4,2254,1,0.1712599,6.520033,1.45804,-1
19,F,0,1,60,2,4,237,1,1265,0,0.401587,12.10047,1.863511,-1
19,F,0,1,60,3,4,238,2,2954,1,0.5004639,12.29422,2.264513,-1
19,F,0,1,60,4,4,239,3,2009,0,0.0751811,12.174,0.3454843,-1
19,F,0,1,60,5,3,237,1,2265,1,6.957623E-08,6.107354,0,-1
19,F,0,1,60,6,4,240,4,1409,0,0.4744698,12.31713,2.140735,-1
19,F,0,1,60,7,3,239,3,2742,0,0.279157,6.284284,2.423336,-1
19,F,0,1,60,8,3,238,2,4142,1,0.3599437,6.519941,3.029765,-1
19,F,0,1,61,1,1,241,1,2397,1,0.1988192,6.106767,1.7558,-1
19,F,0,1,61,2,1,242,2,3320,2,0.2036749,6.487684,1.71646,-1
19,F,0,1,61,3,2,244,4,1165,0,0.2694763,12.33386,1.224772,-1
19,F,0,1,61,4,2,242,2,1931,1,0.6592227,12.29501,2.987537,-1
19,F,0,1,61,5,1,244,4,1865,0,0.2904394,6.532362,2.410622,-1
19,F,0,1,61,6,1,243,3,1976,0,0.4738092,6.310422,4.109945,-1
19,F,0,1,61,7,2,241,1,1642,0,0.5766481,12.12469,2.66396,-1
19,F,0,1,61,8,2,243,3,1342,0,0.2474228,12.20142,1.145688,-1
19,F,0,1,62,1,2,248,4,1520,1,0.1868164,12.35301,0.8439512,-1
19,F,0,1,62,2,2,247,3,1609,0,2.527624E-07,12.20016,0,-1
19,F,0,1,62,3,2,245,1,1931,1,0.6702113,12.11032,3.128814,-1
19,F,0,1,62,4,1,246,2,3253,3,0.1890525,6.487141,1.585356,-1
19,F,0,1,62,5,1,248,4,1498,0,0.3940304,6.516939,3.322662,-1
19,F,0,1,62,6,1,247,3,3487,1,0.2241409,6.311571,1.952542,-1
19,F,0,1,62,7,2,246,2,3098,1,0.1666806,12.29492,0.7582139,-1
19,F,0,1,62,8,1,245,1,2232,0,9.839656E-08,6.11529,0,-1
19,F,0,1,1,1,5,4,4,3419,0,0.2345882,6.56886,1.957048,-1
19,F,0,1,1,2,5,3,3,2631,0,5.638338,6.395994,61.82894,-1
19,F,0,1,1,3,6,2,2,1776,0,1.614798,12.36994,7.455853,-1
19,F,0,1,1,4,6,4,4,2931,0,7.829592,12.38422,38.81971,-1
19,F,0,1,1,5,7,3,3,2665,0,3.919518,6.373605,36.16498,-1
19,F,0,1,1,6,5,2,2,2976,0,2.893491,6.524591,24.74221,-1
19,F,0,1,1,7,7,1,1,4209,0,0.04782128,6.165245,0.4219727,-1
19,F,0,1,1,8,7,4,4,5864,0,3.282572,6.572568,28.55574,-1
19,F,0,1,1,9,8,3,3,5220,0,0.8255624,12.28677,3.804262,-1
19,F,0,1,1,10,8,1,1,5064,0,10.32557,12.20709,57.76485,-1
19,F,0,1,1,11,8,2,2,5765,0,3.403036,12.32958,15.66369,-1
19,F,0,1,1,12,5,1,1,2676,0,0.5782357,6.16187,5.014228,-1
19,F,0,1,1,13,6,3,3,6942,0,5.381578,12.26846,26.01788,-1
19,F,0,1,1,14,6,1,1,7076,0,4.649436,12.18828,22.42464,-1
19,F,0,1,1,15,8,4,4,5709,0,3.970224,12.45824,18.30137,-1
19,F,0,1,1,16,7,2,2,2209,0,4.023505,6.546664,37.92204,-1
19,F,0,1,2,1,6,2,2,2287,0,1.253857,12.3834,5.693471,-1
19,F,0,1,2,2,5,4,4,1987,0,0.9229077,6.573328,7.734389,-1
19,F,0,1,2,3,6,1,1,4176,0,2.348609,12.20511,10.93096,-1
19,F,0,1,2,4,8,2,2,5664,0,6.175164,12.36609,29.95786,-1
19,F,0,1,2,5,8,1,1,3620,0,9.098669,12.20305,48.21119,-1
19,F,0,1,2,6,7,3,3,3753,0,5.140306,6.394246,53.50372,-1
19,F,0,1,2,7,7,2,2,4387,0,6.123563,6.570439,68.74667,-1
19,F,0,1,2,8,7,1,1,1631,0,3.956208,6.210107,39.5729,-1
19,F,0,1,2,9,8,3,3,7031,0,6.369513,12.30699,30.73782,-1
19,F,0,1,2,10,6,4,4,4898,0,2.420541,12.44927,10.87567,-1
19,F,0,1,2,11,5,3,3,4953,0,0.7865964,6.40134,6.739969,-1
19,F,0,1,2,12,5,2,2,2398,0,0.9957592,6.588635,8.202696,-1
19,F,0,1,2,13,5,1,1,2942,0,0.2540907,6.213968,2.202649,-1
19,F,0,1,2,14,8,4,4,3398,0,1.890897,12.5008,8.618943,-1
19,F,0,1,2,15,6,3,3,4209,0,6.62374,12.3383,32.46903,-1
19,F,0,1,2,16,7,4,4,5831,0,3.896937,6.642133,34.16932,-1
