Age, Gender, Awareness Type, Session, Block, Trial, Set, Pattern, Quadrant, Response Time, Num Mistakes, Distance From Target, Camera Distance From Target, Angle Error (Degrees), FC Response
17,M,0,1,1,1,2,2,2,4286,0,1.156169E-07,12.34117,0,-1
17,M,0,1,1,2,1,1,1,4597,0,0.08728398,6.12764,0.7813459,-1
17,M,0,1,1,3,2,3,3,1597,0,0.08515084,12.20173,0.3921704,-1
17,M,0,1,1,4,2,1,1,2420,0,0.2921455,12.18922,1.345085,-1
17,M,0,1,1,5,2,4,4,1475,0,0.4082956,12.40678,1.864351,-1
17,M,0,1,1,6,1,3,3,2131,0,7.103245E-08,6.252407,0,-1
17,M,0,1,1,7,1,4,4,4064,0,0.3703274,6.373787,3.185859,-1
17,M,0,1,1,8,1,2,2,1420,0,9.850336E-08,6.471769,0.01978234,-1
17,M,0,1,2,1,1,7,3,3064,0,0.0401461,6.254021,0.3544303,-1
17,M,0,1,2,2,1,8,4,2453,0,0.08710897,6.379589,0.7423044,-1
17,M,0,1,2,3,1,5,1,2164,0,6.532236E-08,6.115942,0.01978234,-1
17,M,0,1,2,4,2,6,2,1498,0,0.3288628,12.33719,1.504802,-1
17,M,0,1,2,5,2,7,3,1586,0,0.149654,12.18751,0.6943616,-1
17,M,0,1,2,6,2,5,1,6664,0,0.1529697,12.20627,0.7030433,-1
17,M,0,1,2,7,1,6,2,2253,0,0.1413811,6.482559,1.200078,-1
17,M,0,1,2,8,2,8,4,1597,0,0.2611616,12.39811,1.176031,-1
17,M,0,1,3,1,2,11,3,1586,0,2.739899E-07,12.18836,0,-1
17,M,0,1,3,2,1,10,2,1953,0,0.1981651,6.466056,1.660243,-1
17,M,0,1,3,3,1,11,3,2509,0,0.3734628,6.264002,3.299009,-1
17,M,0,1,3,4,1,12,4,2764,0,0.1577417,6.385236,1.338814,-1
17,M,0,1,3,5,2,9,1,1986,0,0.3312137,12.19504,1.534549,-1
17,M,0,1,3,6,2,10,2,2131,0,0.1695703,12.33376,0.7750598,-1
17,M,0,1,3,7,2,12,4,1842,0,0.02936697,12.39372,0.132704,-1
17,M,0,1,3,8,1,9,1,8342,0,0.1472719,6.11362,1.322194,-1
17,M,0,1,4,1,2,15,3,1531,0,0.3967093,12.18563,1.832269,-1
17,M,0,1,4,2,1,16,4,3853,0,0.1796193,6.377463,1.554315,-1
17,M,0,1,4,3,1,15,3,4331,0,1.315383E-08,6.246719,0,-1
17,M,0,1,4,4,2,14,2,3453,0,0.6773104,12.35116,3.106523,-1
17,M,0,1,4,5,1,13,1,3798,0,0.4955581,6.130213,4.417477,-1
17,M,0,1,4,6,1,14,2,5231,0,1.758485E-07,6.487252,0,-1
17,M,0,1,4,7,2,16,4,1476,0,0.1506429,12.41102,0.6815624,-1
17,M,0,1,4,8,2,13,1,2420,0,0.2643684,12.19914,1.215148,-1
17,M,0,1,5,1,1,20,4,2909,0,0.04170266,6.387061,0.3577275,-1
17,M,0,1,5,2,1,18,2,2231,0,4.890409E-08,6.487719,0,-1
17,M,0,1,5,3,1,17,1,2742,0,0.4268483,6.136883,3.830935,-1
17,M,0,1,5,4,2,19,3,1242,0,0.5978077,12.21523,2.756692,-1
17,M,0,1,5,5,2,18,2,2242,0,0.3031414,12.35073,1.387621,-1
17,M,0,1,5,6,2,20,4,2164,0,0.8024642,12.42229,3.644058,-1
17,M,0,1,5,7,2,17,1,2520,0,0.2611074,12.19766,1.200404,-1
17,M,0,1,5,8,1,19,3,4376,0,2.441934E-07,6.255425,0,-1
17,M,0,1,6,1,1,24,4,3131,0,1.801107E-08,6.393301,0,-1
17,M,0,1,6,2,2,22,2,2231,0,0.5720009,12.3478,2.623982,-1
17,M,0,1,6,3,1,23,3,4164,0,0.2842781,6.269503,2.505772,-1
17,M,0,1,6,4,2,24,4,1753,0,0.7576218,12.42495,3.439459,-1
17,M,0,1,6,5,1,21,1,3375,1,0.2904434,6.130057,2.590952,-1
17,M,0,1,6,6,2,23,3,1620,0,0.1002475,12.19342,0.4614008,-1
17,M,0,1,6,7,2,21,1,2920,0,0.477226,12.2069,2.192317,-1
17,M,0,1,6,8,1,22,2,2764,0,0.5228161,6.503482,4.450563,-1
17,M,0,1,7,1,1,25,1,2609,0,0.05490506,6.132817,0.4913847,-1
17,M,0,1,7,2,2,28,4,1864,0,0.9341593,12.42496,4.256988,-1
17,M,0,1,7,3,2,26,2,1586,0,0.6549503,12.35361,3.003483,-1
17,M,0,1,7,4,2,25,1,3597,0,0.9077768,12.20219,4.228229,-1
17,M,0,1,7,5,1,27,3,3842,0,1.253937E-07,6.270894,0,-1
17,M,0,1,7,6,1,28,4,4631,0,0.3123497,6.401701,2.715844,-1
17,M,0,1,7,7,2,27,3,4964,0,0.3766453,12.21275,1.744058,-1
17,M,0,1,7,8,1,26,2,3108,0,5.135967E-08,6.468472,0,-1
17,M,0,1,8,1,1,31,3,3075,0,0.01827428,6.203563,0.1619255,-1
17,M,0,1,8,2,1,29,1,2853,0,0.1117303,6.140112,0.9977959,-1
17,M,0,1,8,3,2,32,4,3564,0,0.4860872,12.43443,2.212224,-1
17,M,0,1,8,4,1,30,2,8786,0,0.007153866,6.501401,0.05934703,-1
17,M,0,1,8,5,2,29,1,3353,0,0.6386447,12.23527,2.930912,-1
17,M,0,1,8,6,2,30,2,1642,0,0.4742349,12.3809,2.169613,-1
17,M,0,1,8,7,1,32,4,3231,0,0.132,6.431491,1.129692,-1
17,M,0,1,8,8,2,31,3,1142,0,0.8990272,12.24707,4.164712,-1
17,M,0,1,9,1,1,36,4,2620,0,0.03835399,6.41706,0.3268584,-1
17,M,0,1,9,2,2,33,1,2386,1,0.9253179,12.23647,4.228923,-1
17,M,0,1,9,3,2,34,2,1576,0,0.6915606,12.36866,3.1802,-1
17,M,0,1,9,4,1,35,3,2486,0,0.3410255,6.289371,3.001657,-1
17,M,0,1,9,5,1,34,2,2220,0,1.46309E-07,6.50296,0.01978234,-1
17,M,0,1,9,6,1,33,1,2320,0,3.934696E-08,6.158393,0,-1
17,M,0,1,9,7,2,35,3,1842,0,0.9599233,12.2513,4.42753,-1
17,M,0,1,9,8,2,36,4,7764,5,0.887892,12.45215,4.055164,-1
17,M,0,1,10,1,2,37,1,9999,3,-1,-1,-1,-1
17,M,0,1,10,2,1,40,4,2820,0,3.568852E-07,6.416665,0,-1
17,M,0,1,10,3,1,39,3,2320,0,0.4384923,6.291371,3.865638,-1
17,M,0,1,10,4,2,38,2,1364,0,0.9599996,12.38701,4.397925,-1
17,M,0,1,10,5,1,37,1,1886,0,0.40313,6.159368,3.57878,-1
17,M,0,1,10,6,2,40,4,8297,1,0.9701989,12.44255,4.400106,-1
17,M,0,1,10,7,2,39,3,1375,0,0.5209106,12.22631,2.398983,-1
17,M,0,1,10,8,1,38,2,1753,0,0.08154377,6.509248,0.6912548,-1
17,M,0,1,11,1,1,41,1,1686,0,0.02679866,6.139586,0.2398483,-1
17,M,0,1,11,2,2,43,3,1820,0,0.2301741,12.21857,1.055732,-1
17,M,0,1,11,3,2,41,1,2153,0,0.8265691,12.2146,3.845576,-1
17,M,0,1,11,4,2,44,4,1208,0,0.7131078,12.43468,3.238154,-1
17,M,0,1,11,5,1,43,3,3553,1,0.2340002,6.284451,2.059851,-1
17,M,0,1,11,6,2,42,2,8908,5,0.8388917,12.35922,3.846391,-1
17,M,0,1,11,7,1,44,4,4098,0,0.3627783,6.422017,3.140992,-1
17,M,0,1,11,8,1,42,2,2619,0,0.4425755,6.515855,3.766188,-1
17,M,0,1,12,1,2,48,4,2009,0,0.9401839,12.4344,4.266501,-1
17,M,0,1,12,2,1,46,2,3131,0,0.3034626,6.508658,2.588307,-1
17,M,0,1,12,3,1,45,1,3275,0,0.4747156,6.149159,4.241778,-1
17,M,0,1,12,4,1,47,3,2942,0,0.5287685,6.27542,4.683789,-1
17,M,0,1,12,5,1,48,4,4964,0,0.3874769,6.405268,3.277695,-1
17,M,0,1,12,6,2,45,1,3765,0,0.1130816,12.22428,0.5196414,-1
17,M,0,1,12,7,2,47,3,1531,0,0.2457741,12.208,1.132633,-1
17,M,0,1,12,8,2,46,2,1742,0,0.4228734,12.36619,1.929453,-1
17,M,0,1,13,1,1,52,4,3387,0,0.2544075,6.392732,2.171777,-1
17,M,0,1,13,2,1,51,3,3075,0,3.192775E-08,6.254508,0,-1
17,M,0,1,13,3,1,50,2,1497,0,0.2596098,6.493767,2.162203,-1
17,M,0,1,13,4,1,49,1,1564,0,0.01639584,6.146492,0.1467098,-1
17,M,0,1,13,5,2,51,3,1120,0,0.1482911,12.20256,0.6818494,-1
17,M,0,1,13,6,2,52,4,5775,0,3.851584E-08,12.42802,0,-1
17,M,0,1,13,7,2,50,2,1320,0,0.5318573,12.36042,2.440399,-1
17,M,0,1,13,8,2,49,1,2209,0,0.4021315,12.20041,1.855935,-1
17,M,0,1,14,1,1,56,4,2553,0,0.04470356,6.381596,0.3815487,-1
17,M,0,1,14,2,2,54,2,1531,0,0.1697761,12.36119,0.7702479,-1
17,M,0,1,14,3,2,53,1,2664,0,0.4728028,12.20502,2.196063,-1
17,M,0,1,14,4,1,55,3,2009,0,0.1251889,6.256614,1.103581,-1
17,M,0,1,14,5,1,53,1,1453,0,0.09144439,6.134729,0.8180492,-1
17,M,0,1,14,6,2,56,4,1242,0,0.6594533,12.41007,2.967881,-1
17,M,0,1,14,7,1,54,2,3086,1,0.5044077,6.477696,4.220347,-1
17,M,0,1,14,8,2,55,3,1275,0,9.183961E-08,12.20033,0,-1
17,M,0,1,15,1,1,57,1,4909,0,0.001311579,6.13507,0,-1
17,M,0,1,15,2,1,59,3,2731,0,0.3586751,6.264364,3.16873,-1
17,M,0,1,15,3,1,60,4,1742,0,1.384872E-07,6.388721,0,-1
17,M,0,1,15,4,2,57,1,2286,0,0.3729546,12.21457,1.730766,-1
17,M,0,1,15,5,2,59,3,853,0,0.4420826,12.21999,2.051091,-1
17,M,0,1,15,6,2,58,2,2186,0,0.4263898,12.38331,1.953344,-1
17,M,0,1,15,7,2,60,4,1265,0,0.01175046,12.42815,0.05595291,-1
17,M,0,1,15,8,1,58,2,3420,0,0.1315115,6.503507,1.106591,-1
17,M,0,1,16,1,1,63,3,1898,0,0.2059865,6.268146,1.814344,-1
17,M,0,1,16,2,2,64,4,1509,0,0.7805887,12.42557,3.507773,-1
17,M,0,1,16,3,1,61,1,1542,0,1.327972E-07,6.148818,0,-1
17,M,0,1,16,4,1,62,2,1775,0,0.1250408,6.485345,1.048479,-1
17,M,0,1,16,5,2,61,1,4898,1,0.8875711,12.21305,4.042928,-1
17,M,0,1,16,6,1,64,4,2475,0,4.126338E-08,6.40337,0,-1
17,M,0,1,16,7,2,62,2,975,0,0.3437604,12.38531,1.570598,-1
17,M,0,1,16,8,2,63,3,1764,1,0.9212939,12.24435,4.250082,-1
17,M,0,1,17,1,3,68,4,2764,0,0.2938364,6.443356,2.491515,-1
17,M,0,1,17,2,4,67,3,1709,0,1.002542,12.25515,4.642031,-1
17,M,0,1,17,3,4,66,2,3830,0,0.1698902,12.43499,0.7682129,-1
17,M,0,1,17,4,3,65,1,2175,0,0.03602809,6.153142,0.3208161,-1
17,M,0,1,17,5,3,66,2,1275,0,0.1723459,6.564375,1.439127,-1
17,M,0,1,17,6,4,68,4,1986,1,0.1557677,12.41846,0.7060983,-1
17,M,0,1,17,7,3,67,3,2853,0,0.166107,6.279618,1.458979,-1
17,M,0,1,17,8,4,65,1,1398,0,0.2988666,12.28016,1.366303,-1
17,M,0,1,18,1,4,70,2,5341,0,1.018271,12.40211,4.668289,-1
17,M,0,1,18,2,3,71,3,3275,0,0.4368988,6.288883,3.84359,-1
17,M,0,1,18,3,4,72,4,2142,0,0.3419558,12.45966,1.550407,-1
17,M,0,1,18,4,4,69,1,1876,0,0.2650795,12.2584,1.223813,-1
17,M,0,1,18,5,3,70,2,4431,0,0.1737436,6.570696,1.465002,-1
17,M,0,1,18,6,3,72,4,3664,0,0.2005463,6.467626,1.702609,-1
17,M,0,1,18,7,4,71,3,1442,0,0.6650422,12.24724,3.079433,-1
17,M,0,1,18,8,3,69,1,1875,0,0.1305096,6.188389,1.164661,-1
17,M,0,1,19,1,3,74,2,1609,0,0.3919185,6.567263,3.317768,-1
17,M,0,1,19,2,4,76,4,5953,0,0.7435864,12.42079,3.410304,-1
17,M,0,1,19,3,4,75,3,2719,1,0.8363208,12.25365,3.824335,-1
17,M,0,1,19,4,3,76,4,5953,1,1.323201E-07,6.501101,0.01978234,-1
17,M,0,1,19,5,4,73,1,7153,0,0.01732939,12.24685,0.07912937,-1
17,M,0,1,19,6,4,74,2,2064,0,0.1989894,12.40967,0.9041728,-1
17,M,0,1,19,7,3,73,1,9999,0,-1,-1,-1,-1
17,M,0,1,19,8,3,75,3,1653,0,0.1350337,6.242042,1.18795,-1
17,M,0,1,20,1,4,78,2,4365,0,0.3949032,12.38676,1.805586,-1
17,M,0,1,20,2,3,79,3,4797,1,0.2686361,6.232645,2.391465,-1
17,M,0,1,20,3,3,77,1,4797,0,4.022218E-08,6.147002,0,-1
17,M,0,1,20,4,3,80,4,1953,0,0.2265926,6.376828,1.945212,-1
17,M,0,1,20,5,4,77,1,3575,0,0.1604072,12.226,0.7391344,-1
17,M,0,1,20,6,4,80,4,1564,0,0.2443933,12.38351,1.098783,-1
17,M,0,1,20,7,4,79,3,1531,0,0.3669707,12.16131,1.690613,-1
17,M,0,1,20,8,3,78,2,2064,0,1.836491E-08,6.519454,0,-1
17,M,0,1,20,1,1,77,1,2186,0,0.2111965,6.134183,1.904645,-1
17,M,0,1,20,2,1,78,2,2887,1,1.251048E-07,6.484706,0,-1
17,M,0,1,20,3,2,79,3,1064,0,0.657362,12.21192,3.033317,-1
17,M,0,1,20,4,2,80,4,1287,0,0.6973134,12.4101,3.141241,-1
17,M,0,1,20,5,2,77,1,898,0,0.08509415,12.18079,0.3916712,-1
17,M,0,1,20,6,2,78,2,764,0,0.3697881,12.32594,1.678997,-1
17,M,0,1,20,7,1,80,4,3386,0,0.06301819,6.407854,0.5366834,-1
17,M,0,1,20,8,1,79,3,3830,0,0.4574499,6.299321,4.020682,-1
17,M,0,1,21,1,1,81,1,1309,0,0.4184134,6.124147,3.823311,-1
17,M,0,1,21,2,1,83,3,1786,0,0.2559388,6.276359,2.232392,-1
17,M,0,1,21,3,1,82,2,1075,0,0.2706245,6.488661,2.26287,-1
17,M,0,1,21,4,2,81,1,831,0,0.09208013,12.21179,0.4228991,-1
17,M,0,1,21,5,1,84,4,2664,0,0.4402824,6.418119,3.776209,-1
17,M,0,1,21,6,2,83,3,1097,0,0.7350246,12.24224,3.397074,-1
17,M,0,1,21,7,2,84,4,1231,0,0.6912365,12.44943,3.085847,-1
17,M,0,1,21,8,2,82,2,920,0,0.5411806,12.36462,2.459095,-1
17,M,0,1,22,1,1,85,1,2475,1,0.4883595,6.162085,4.331195,-1
17,M,0,1,22,2,2,87,3,1020,0,0.2130986,12.25113,0.9859589,-1
17,M,0,1,22,3,2,88,4,1676,0,0.009962743,12.43799,0.04423466,-1
17,M,0,1,22,4,1,86,2,1142,0,1.608884E-07,6.491426,0,-1
17,M,0,1,22,5,2,85,1,1064,0,0.4885275,12.213,2.249162,-1
17,M,0,1,22,6,1,88,4,2898,0,1.113296E-07,6.415368,0.01978234,-1
17,M,0,1,22,7,1,87,3,2797,1,0.2605754,6.300153,2.288414,-1
17,M,0,1,22,8,2,86,2,9999,0,-1,-1,-1,-1
17,M,0,1,23,1,1,91,3,3286,0,0.1743041,6.3088,1.524826,-1
17,M,0,1,23,2,1,90,2,2120,0,0.259814,6.494633,2.167718,-1
17,M,0,1,23,3,2,92,4,5853,0,0.883854,12.44431,4.007119,-1
17,M,0,1,23,4,2,89,1,3386,0,0.965233,12.21755,4.446953,-1
17,M,0,1,23,5,1,92,4,2798,0,0.1363473,6.423379,1.157583,-1
17,M,0,1,23,6,2,91,3,1253,0,0.2307242,12.22642,1.057029,-1
17,M,0,1,23,7,2,90,2,1775,1,0.4327152,12.37888,1.975858,-1
17,M,0,1,23,8,1,89,1,2009,0,0.2241221,6.166632,1.989972,-1
17,M,0,1,24,1,1,95,3,1809,0,0.123284,6.295216,1.082817,-1
17,M,0,1,24,2,2,93,1,1609,0,0.2105315,12.23252,0.9655032,-1
17,M,0,1,24,3,1,96,4,3287,0,0.1622777,6.446826,1.387903,-1
17,M,0,1,24,4,1,93,1,3275,0,0.2131276,6.154021,1.896304,-1
17,M,0,1,24,5,2,94,2,9999,0,-1,-1,-1,-1
17,M,0,1,24,6,2,96,4,1464,0,0.0005980852,12.45439,0,-1
17,M,0,1,24,7,2,95,3,1054,0,0.6139416,12.24705,2.80791,-1
17,M,0,1,24,8,1,94,2,1098,0,0.02860056,6.515077,0.2406627,-1
17,M,0,1,25,1,1,97,1,2197,0,0.06784119,6.162712,0.605226,-1
17,M,0,1,25,2,2,100,4,1008,0,2.064341E-07,12.45511,0,-1
17,M,0,1,25,3,1,99,3,3031,1,0.4231163,6.315844,3.70824,-1
17,M,0,1,25,4,2,97,1,3520,1,2.575409E-08,12.23164,0,-1
17,M,0,1,25,5,2,99,3,1142,0,0.2286439,12.25387,1.049971,-1
17,M,0,1,25,6,1,98,2,1175,0,0.08962484,6.507668,0.7506924,-1
17,M,0,1,25,7,1,100,4,3397,0,9.703474E-08,6.43314,0,-1
17,M,0,1,25,8,2,98,2,809,0,0.01402543,12.38076,0.05934703,-1
17,M,0,1,26,1,1,101,1,2853,2,0.3523976,6.178607,3.122489,-1
17,M,0,1,26,2,1,102,2,1187,0,1.388564E-07,6.527456,0,-1
17,M,0,1,26,3,2,103,3,1775,1,0.1312914,12.26359,0.6026341,-1
17,M,0,1,26,4,1,104,4,2808,0,0.1559126,6.430769,1.321898,-1
17,M,0,1,26,5,2,101,1,1897,0,0.7063417,12.23711,3.278292,-1
17,M,0,1,26,6,2,102,2,942,0,0.5534164,12.39116,2.530103,-1
17,M,0,1,26,7,1,103,3,2431,0,0.3178204,6.311329,2.786426,-1
17,M,0,1,26,8,2,104,4,2420,0,0.4236768,12.46489,1.920608,-1
17,M,0,1,27,1,1,106,2,1820,0,0.1439159,6.526015,1.206259,-1
17,M,0,1,27,2,1,108,4,1675,0,0.004513462,6.435462,0.03956468,-1
17,M,0,1,27,3,2,107,3,986,0,0.7714743,12.26387,3.54547,-1
17,M,0,1,27,4,1,105,1,2153,0,0.3923701,6.172944,3.479247,-1
17,M,0,1,27,5,2,106,2,1397,0,4.060022E-08,12.39619,0,-1
17,M,0,1,27,6,1,107,3,1853,0,0.1958492,6.312263,1.716232,-1
17,M,0,1,27,7,2,105,1,1531,0,0.1928095,12.24618,0.8849231,-1
17,M,0,1,27,8,2,108,4,931,0,0.6968073,12.46536,3.148711,-1
17,M,0,1,28,1,1,110,2,1820,0,0.1828122,6.524116,1.523028,-1
17,M,0,1,28,2,2,109,1,1664,0,0.09191633,12.23786,0.4224361,-1
17,M,0,1,28,3,2,111,3,1097,0,0.3394781,12.27181,1.549524,-1
17,M,0,1,28,4,1,112,4,3142,0,1.685216E-07,6.449746,0,-1
17,M,0,1,28,5,1,111,3,3220,0,0.2906846,6.312914,2.545836,-1
17,M,0,1,28,6,2,110,2,1042,0,0.3698363,12.40023,1.689223,-1
17,M,0,1,28,7,2,112,4,1053,0,0.2723563,12.4672,1.231623,-1
17,M,0,1,28,8,1,109,1,2075,1,0.1759926,6.191001,1.558214,-1
17,M,0,1,29,1,1,116,4,4487,1,0.3412212,6.340733,2.931246,-1
17,M,0,1,29,2,2,113,1,2865,1,0.2902357,12.12853,1.346829,-1
17,M,0,1,29,3,1,114,2,1575,0,0.3120847,6.419879,2.624803,-1
17,M,0,1,29,4,2,115,3,1853,1,0.7074395,12.15344,3.305649,-1
17,M,0,1,29,5,2,116,4,2042,1,0.8972799,12.34097,4.059026,-1
17,M,0,1,29,6,1,113,1,2153,0,0.3937533,6.140521,3.592105,-1
17,M,0,1,29,7,2,114,2,2387,0,0.8007128,12.35198,3.603696,-1
17,M,0,1,29,8,1,115,3,1531,0,6.104012E-08,6.23386,0,-1
17,M,0,1,30,1,2,118,2,4097,0,0.671595,12.34784,3.03957,-1
17,M,0,1,30,2,1,120,4,3686,0,0.3706945,6.360178,3.16873,-1
17,M,0,1,30,3,2,117,1,1031,0,0.631309,12.21071,2.931446,-1
17,M,0,1,30,4,1,118,2,2175,2,0.5083591,6.481744,4.252293,-1
17,M,0,1,30,5,2,119,3,1341,1,1.034994,12.18124,4.807827,-1
17,M,0,1,30,6,1,117,1,1920,0,0.2533325,6.114549,2.309189,-1
17,M,0,1,30,7,1,119,3,1909,0,0.3590372,6.250074,3.193285,-1
17,M,0,1,30,8,2,120,4,1442,0,0.7912003,12.41049,3.561944,-1
17,M,0,1,31,1,2,122,2,1397,0,0.1765886,12.35869,0.7994187,-1
17,M,0,1,31,2,1,123,3,2175,0,6.253399E-08,6.259264,0,-1
17,M,0,1,31,3,1,122,2,1653,1,0.5062384,6.482767,4.233829,-1
17,M,0,1,31,4,1,124,4,2709,0,0.08888875,6.380921,0.7600183,-1
17,M,0,1,31,5,1,121,1,2186,0,0.1821707,6.127495,1.653392,-1
17,M,0,1,31,6,2,123,3,1086,0,0.01482019,12.19812,0.06255726,-1
17,M,0,1,31,7,2,124,4,1020,0,0.257039,12.40821,1.157583,-1
17,M,0,1,31,8,2,121,1,1275,0,0.6912683,12.21265,3.200022,-1
17,M,0,1,32,1,1,127,3,1931,0,0.001848033,6.259953,0,-1
17,M,0,1,32,2,1,128,4,1520,0,0.2568951,6.383502,2.19062,-1
17,M,0,1,32,3,1,125,1,2009,0,0.2535174,6.154017,2.283534,-1
17,M,0,1,32,4,2,126,2,1420,0,0.5738976,12.35948,2.635594,-1
17,M,0,1,32,5,2,128,4,3520,0,0.3033164,12.4186,1.366303,-1
17,M,0,1,32,6,1,126,2,2109,1,0.1864304,6.491322,1.559218,-1
17,M,0,1,32,7,2,127,3,1154,0,0.3001566,12.21633,1.38889,-1
17,M,0,1,32,8,2,125,1,1020,0,0.24675,12.22146,1.132287,-1
17,M,0,1,33,1,1,130,2,931,0,9.072412E-08,6.49997,0,-1
17,M,0,1,33,2,1,132,4,1542,0,0.2743526,6.394771,2.334478,-1
17,M,0,1,33,3,2,129,1,3409,0,1.843634E-07,12.21497,0.01978234,-1
17,M,0,1,33,4,2,130,2,898,0,0.08290842,12.35983,0.3758652,-1
17,M,0,1,33,5,2,131,3,909,0,0.5966286,12.23655,2.748514,-1
17,M,0,1,33,6,2,132,4,1376,0,0.6128182,12.43822,2.778758,-1
17,M,0,1,33,7,1,131,3,1998,0,0.1985009,6.28,1.741587,-1
17,M,0,1,33,8,1,129,1,3131,0,0.1697572,6.150559,1.511938,-1
17,M,0,1,34,1,1,135,3,1798,0,0.1607303,6.276517,1.412639,-1
17,M,0,1,34,2,1,136,4,4575,0,0.02341153,6.398418,0.2017412,-1
17,M,0,1,34,3,2,134,2,909,0,0.6170833,12.3645,2.776856,-1
17,M,0,1,34,4,2,135,3,931,0,0.7842883,12.22852,3.601251,-1
17,M,0,1,34,5,1,133,1,2353,1,0.45815,6.166264,4.060328,-1
17,M,0,1,34,6,1,134,2,1387,0,0.3889759,6.498496,3.227011,-1
17,M,0,1,34,7,2,133,1,2709,0,0.5125498,12.23184,2.338917,-1
17,M,0,1,34,8,2,136,4,1420,0,0.4972996,12.43121,2.235809,-1
17,M,0,1,35,1,1,137,1,4031,0,1.927933E-07,6.159832,0,-1
17,M,0,1,35,2,1,138,2,1920,0,0.4046794,6.498572,3.374116,-1
17,M,0,1,35,3,1,139,3,1587,0,1.28087E-07,6.27452,0,-1
17,M,0,1,35,4,2,140,4,1764,0,0.03731117,12.43683,0.1690205,-1
17,M,0,1,35,5,2,137,1,3219,0,1.045868,12.23734,4.788475,-1
17,M,0,1,35,6,2,138,2,1042,0,0.6505373,12.37115,2.92456,-1
17,M,0,1,35,7,1,140,4,3709,0,0.1720797,6.400932,1.475915,-1
17,M,0,1,35,8,2,139,3,909,0,0.1921411,12.23972,0.8798226,-1
17,M,0,1,37,1,4,148,4,1642,1,0.5287262,12.40994,2.402814,-1
17,M,0,1,37,2,3,147,3,3186,0,0.2233627,6.219696,1.962041,-1
17,M,0,1,37,3,4,146,2,8353,0,0.185659,12.39633,0.840466,-1
17,M,0,1,37,4,3,145,1,2997,0,0.3294432,6.149343,2.926634,-1
17,M,0,1,37,5,3,146,2,2197,1,3.263253E-07,6.542977,0,-1
17,M,0,1,37,6,4,145,1,3753,0,0.3148411,12.27386,1.444285,-1
17,M,0,1,37,7,3,148,4,2009,0,0.04758715,6.446643,0.4044518,-1
17,M,0,1,37,8,4,147,3,6153,0,0.08909454,12.25277,0.409739,-1
17,M,0,1,38,1,4,150,2,1864,0,0.475333,12.41111,2.169523,-1
17,M,0,1,38,2,4,152,4,1442,0,1.090119E-07,12.46895,0,-1
17,M,0,1,38,3,3,149,1,1631,0,0.3142073,6.181464,2.830338,-1
17,M,0,1,38,4,4,151,3,1209,0,7.492147E-08,12.21719,0,-1
17,M,0,1,38,5,4,149,1,2909,0,0.393451,12.2639,1.796023,-1
17,M,0,1,38,6,3,151,3,2619,0,0.1746796,6.311273,1.530846,-1
17,M,0,1,38,7,3,152,4,2364,0,0.3592964,6.414392,3.046454,-1
17,M,0,1,38,8,3,150,2,1509,0,0.1241013,6.552622,1.043802,-1
17,M,0,1,39,1,4,156,4,1542,0,0.5450441,12.46251,2.47053,-1
17,M,0,1,39,2,4,154,2,9999,0,-1,-1,-1,-1
17,M,0,1,39,3,4,155,3,1087,0,0.8654904,12.2141,4.010539,-1
17,M,0,1,39,4,3,154,2,2820,0,0.3007896,6.552174,2.486482,-1
17,M,0,1,39,5,3,153,1,2476,0,0.4312676,6.223645,3.808378,-1
17,M,0,1,39,6,3,156,4,1275,0,0.2158902,6.419132,1.835257,-1
17,M,0,1,39,7,4,153,1,1042,0,2.10804E-08,12.25697,0,-1
17,M,0,1,39,8,3,155,3,1497,0,0.3869317,6.299372,3.398918,-1
17,M,0,1,40,1,3,160,4,2076,1,7.53196E-08,6.433231,0,-1
17,M,0,1,40,2,3,157,1,2798,0,0.4603983,6.184515,4.167063,-1
17,M,0,1,40,3,3,159,3,1942,0,0.2549384,6.238232,2.244197,-1
17,M,0,1,40,4,4,158,2,2797,0,0.833746,12.41811,3.74298,-1
17,M,0,1,40,5,4,160,4,1142,0,1.999485E-07,12.43228,0,-1
17,M,0,1,40,6,4,157,1,2553,1,1.310841E-07,12.297,0.01978234,-1
17,M,0,1,40,7,3,158,2,3775,1,0.05758103,6.559504,0.4829499,-1
17,M,0,1,40,8,4,159,3,1376,0,0.9045031,12.21015,4.214496,-1
17,M,0,1,41,1,2,161,1,3064,0,0.5088298,12.09826,2.362895,-1
17,M,0,1,41,2,1,164,4,3242,0,0.4050834,6.437357,3.465206,-1
17,M,0,1,41,3,2,163,3,986,0,0.9197801,12.30248,4.241224,-1
17,M,0,1,41,4,1,162,2,1064,0,0.3467262,6.568779,2.874942,-1
17,M,0,1,41,5,1,161,1,3709,0,0.07786395,6.22002,0.6909717,-1
17,M,0,1,41,6,2,164,4,3264,0,0.7494082,12.4878,3.35217,-1
17,M,0,1,41,7,2,162,2,2042,1,0.3853966,12.43575,1.72839,-1
17,M,0,1,41,8,1,163,3,1908,0,0.07410725,6.301119,0.6501176,-1
17,M,0,1,42,1,1,166,2,920,0,0.07750002,6.554775,0.649214,-1
17,M,0,1,42,2,1,168,4,2686,0,0.4769417,6.417861,4.041959,-1
17,M,0,1,42,3,1,167,3,1331,0,0.1879597,6.305814,1.647464,-1
17,M,0,1,42,4,2,165,1,2964,1,0.9142565,12.28821,4.234292,-1
17,M,0,1,42,5,2,167,3,2053,0,0.910748,12.29312,4.212358,-1
17,M,0,1,42,6,1,165,1,1042,0,0.1279168,6.243606,1.135049,-1
17,M,0,1,42,7,2,166,2,2153,0,0.1463965,12.44982,0.660568,-1
17,M,0,1,42,8,2,168,4,1309,0,0.8040653,12.50206,3.656288,-1
17,M,0,1,43,1,1,169,1,3053,0,0.354854,6.238037,3.181985,-1
17,M,0,1,43,2,1,172,4,2542,0,0.3041334,6.43984,2.569941,-1
17,M,0,1,43,3,2,171,3,942,0,0.2732753,12.3048,1.249605,-1
17,M,0,1,43,4,1,170,2,1031,0,0.4937195,6.566419,4.072946,-1
17,M,0,1,43,5,1,171,3,1175,0,0.4650546,6.334021,4.063415,-1
17,M,0,1,43,6,2,172,4,3886,0,0.707824,12.51229,3.149892,-1
17,M,0,1,43,7,2,170,2,664,0,0.207955,12.44668,0.9343988,-1
17,M,0,1,43,8,2,169,1,3120,0,0.3896414,12.30758,1.794169,-1
17,M,0,1,44,1,1,174,2,1219,0,0.4607356,6.57061,3.80313,-1
17,M,0,1,44,2,1,176,4,2086,0,0.2659342,6.445746,2.266759,-1
17,M,0,1,44,3,1,173,1,1487,0,0.1967356,6.241153,1.727937,-1
17,M,0,1,44,4,1,175,3,3464,0,0.5166813,6.33097,4.517787,-1
17,M,0,1,44,5,2,173,1,1442,0,0.01402944,12.30432,0.05934703,-1
17,M,0,1,44,6,2,176,4,1020,0,0.08545188,12.50911,0.3841043,-1
17,M,0,1,44,7,2,175,3,1042,0,0.6316289,12.31632,2.908518,-1
17,M,0,1,44,8,2,174,2,753,0,0.2819505,12.455,1.281153,-1
17,M,0,1,45,1,2,179,3,1309,0,0.2781952,12.19377,1.284204,-1
17,M,0,1,45,2,1,177,1,1520,0,0.2131666,6.119815,1.907007,-1
17,M,0,1,45,3,2,178,2,2231,0,0.8451429,12.33426,3.88252,-1
17,M,0,1,45,4,1,180,4,2286,0,0.01667369,6.336208,0.1440177,-1
17,M,0,1,45,5,2,177,1,3442,0,0.7423853,12.17222,3.421195,-1
17,M,0,1,45,6,1,179,3,2431,0,0.2170977,6.189535,1.937146,-1
17,M,0,1,45,7,2,180,4,4675,3,3.581345E-07,12.51317,0,-1
17,M,0,1,45,8,1,178,2,1142,0,0.0403402,6.627197,0.3333784,-1
17,M,0,1,46,1,1,181,1,1709,0,0.4611391,6.307931,3.999733,-1
17,M,0,1,46,2,1,182,2,1531,0,0.2056476,6.653235,1.681908,-1
17,M,0,1,46,3,2,184,4,7297,0,0.4953533,12.57114,2.233357,-1
17,M,0,1,46,4,1,183,3,2297,0,0.362781,6.326222,3.172064,-1
17,M,0,1,46,5,2,182,2,1131,0,0.3509853,12.5091,1.588315,-1
17,M,0,1,46,6,2,181,1,6342,0,1.402676E-07,12.3562,0,-1
17,M,0,1,46,7,1,184,4,4409,0,0.203007,6.460457,1.712008,-1
17,M,0,1,46,8,2,183,3,875,0,0.8340304,12.3615,3.824488,-1
17,M,0,1,47,1,2,188,4,1264,0,0.1726397,12.5577,0.770502,-1
17,M,0,1,47,2,2,187,3,1553,1,0.9698962,12.36975,4.45043,-1
17,M,0,1,47,3,2,185,1,1764,0,0.6162344,12.37243,2.776433,-1
17,M,0,1,47,4,1,188,4,2431,0,0.1511504,6.48322,1.278707,-1
17,M,0,1,47,5,1,185,1,3453,2,3.423797E-08,6.340037,0,-1
17,M,0,1,47,6,2,186,2,1909,0,0.6623372,12.49545,3.003483,-1
17,M,0,1,47,7,1,187,3,2509,1,0.5207042,6.357879,4.541354,-1
17,M,0,1,47,8,1,186,2,1142,0,1.133009E-07,6.598818,0,-1
17,M,0,1,48,1,1,191,3,2964,0,0.3023499,6.331384,2.629869,-1
17,M,0,1,48,2,1,189,1,1420,0,0.3478762,6.269591,3.036478,-1
17,M,0,1,48,3,1,190,2,941,0,0.4666933,6.624198,3.857169,-1
17,M,0,1,48,4,2,191,3,2175,1,0.3353395,12.37124,1.525724,-1
17,M,0,1,48,5,2,192,4,6320,3,0.2619317,12.59563,1.174365,-1
17,M,0,1,48,6,2,189,1,2575,0,1.35352E-07,12.38799,0.01978234,-1
17,M,0,1,48,7,2,190,2,2320,1,0.7012665,12.52544,3.172743,-1
17,M,0,1,48,8,1,192,4,3242,0,0.533518,6.507134,4.600194,-1
17,M,0,1,49,1,2,193,1,2264,0,0.8334514,12.37808,3.826946,-1
17,M,0,1,49,2,2,196,4,952,0,0.8067253,12.57467,3.630923,-1
17,M,0,1,49,3,1,194,2,1175,0,0.1101205,6.641703,0.9037398,-1
17,M,0,1,49,4,1,196,4,1909,0,8.09642E-08,6.487152,0,-1
17,M,0,1,49,5,2,195,3,997,0,0.3053867,12.3782,1.388326,-1
17,M,0,1,49,6,1,193,1,2597,0,0.01557734,6.320703,0.1341704,-1
17,M,0,1,49,7,1,195,3,1697,0,0.2766867,6.389792,2.393837,-1
17,M,0,1,49,8,2,194,2,1752,0,0.4208037,12.52996,1.902486,-1
17,M,0,1,50,1,2,197,1,3297,0,0.8577082,12.37966,3.931089,-1
17,M,0,1,50,2,1,200,4,2331,0,0.4091645,6.497077,3.461418,-1
17,M,0,1,50,3,1,199,3,2553,0,0.0575575,6.376322,0.4988932,-1
17,M,0,1,50,4,2,198,2,831,0,0.7549447,12.5181,3.413632,-1
17,M,0,1,50,5,2,199,3,1019,0,0.9696349,12.3769,4.446028,-1
17,M,0,1,50,6,1,198,2,2353,0,4.053927E-08,6.637712,0,-1
17,M,0,1,50,7,2,200,4,1320,0,0.01631191,12.57963,0.07132626,-1
17,M,0,1,50,8,1,197,1,1331,0,0.1833878,6.317975,1.603521,-1
17,M,0,1,51,1,2,203,3,1941,1,0.5844416,12.39276,2.656528,-1
17,M,0,1,51,2,2,202,2,831,0,0.9039568,12.52015,4.098876,-1
17,M,0,1,51,3,2,204,4,1009,0,0.5629947,12.57936,2.538753,-1
17,M,0,1,51,4,1,201,1,1252,0,0.4329695,6.313674,3.752803,-1
17,M,0,1,51,5,1,203,3,1664,0,0.2074376,6.402766,1.792095,-1
17,M,0,1,51,6,1,204,4,3964,0,0.01701731,6.514127,0.1412742,-1
17,M,0,1,51,7,2,201,1,2252,1,0.2852205,12.38416,1.292104,-1
17,M,0,1,51,8,1,202,2,2209,0,0.2786351,6.64696,2.294137,-1
17,M,0,1,52,1,2,205,1,1708,0,0.5410212,12.38664,2.441521,-1
17,M,0,1,52,2,2,207,3,1109,0,0.666159,12.39171,3.012074,-1
17,M,0,1,52,3,1,206,2,2708,0,0.1342137,6.645947,1.099673,-1
17,M,0,1,52,4,2,208,4,4253,0,0.128516,12.58645,0.5723243,-1
17,M,0,1,52,5,1,205,1,3375,0,1.174833E-07,6.318225,0.01978234,-1
17,M,0,1,52,6,2,206,2,741,0,0.2743315,12.51896,1.224293,-1
17,M,0,1,52,7,1,207,3,2686,0,0.444913,6.40371,3.845169,-1
17,M,0,1,52,8,1,208,4,1708,0,0.1663693,6.514413,1.393531,-1
17,M,0,1,53,1,2,211,3,1774,1,0.1940664,12.39662,0.881156,-1
17,M,0,1,53,2,2,210,2,609,0,1.021876,12.53279,4.636162,-1
17,M,0,1,53,3,1,212,4,1953,0,0.09564481,6.522105,0.8047857,-1
17,M,0,1,53,4,1,211,3,2053,0,0.4729926,6.404374,4.087968,-1
17,M,0,1,53,5,2,212,4,1364,0,3.404379E-07,12.59074,0,-1
17,M,0,1,53,6,1,209,1,1453,0,0.460956,6.331518,3.984231,-1
17,M,0,1,53,7,1,210,2,1109,0,0.2948824,6.648729,2.403222,-1
17,M,0,1,53,8,2,209,1,6675,0,0.9447144,12.38346,4.329341,-1
17,M,0,1,54,1,1,214,2,720,0,0.04816571,6.642612,0.3971285,-1
17,M,0,1,54,2,2,215,3,1586,1,0.9771415,12.41035,4.468702,-1
17,M,0,1,54,3,2,213,1,1820,0,0.0503735,12.39074,0.2281412,-1
17,M,0,1,54,4,1,215,3,1442,0,0.4208705,6.397148,3.647548,-1
17,M,0,1,54,5,1,216,4,1875,0,0.1260867,6.503402,1.057954,-1
17,M,0,1,54,6,2,214,2,3231,0,0.7107578,12.52834,3.163474,-1
17,M,0,1,54,7,1,213,1,2342,1,0.02643642,6.32478,0.2306999,-1
17,M,0,1,54,8,2,216,4,2576,1,0.2135888,12.59424,0.9522384,-1
17,M,0,1,55,1,2,217,1,3698,0,0.8607406,12.38927,3.907156,-1
17,M,0,1,55,2,2,218,2,975,0,0.5048106,12.52784,2.283191,-1
17,M,0,1,55,3,1,220,4,3264,0,6.222643E-08,6.509876,0,-1
17,M,0,1,55,4,1,217,1,5597,0,0.4264409,6.332883,3.714466,-1
17,M,0,1,55,5,2,219,3,1242,0,0.5193608,12.40071,2.375205,-1
17,M,0,1,55,6,2,220,4,1331,0,0.3388328,12.5863,1.504412,-1
17,M,0,1,55,7,1,218,2,909,0,9.927138E-08,6.644714,0,-1
17,M,0,1,55,8,1,219,3,1731,0,7.90232E-08,6.385587,0,-1
17,M,0,1,56,1,2,221,1,2086,0,0.6795471,12.39849,3.07848,-1
17,M,0,1,56,2,2,223,3,4320,0,0.3337529,12.40208,1.514783,-1
17,M,0,1,56,3,2,222,2,686,0,0.6931483,12.53236,3.134503,-1
17,M,0,1,56,4,2,224,4,2542,0,1.044073,12.60285,4.699696,-1
17,M,0,1,56,5,1,223,3,1598,0,0.5114028,6.404135,4.420624,-1
17,M,0,1,56,6,1,222,2,1075,0,6.513306E-08,6.653016,0,-1
17,M,0,1,56,7,1,221,1,2953,2,0.2465605,6.332318,2.137624,-1
17,M,0,1,56,8,1,224,4,2720,0,2.597864E-07,6.506038,0,-1
17,M,0,1,57,1,4,225,1,1698,0,0.2679896,12.3949,1.212892,-1
17,M,0,1,57,2,3,226,2,4975,0,0.1175626,6.715044,0.9657058,-1
17,M,0,1,57,3,4,228,4,1520,0,0.7267192,12.56952,3.267226,-1
17,M,0,1,57,4,4,227,3,1642,0,2.258152E-07,12.41531,0,-1
17,M,0,1,57,5,3,225,1,2164,0,2.460021E-08,6.332065,0,-1
17,M,0,1,57,6,3,227,3,2675,0,0.2625889,6.429784,2.257934,-1
17,M,0,1,57,7,4,226,2,2041,0,0.4158326,12.56847,1.874193,-1
17,M,0,1,57,8,3,228,4,3131,1,0.04432695,6.536542,0.3706227,-1
17,M,0,1,58,1,3,229,1,2009,0,0.09438943,6.238034,0.8353283,-1
17,M,0,1,58,2,4,231,3,1264,0,0.1161022,12.38167,0.5274898,-1
17,M,0,1,58,3,4,229,1,1553,0,0.2553428,12.38903,1.164157,-1
17,M,0,1,58,4,4,230,2,1031,0,0.5327549,12.56196,2.403629,-1
17,M,0,1,58,5,4,232,4,1386,0,0.1449254,12.59386,0.6486109,-1
17,M,0,1,58,6,3,231,3,2220,0,0.1158113,6.407369,0.9974037,-1
17,M,0,1,58,7,3,232,4,1898,0,0.05276161,6.548971,0.4436728,-1
17,M,0,1,58,8,3,230,2,2653,0,3.835253E-07,6.659995,0,-1
17,M,0,1,59,1,4,233,1,964,0,0.1464803,12.42923,0.6638185,-1
17,M,0,1,59,2,4,234,2,820,0,7.282772E-08,12.5001,0,-1
17,M,0,1,59,3,4,235,3,897,0,0.6864379,12.34955,3.121485,-1
17,M,0,1,59,4,3,236,4,1875,0,1.182753E-07,6.526041,0,-1
17,M,0,1,59,5,3,235,3,3586,1,0.0866424,6.384364,0.745461,-1
17,M,0,1,59,6,4,236,4,1753,1,0.2948176,12.60677,1.31388,-1
17,M,0,1,59,7,3,233,1,2853,0,0.1899167,6.335211,1.668709,-1
17,M,0,1,59,8,3,234,2,1020,0,0.2572211,6.69104,2.139546,-1
17,M,0,1,60,1,4,240,4,1131,0,0.4399012,12.57695,1.950938,-1
17,M,0,1,60,2,4,239,3,2286,1,0.4278062,12.38705,1.937247,-1
17,M,0,1,60,3,3,237,1,953,0,1.120337E-07,6.374292,0,-1
17,M,0,1,60,4,3,239,3,2586,1,1.301751E-07,6.367312,0,-1
17,M,0,1,60,5,4,238,2,931,0,0.044155,12.56505,0.1978235,-1
17,M,0,1,60,6,4,237,1,1865,0,0.3071282,12.43095,1.401932,-1
17,M,0,1,60,7,3,240,4,2209,0,0.38891,6.489864,3.24932,-1
17,M,0,1,60,8,3,238,2,853,0,0.3268043,6.66996,2.67203,-1
17,M,0,1,61,1,1,244,4,2109,0,6.166433E-08,6.518632,0,-1
17,M,0,1,61,2,2,241,1,1675,0,7.337785E-08,12.40339,0,-1
17,M,0,1,61,3,1,242,2,687,0,0.01409327,6.656838,0.1136409,-1
17,M,0,1,61,4,1,243,3,2175,0,0.5275267,6.43238,4.54088,-1
17,M,0,1,61,5,2,244,4,1020,0,0.7512102,12.6069,3.339472,-1
17,M,0,1,61,6,2,242,2,686,0,1.178226E-07,12.5304,0,-1
17,M,0,1,61,7,1,241,1,1253,0,0.1054904,6.335371,0.916639,-1
17,M,0,1,61,8,2,243,3,1053,0,0.5741746,12.41534,2.605642,-1
17,M,0,1,62,1,1,246,2,675,0,0.1974118,6.648829,1.62558,-1
17,M,0,1,62,2,2,247,3,1531,1,1.032311,12.42291,4.699446,-1
17,M,0,1,62,3,2,246,2,520,0,0.8909997,12.54348,4.049994,-1
17,M,0,1,62,4,2,248,4,753,0,0.9395263,12.61769,4.219744,-1
17,M,0,1,62,5,2,245,1,3753,1,0.413152,12.3921,1.878261,-1
17,M,0,1,62,6,1,247,3,1676,0,0.1310893,6.419722,1.127438,-1
17,M,0,1,62,7,1,245,1,875,0,7.720818E-08,6.344455,0,-1
17,M,0,1,62,8,1,248,4,2253,0,0.04736683,6.545704,0.3971285,-1
17,M,0,1,1,1,5,1,1,2907,0,3.30364,6.35482,31.3231,-1
17,M,0,1,1,2,7,4,4,2653,0,5.596931,6.543052,58.80404,-1
17,M,0,1,1,3,5,3,3,3686,0,4.462921,6.45581,41.88203,-1
17,M,0,1,1,4,5,2,2,4075,0,2.633005,6.644355,23.05572,-1
17,M,0,1,1,5,8,1,1,1231,0,4.948469,12.45094,23.41807,-1
17,M,0,1,1,6,8,2,2,5553,0,5.820878,12.50735,27.73589,-1
17,M,0,1,1,7,6,1,1,2075,0,1.928067,12.36813,8.951793,-1
17,M,0,1,1,8,7,2,2,2876,0,1.575539,6.62642,13.00245,-1
17,M,0,1,1,9,8,3,3,1220,0,7.382512,12.41515,36.04781,-1
17,M,0,1,1,10,5,4,4,1520,0,3.813693,6.543897,33.98939,-1
17,M,0,1,1,11,6,3,3,3087,0,7.122341,12.41963,34.99285,-1
17,M,0,1,1,12,6,4,4,6642,0,1.267389,12.59046,5.686479,-1
17,M,0,1,1,13,7,3,3,2242,0,5.010993,6.443599,51.04771,-1
17,M,0,1,1,14,8,4,4,2097,0,5.887149,12.60509,27.6185,-1
17,M,0,1,1,15,7,1,1,1109,0,5.571813,6.375251,60.92394,-1
17,M,0,1,1,16,6,2,2,3120,0,2.355226,12.51169,10.52052,-1
17,M,0,1,2,1,5,4,4,1808,0,5.65327,6.553243,59.61744,-1
17,M,0,1,2,2,8,1,1,831,0,5.019444,12.44093,23.79479,-1
17,M,0,1,2,3,5,3,3,1131,0,0.5786896,6.425677,5.014306,-1
17,M,0,1,2,4,7,2,2,1087,0,1.859351,6.631644,15.38604,-1
17,M,0,1,2,5,5,1,1,764,0,3.311129,6.356618,31.39229,-1
17,M,0,1,2,6,7,4,4,1097,0,4.456843,6.543328,40.86593,-1
17,M,0,1,2,7,6,2,2,753,0,1.14257,12.52848,5.173469,-1
17,M,0,1,2,8,8,3,3,764,0,5.878597,12.41644,28.25867,-1
17,M,0,1,2,9,6,4,4,842,0,4.702132,12.62397,21.69943,-1
17,M,0,1,2,10,7,3,3,875,0,0.571422,6.426408,4.949418,-1
17,M,0,1,2,11,8,2,2,508,0,3.389801,12.50358,15.73011,-1
17,M,0,1,2,12,6,3,3,1264,0,5.946137,12.41674,28.61231,-1
17,M,0,1,2,13,8,4,4,1197,0,5.747416,12.60032,27.03248,-1
17,M,0,1,2,14,7,1,1,964,0,2.385574,6.352377,21.8678,-1
17,M,0,1,2,15,5,2,2,1597,0,2.481359,6.629336,21.8291,-1
17,M,0,1,2,16,6,1,1,1664,0,10.71598,12.4016,59.77782,-1
