Age, Gender, Awareness Type, Session, Block, Trial, Set, Pattern, Quadrant, Response Time, Num Mistakes, Distance From Target, Camera Distance From Target, Angle Error (Degrees), FC Response
19,F,0,1,1,1,1,3,3,2164,0,0.5157817,6.104446,4.685921,-1
19,F,0,1,1,2,1,1,1,6386,2,0.3101181,6.413075,2.644713,-1
19,F,0,1,1,3,1,4,4,1454,0,0.1273754,6.441521,1.075564,-1
19,F,0,1,1,4,2,2,2,7886,4,1.045253,12.30019,4.824911,-1
19,F,0,1,1,5,2,1,1,3220,1,0.4352945,12.22625,2.012367,-1
19,F,0,1,1,6,1,2,2,1842,0,0.2771508,6.54015,2.309358,-1
19,F,0,1,1,7,2,4,4,2709,0,0.3202728,12.35619,1.448209,-1
19,F,0,1,1,8,2,3,3,5976,3,0.9106005,12.21509,4.164947,-1
19,F,0,1,2,1,2,6,2,8186,3,0.5799766,12.43167,2.603388,-1
19,F,0,1,2,2,2,5,1,9999,4,-1,-1,-1,-1
19,F,0,1,2,3,2,7,3,6298,3,0.8080372,12.07684,3.791372,-1
19,F,0,1,2,4,2,8,4,1564,0,0.3567919,12.27597,1.637694,-1
19,F,0,1,2,5,1,5,1,3453,0,0.231241,6.276415,2.023811,-1
19,F,0,1,2,6,1,8,4,5253,2,0.1900541,6.342863,1.64342,-1
19,F,0,1,2,7,1,7,3,8953,4,0.4119935,6.148399,3.713569,-1
19,F,0,1,2,8,1,6,2,3020,0,8.26259E-08,6.470809,0,-1
19,F,0,1,3,1,2,9,1,9999,4,-1,-1,-1,-1
19,F,0,1,3,2,2,10,2,4887,1,2.990805E-07,12.26577,0,-1
19,F,0,1,3,3,1,12,4,2365,0,0.03816338,6.371366,0.3280534,-1
19,F,0,1,3,4,2,11,3,9999,3,-1,-1,-1,-1
19,F,0,1,3,5,1,9,1,9999,5,-1,-1,-1,-1
19,F,0,1,3,6,1,10,2,2431,0,0.3469956,6.482442,2.929909,-1
19,F,0,1,3,7,1,11,3,4075,2,0.2952802,6.000177,2.722899,-1
19,F,0,1,3,8,2,12,4,9999,6,-1,-1,-1,-1
19,F,0,1,4,1,1,14,2,1387,0,0.1333222,6.444479,1.126222,-1
19,F,0,1,4,2,2,16,4,4175,2,1.005218,12.26647,4.647725,-1
19,F,0,1,4,3,2,15,3,9999,5,-1,-1,-1,-1
19,F,0,1,4,4,1,16,4,4564,1,8.798524E-08,6.356544,0,-1
19,F,0,1,4,5,1,15,3,1742,0,0.09045813,6.017227,0.8289794,-1
19,F,0,1,4,6,1,13,1,2142,0,0.4448641,6.267848,3.901388,-1
19,F,0,1,4,7,2,14,2,3976,2,0.2147888,12.28371,0.978988,-1
19,F,0,1,4,8,2,13,1,9999,4,-1,-1,-1,-1
19,F,0,1,5,1,2,18,2,1642,0,1.008368,12.33729,4.627577,-1
19,F,0,1,5,2,2,20,4,1709,0,0.8423817,12.31662,3.833081,-1
19,F,0,1,5,3,2,19,3,9231,3,0.8043877,12.09076,3.754003,-1
19,F,0,1,5,4,2,17,1,3265,1,0.855017,12.17736,3.913716,-1
19,F,0,1,5,5,1,20,4,1698,0,0.09565155,6.383558,0.8235324,-1
19,F,0,1,5,6,1,18,2,1586,0,0.1069302,6.487376,0.899399,-1
19,F,0,1,5,7,1,17,1,1953,0,0.421551,6.289711,3.684827,-1
19,F,0,1,5,8,1,19,3,1387,0,0.2208324,6.063073,2.024971,-1
19,F,0,1,6,1,1,22,2,942,0,0.2453924,6.483647,2.055951,-1
19,F,0,1,6,2,1,21,1,1220,0,0.1301657,6.297174,1.137288,-1
19,F,0,1,6,3,1,24,4,3265,0,0.3305825,6.373112,2.847026,-1
19,F,0,1,6,4,2,21,1,1309,0,0.8767111,12.21049,4.0741,-1
19,F,0,1,6,5,2,23,3,9999,5,-1,-1,-1,-1
19,F,0,1,6,6,2,24,4,1198,0,1.011016,12.34049,4.633626,-1
19,F,0,1,6,7,1,23,3,1120,0,0.1694369,6.080397,1.544464,-1
19,F,0,1,6,8,2,22,2,3642,1,0.446181,12.35208,2.044688,-1
19,F,0,1,7,1,1,28,4,2520,0,0.3841608,6.390494,3.326902,-1
19,F,0,1,7,2,1,25,1,1309,0,2.183535E-07,6.320096,0,-1
19,F,0,1,7,3,2,28,4,1064,0,0.5607751,12.33141,2.561778,-1
19,F,0,1,7,4,1,27,3,1576,0,5.964908E-08,6.085639,0,-1
19,F,0,1,7,5,2,25,1,1431,0,0.7428204,12.21898,3.448782,-1
19,F,0,1,7,6,1,26,2,864,0,0.3701611,6.499779,3.118222,-1
19,F,0,1,7,7,2,27,3,1498,0,0.09751907,12.1704,0.4511079,-1
19,F,0,1,7,8,2,26,2,8198,3,0.2403368,12.33094,1.099139,-1
19,F,0,1,8,1,2,31,3,6764,0,0.3822296,12.17199,1.770783,-1
19,F,0,1,8,2,2,30,2,1298,0,0.2840881,12.3592,1.299955,-1
19,F,0,1,8,3,1,31,3,9999,6,-1,-1,-1,-1
19,F,0,1,8,4,1,32,4,2987,1,0.1862207,6.3912,1.594341,-1
19,F,0,1,8,5,1,29,1,1187,0,0.06141493,6.319535,0.5352231,-1
19,F,0,1,8,6,2,32,4,6387,2,0.06432319,12.31539,0.2914124,-1
19,F,0,1,8,7,1,30,2,1365,0,0.003322192,6.495383,0.01978234,-1
19,F,0,1,8,8,2,29,1,3376,1,0.5081032,12.27632,2.317902,-1
19,F,0,1,9,1,1,35,3,1553,0,0.1586518,6.056639,1.450774,-1
19,F,0,1,9,2,1,36,4,5220,1,1.070302E-07,6.355154,0,-1
19,F,0,1,9,3,2,34,2,2142,1,0.7919228,12.30893,3.651036,-1
19,F,0,1,9,4,2,33,1,1720,0,0.8521805,12.16346,3.942083,-1
19,F,0,1,9,5,2,36,4,3598,2,0.8279508,12.29128,3.812078,-1
19,F,0,1,9,6,2,35,3,3365,1,0.4018622,12.12256,1.869802,-1
19,F,0,1,9,7,1,34,2,1786,1,0.1061053,6.478028,0.9002688,-1
19,F,0,1,9,8,1,33,1,2898,0,0.2704065,6.296435,2.365296,-1
19,F,0,1,10,1,2,38,2,4409,2,0.4088466,12.24413,1.882424,-1
19,F,0,1,10,2,2,39,3,7642,4,0.3755323,12.13701,1.744731,-1
19,F,0,1,10,3,1,37,1,2276,0,0.3984607,6.336794,3.457457,-1
19,F,0,1,10,4,1,40,4,3986,0,0.4908875,6.418231,4.131238,-1
19,F,0,1,10,5,1,39,3,1353,0,0.4886998,6.093268,4.401308,-1
19,F,0,1,10,6,1,38,2,2409,1,0.2767816,6.510336,2.328433,-1
19,F,0,1,10,7,2,40,4,9999,2,-1,-1,-1,-1
19,F,0,1,10,8,2,37,1,6320,3,0.7730019,12.26602,3.551209,-1
19,F,0,1,11,1,1,43,3,1720,0,0.439014,6.122643,4.018149,-1
19,F,0,1,11,2,1,42,2,1287,0,0.2485883,6.538497,2.083093,-1
19,F,0,1,11,3,2,43,3,8664,3,0.5106148,12.18873,2.357338,-1
19,F,0,1,11,4,1,41,1,1720,0,0.2554495,6.352767,2.212401,-1
19,F,0,1,11,5,2,44,4,4242,0,0.2593149,12.34981,1.172865,-1
19,F,0,1,11,6,2,41,1,2676,1,0.9918146,12.22389,4.61711,-1
19,F,0,1,11,7,2,42,2,5020,2,0.5566603,12.36987,2.543606,-1
19,F,0,1,11,8,1,44,4,2476,0,0.134621,6.409595,1.153349,-1
19,F,0,1,12,1,2,47,3,5586,2,0.7686592,12.17201,3.566943,-1
19,F,0,1,12,2,2,46,2,1120,0,1.008158,12.36477,4.629058,-1
19,F,0,1,12,3,2,48,4,1498,0,0.2376148,12.33771,1.08372,-1
19,F,0,1,12,4,1,45,1,1664,0,0.3317339,6.334157,2.879092,-1
19,F,0,1,12,5,1,47,3,1465,0,0.2959808,6.092988,2.699289,-1
19,F,0,1,12,6,2,45,1,6975,4,0.07295508,12.20392,0.3351346,-1
19,F,0,1,12,7,1,48,4,4287,0,0.3312573,6.401926,2.840004,-1
19,F,0,1,12,8,1,46,2,1598,1,0.0296771,6.506855,0.249446,-1
19,F,0,1,13,1,1,51,3,2064,1,0.03319905,6.08176,0.3006659,-1
19,F,0,1,13,2,1,49,1,3464,2,0.1823354,6.324531,1.592622,-1
19,F,0,1,13,3,1,50,2,1331,0,0.0510204,6.511204,0.4297835,-1
19,F,0,1,13,4,2,49,1,1042,0,0.9561521,12.23559,4.434779,-1
19,F,0,1,13,5,2,52,4,1320,1,0.9615869,12.34018,4.337431,-1
19,F,0,1,13,6,2,51,3,2275,1,0.7846897,12.16521,3.643144,-1
19,F,0,1,13,7,1,52,4,2798,1,1.823074E-07,6.392647,0,-1
19,F,0,1,13,8,2,50,2,2853,1,0.6422747,12.34387,2.908451,-1
19,F,0,1,14,1,2,55,3,1187,0,0.5097493,12.15964,2.346019,-1
19,F,0,1,14,2,1,54,2,2131,1,0.3143708,6.50379,2.64782,-1
19,F,0,1,14,3,1,53,1,3353,1,0.1164771,6.319564,1.007942,-1
19,F,0,1,14,4,2,56,4,1753,0,0.7973271,12.32967,3.666342,-1
19,F,0,1,14,5,1,55,3,1398,0,0.2621692,6.084961,2.348104,-1
19,F,0,1,14,6,2,53,1,3242,2,0.389876,12.23578,1.799724,-1
19,F,0,1,14,7,1,56,4,2576,1,3.053686E-07,6.390834,0,-1
19,F,0,1,14,8,2,54,2,853,0,1.045865,12.36344,4.774053,-1
19,F,0,1,15,1,1,59,3,1131,0,0.08779595,6.085242,0.7903101,-1
19,F,0,1,15,2,2,60,4,3153,0,0.05019007,12.34313,0.2272819,-1
19,F,0,1,15,3,2,57,1,986,0,1.030919,12.2295,4.784996,-1
19,F,0,1,15,4,1,58,2,1487,0,0.4225626,6.506047,3.547348,-1
19,F,0,1,15,5,1,60,4,2653,0,0.3964885,6.385132,3.436725,-1
19,F,0,1,15,6,2,59,3,1687,0,0.9316517,12.15749,4.280936,-1
19,F,0,1,15,7,1,57,1,2365,0,0.08863696,6.337399,0.7689767,-1
19,F,0,1,15,8,2,58,2,2831,1,0.4714844,12.3492,2.162565,-1
19,F,0,1,16,1,2,61,1,987,0,0.1996308,12.22447,0.9211111,-1
19,F,0,1,16,2,1,64,4,4175,1,1.69962E-07,6.397946,0,-1
19,F,0,1,16,3,1,62,2,4686,1,0.5481793,6.519255,4.727085,-1
19,F,0,1,16,4,1,61,1,1753,0,0.1225153,6.310045,1.068262,-1
19,F,0,1,16,5,2,62,2,1097,0,0.3597843,12.34116,1.630749,-1
19,F,0,1,16,6,2,63,3,1420,0,1.027435,12.1711,4.779425,-1
19,F,0,1,16,7,2,64,4,7409,6,0.1016387,12.27945,0.464781,-1
19,F,0,1,16,8,1,63,3,1642,1,0.08187933,6.044195,0.7478197,-1
19,F,0,1,17,1,3,68,4,2753,1,0.2778406,6.372391,2.411433,-1
19,F,0,1,17,2,4,67,3,2353,0,1.078681E-07,12.14263,0,-1
19,F,0,1,17,3,4,65,1,1431,0,0.5135015,12.2091,2.392529,-1
19,F,0,1,17,4,3,66,2,1654,0,1.04615E-07,6.495414,0,-1
19,F,0,1,17,5,3,67,3,1265,0,0.1322596,6.058496,1.19321,-1
19,F,0,1,17,6,3,65,1,1331,0,0.1702761,6.278774,1.483585,-1
19,F,0,1,17,7,4,68,4,3364,1,0.1755808,12.34111,0.796476,-1
19,F,0,1,17,8,4,66,2,1109,0,0.2381919,12.33983,1.080646,-1
19,F,0,1,18,1,4,72,4,3964,4,0.5537266,12.32286,2.506397,-1
19,F,0,1,18,2,4,70,2,1465,1,0.7516599,12.37895,3.42274,-1
19,F,0,1,18,3,3,69,1,2620,0,1.163358E-07,6.332066,0,-1
19,F,0,1,18,4,3,70,2,1587,1,0.4527788,6.524092,3.798957,-1
19,F,0,1,18,5,3,71,3,1476,0,0.05936297,6.08602,0.5344914,-1
19,F,0,1,18,6,4,69,1,1120,0,0.2651372,12.22714,1.228282,-1
19,F,0,1,18,7,3,72,4,2475,0,0.3224012,6.394299,2.775587,-1
19,F,0,1,18,8,4,71,3,1875,0,0.8025958,12.16417,3.742039,-1
19,F,0,1,19,1,4,76,4,5987,0,0.330233,12.33756,1.509606,-1
19,F,0,1,19,2,4,73,1,1231,1,0.2959989,12.23345,1.370736,-1
19,F,0,1,19,3,3,75,3,2531,1,0.2187646,6.093147,1.996354,-1
19,F,0,1,19,4,3,76,4,2342,0,0.2532564,6.388314,2.192317,-1
19,F,0,1,19,5,3,73,1,1153,0,4.209262E-07,6.303709,0,-1
19,F,0,1,19,6,3,74,2,1209,0,0.1782937,6.510189,1.500635,-1
19,F,0,1,19,7,4,75,3,6809,0,0.2724886,12.16391,1.247568,-1
19,F,0,1,19,8,4,74,2,6676,0,0.8349854,12.33999,3.833949,-1
19,F,0,1,20,1,4,80,4,3520,3,0.2948869,12.33542,1.332514,-1
19,F,0,1,20,2,4,77,1,1420,0,0.6378094,12.20746,2.963194,-1
19,F,0,1,20,3,4,79,3,2364,1,1.375373E-07,12.15508,0,-1
19,F,0,1,20,4,3,77,1,2631,1,0.1376322,6.294982,1.201219,-1
19,F,0,1,20,5,3,78,2,2131,0,0.2511144,6.484351,2.114796,-1
19,F,0,1,20,6,3,79,3,1531,0,0.2074379,6.073067,1.865401,-1
19,F,0,1,20,7,4,78,2,6987,1,0.8086443,12.34035,3.698512,-1
19,F,0,1,20,8,3,80,4,2587,0,0.1467581,6.394953,1.254294,-1
19,F,0,1,20,1,1,79,3,2431,0,0.4065135,6.058591,3.769826,-1
19,F,0,1,20,2,1,80,4,4042,1,0.02062843,6.391368,0.1769387,-1
19,F,0,1,20,3,1,77,1,1031,0,2.942973E-08,6.330109,0,-1
19,F,0,1,20,4,2,80,4,1187,0,0.3281685,12.32146,1.501547,-1
19,F,0,1,20,5,2,78,2,6364,4,0.8124263,12.31198,3.722259,-1
19,F,0,1,20,6,2,79,3,2642,1,0.9147676,12.08585,4.27173,-1
19,F,0,1,20,7,2,77,1,898,0,0.3250149,12.26435,1.484508,-1
19,F,0,1,20,8,1,78,2,2042,0,0.3456491,6.525926,2.882082,-1
19,F,0,1,21,1,2,84,4,2531,0,2.563729E-07,12.31373,0,-1
19,F,0,1,21,2,2,82,2,3565,2,0.4323584,12.31641,1.970005,-1
19,F,0,1,21,3,1,81,1,3964,0,0.4069663,6.319329,3.586923,-1
19,F,0,1,21,4,1,82,2,2276,1,0.2168784,6.486082,1.815207,-1
19,F,0,1,21,5,2,83,3,1442,0,0.1856872,12.16386,0.8613922,-1
19,F,0,1,21,6,2,81,1,942,0,0.9605247,12.22684,4.460146,-1
19,F,0,1,21,7,1,84,4,2376,0,0.3814552,6.382649,3.263088,-1
19,F,0,1,21,8,1,83,3,1609,0,1.128945E-07,6.07517,0,-1
19,F,0,1,22,1,2,88,4,4742,0,0.5741857,12.31308,2.601357,-1
19,F,0,1,22,2,2,85,1,8464,7,0.3602539,12.25863,1.655167,-1
19,F,0,1,22,3,2,87,3,2376,1,0.8627371,12.19844,4.012345,-1
19,F,0,1,22,4,2,86,2,2487,2,0.9851078,12.39058,4.486768,-1
19,F,0,1,22,5,1,87,3,1998,0,0.3221253,6.115329,2.86348,-1
19,F,0,1,22,6,1,85,1,1064,0,0.03882958,6.36576,0.3339648,-1
19,F,0,1,22,7,1,86,2,1220,0,0.521858,6.528348,4.367939,-1
19,F,0,1,22,8,1,88,4,1975,0,0.1435518,6.422218,1.217561,-1
19,F,0,1,23,1,2,89,1,1642,1,0.7844281,12.24757,3.642983,-1
19,F,0,1,23,2,2,90,2,5953,5,0.5931849,12.38223,2.701898,-1
19,F,0,1,23,3,1,92,4,2942,0,1.325647E-07,6.423038,0,-1
19,F,0,1,23,4,2,91,3,1442,0,0.6429229,12.17686,2.94889,-1
19,F,0,1,23,5,2,92,4,3153,0,0.7003458,12.35409,3.227071,-1
19,F,0,1,23,6,1,89,1,1031,0,0.1285269,6.32595,1.121172,-1
19,F,0,1,23,7,1,91,3,1898,0,0.1105671,6.094223,0.9926839,-1
19,F,0,1,23,8,1,90,2,853,0,0.4909308,6.514731,4.145245,-1
19,F,0,1,24,1,2,95,3,1631,0,0.4547929,12.17579,2.085159,-1
19,F,0,1,24,2,1,94,2,2076,2,0.2626497,6.523549,2.198468,-1
19,F,0,1,24,3,1,96,4,2342,1,0.3201364,6.401085,2.767535,-1
19,F,0,1,24,4,1,93,1,1231,0,0.3033989,6.34931,2.637598,-1
19,F,0,1,24,5,2,94,2,1809,0,0.89067,12.36454,4.064571,-1
19,F,0,1,24,6,2,93,1,1420,1,1.028233,12.22665,4.77352,-1
19,F,0,1,24,7,2,96,4,1309,0,0.1685731,12.34404,0.7633579,-1
19,F,0,1,24,8,1,95,3,2009,1,0.3348443,6.078633,3.02983,-1
19,F,0,1,25,1,1,97,1,1220,0,0.3563344,6.323158,3.090539,-1
19,F,0,1,25,2,1,98,2,1331,1,0.4104809,6.504905,3.418676,-1
19,F,0,1,25,3,1,100,4,2153,1,0.06879827,6.393046,0.5865081,-1
19,F,0,1,25,4,1,99,3,1565,0,0.08379608,6.078436,0.760533,-1
19,F,0,1,25,5,2,98,2,987,0,1.004857,12.36745,4.613035,-1
19,F,0,1,25,6,2,99,3,1587,0,0.3729191,12.18062,1.724309,-1
19,F,0,1,25,7,2,100,4,2498,1,2.798591E-07,12.34177,0,-1
19,F,0,1,25,8,2,97,1,2431,3,0.230276,12.21335,1.062752,-1
19,F,0,1,26,1,1,102,2,1120,0,0.2342461,6.500746,1.954246,-1
19,F,0,1,26,2,1,104,4,2654,0,0.4954045,6.381609,4.297967,-1
19,F,0,1,26,3,1,101,1,1131,0,0.3240976,6.326398,2.823968,-1
19,F,0,1,26,4,2,103,3,1353,0,4.21328E-08,12.17198,0.01978234,-1
19,F,0,1,26,5,2,101,1,4742,4,0.7408208,12.24553,3.402488,-1
19,F,0,1,26,6,2,102,2,7175,5,0.8543896,12.36545,3.898174,-1
19,F,0,1,26,7,1,103,3,1842,0,0.1565222,6.100463,1.405556,-1
19,F,0,1,26,8,2,104,4,2565,0,0.7711263,12.34578,3.480653,-1
19,F,0,1,27,1,2,106,2,1098,0,0.8707872,12.36667,3.936913,-1
19,F,0,1,27,2,1,105,1,1342,0,0.4720553,6.335413,4.088255,-1
19,F,0,1,27,3,1,108,4,4287,3,0.04147191,6.37564,0.354982,-1
19,F,0,1,27,4,2,107,3,4387,0,0.1021584,12.17303,0.4731261,-1
19,F,0,1,27,5,2,105,1,820,0,0.8813667,12.21874,4.094334,-1
19,F,0,1,27,6,1,107,3,2309,2,0.01303831,6.094866,0.1186941,-1
19,F,0,1,27,7,1,106,2,2064,0,0.4885778,6.551297,4.050864,-1
19,F,0,1,27,8,2,108,4,2131,0,0.7896611,12.376,3.555893,-1
19,F,0,1,28,1,2,110,2,1053,0,0.736406,12.39394,3.316115,-1
19,F,0,1,28,2,1,109,1,2098,2,0.09508396,6.360596,0.8180492,-1
19,F,0,1,28,3,1,112,4,3698,2,0.09453367,6.402523,0.8062432,-1
19,F,0,1,28,4,2,109,1,3842,3,0.9037873,12.25789,4.194887,-1
19,F,0,1,28,5,2,111,3,1598,0,0.4087853,12.19678,1.888341,-1
19,F,0,1,28,6,2,112,4,1976,0,0.271583,12.37727,1.225731,-1
19,F,0,1,28,7,1,111,3,2053,0,0.2028362,6.127676,1.812186,-1
19,F,0,1,28,8,1,110,2,1053,0,0.5381339,6.546841,4.476278,-1
19,F,0,1,29,1,1,115,3,4787,4,0.2649453,6.102794,2.376029,-1
19,F,0,1,29,2,2,116,4,2053,0,0.4090756,12.36424,1.863721,-1
19,F,0,1,29,3,2,115,3,1864,0,0.9280734,12.19578,4.251832,-1
19,F,0,1,29,4,1,113,1,1009,0,4.242584E-08,6.364413,0,-1
19,F,0,1,29,5,2,114,2,864,0,0.7423769,12.3961,3.398515,-1
19,F,0,1,29,6,1,116,4,2553,1,0.3844894,6.395926,3.269921,-1
19,F,0,1,29,7,2,113,1,1020,0,0.6183231,12.27044,2.865667,-1
19,F,0,1,29,8,1,114,2,976,0,0.4324661,6.53932,3.605761,-1
19,F,0,1,30,1,1,119,3,2587,0,0.1194619,6.123071,1.069177,-1
19,F,0,1,30,2,1,117,1,1198,0,0.4840859,6.366671,4.172417,-1
19,F,0,1,30,3,1,118,2,2231,1,0.2276815,6.548992,1.88803,-1
19,F,0,1,30,4,2,119,3,9931,3,0.8892119,12.22208,4.128155,-1
19,F,0,1,30,5,2,117,1,3831,2,0.4851347,12.23893,2.248031,-1
19,F,0,1,30,6,1,120,4,5909,0,0.250005,6.418326,2.154859,-1
19,F,0,1,30,7,2,118,2,1176,0,0.6888984,12.38162,3.150948,-1
19,F,0,1,30,8,2,120,4,1598,0,0.182229,12.37693,0.828271,-1
19,F,0,1,31,1,2,123,3,3253,2,1.007478,12.2088,4.611124,-1
19,F,0,1,31,2,2,121,1,853,0,0.378165,12.2657,1.726464,-1
19,F,0,1,31,3,1,122,2,1787,1,0.4378079,6.546881,3.740102,-1
19,F,0,1,31,4,1,121,1,1442,0,0.5167209,6.339159,4.472601,-1
19,F,0,1,31,5,1,124,4,2842,1,0.0735619,6.409091,0.6252628,-1
19,F,0,1,31,6,2,122,2,9999,3,-1,-1,-1,-1
19,F,0,1,31,7,2,124,4,8509,4,0.720042,12.33028,3.295031,-1
19,F,0,1,31,8,1,123,3,1309,0,0.1628826,6.099955,1.458845,-1
19,F,0,1,32,1,2,125,1,864,0,8.235585E-08,12.23814,0,-1
19,F,0,1,32,2,1,127,3,1298,0,0.2528169,6.104922,2.265895,-1
19,F,0,1,32,3,1,126,2,909,0,0.5378261,6.531763,4.480477,-1
19,F,0,1,32,4,1,128,4,2176,1,0.3505165,6.389515,3.000875,-1
19,F,0,1,32,5,1,125,1,1564,0,0.09269828,6.337602,0.8016186,-1
19,F,0,1,32,6,2,126,2,9598,9,0.6981894,12.36883,3.203019,-1
19,F,0,1,32,7,2,128,4,1176,0,0.01470515,12.35921,0.06852804,-1
19,F,0,1,32,8,2,127,3,1587,0,0.771247,12.18126,3.538782,-1
19,F,0,1,33,1,1,130,2,1809,0,0.3374775,6.508091,2.807283,-1
19,F,0,1,33,2,1,132,4,2742,0,0.3164975,6.376986,2.746092,-1
19,F,0,1,33,3,2,131,3,3109,1,0.1138251,12.15648,0.5278606,-1
19,F,0,1,33,4,1,129,1,942,0,0.2827643,6.346879,2.457343,-1
19,F,0,1,33,5,1,131,3,1676,1,0.4659298,6.083094,4.160478,-1
19,F,0,1,33,6,2,129,1,5509,4,0.9200296,12.22123,4.281394,-1
19,F,0,1,33,7,2,130,2,1509,0,0.2483243,12.36975,1.131769,-1
19,F,0,1,33,8,2,132,4,1831,0,1.04529,12.34195,4.733297,-1
19,F,0,1,34,1,2,133,1,2486,2,0.6387022,12.23245,2.939315,-1
19,F,0,1,34,2,1,135,3,1353,0,0.3143696,6.087656,2.812299,-1
19,F,0,1,34,3,1,133,1,1009,0,0.2129208,6.349348,1.839092,-1
19,F,0,1,34,4,2,136,4,1520,1,0.8106891,12.34609,3.659446,-1
19,F,0,1,34,5,1,134,2,1487,1,0.2050275,6.521958,1.706856,-1
19,F,0,1,34,6,1,136,4,2720,1,0.2679287,6.393769,2.270641,-1
19,F,0,1,34,7,2,135,3,2419,1,0.3500721,12.16558,1.623171,-1
19,F,0,1,34,8,2,134,2,1420,1,0.8759949,12.37195,4.018636,-1
19,F,0,1,35,1,1,140,4,2198,1,0.3347142,6.395854,2.895635,-1
19,F,0,1,35,2,1,137,1,3442,3,0.4122553,6.343789,3.565571,-1
19,F,0,1,35,3,2,140,4,2165,0,0.7700883,12.32849,3.480653,-1
19,F,0,1,35,4,2,139,3,2198,0,0.5191244,12.16642,2.386467,-1
19,F,0,1,35,5,2,137,1,1620,1,0.4969079,12.23569,2.302993,-1
19,F,0,1,35,6,1,138,2,1509,1,0.3539838,6.506331,2.949753,-1
19,F,0,1,35,7,1,139,3,1409,1,0.2522838,6.094327,2.25646,-1
19,F,0,1,35,8,2,138,2,6520,7,0.1016601,12.35459,0.463094,-1
19,F,0,1,37,1,4,148,4,2431,0,3.033973E-07,12.35432,0,-1
19,F,0,1,37,2,3,147,3,1853,1,0.1376238,6.077781,1.246783,-1
19,F,0,1,37,3,3,148,4,2519,2,0.1764771,6.367397,1.532124,-1
19,F,0,1,37,4,4,146,2,5031,5,0.5794395,12.35697,2.645897,-1
19,F,0,1,37,5,3,145,1,2431,0,0.08577917,6.310765,0.7457234,-1
19,F,0,1,37,6,3,146,2,998,0,0.5152149,6.495228,4.296189,-1
19,F,0,1,37,7,4,147,3,3775,2,0.3596166,12.17396,1.66201,-1
19,F,0,1,37,8,4,145,1,1331,0,1.00959,12.22933,4.683413,-1
19,F,0,1,38,1,4,152,4,2231,1,0.5743492,12.35964,2.597064,-1
19,F,0,1,38,2,3,150,2,853,0,0.4151743,6.538803,3.503305,-1
19,F,0,1,38,3,4,151,3,3131,0,0.5241131,12.15708,2.400369,-1
19,F,0,1,38,4,4,149,1,1620,1,0.7750327,12.23514,3.595701,-1
19,F,0,1,38,5,3,151,3,1519,0,0.382182,6.085142,3.405133,-1
19,F,0,1,38,6,3,149,1,1354,0,0.0640394,6.354386,0.5549665,-1
19,F,0,1,38,7,3,152,4,3053,1,0.2169824,6.359099,1.880344,-1
19,F,0,1,38,8,4,150,2,2786,2,0.6122198,12.36023,2.768808,-1
19,F,0,1,39,1,4,153,1,1398,0,0.08814888,12.22511,0.4054182,-1
19,F,0,1,39,2,3,156,4,2542,0,0.2244445,6.348638,1.951038,-1
19,F,0,1,39,3,4,154,2,909,0,0.8223907,12.3652,3.729774,-1
19,F,0,1,39,4,4,155,3,1664,0,0.02474081,12.15769,0.1136409,-1
19,F,0,1,39,5,3,154,2,1375,1,0.5412484,6.516169,4.498496,-1
19,F,0,1,39,6,3,153,1,1376,0,0.3238367,6.338869,2.801978,-1
19,F,0,1,39,7,4,156,4,4342,1,3.730833E-08,12.35375,0,-1
19,F,0,1,39,8,3,155,3,2431,0,0.0782598,6.081552,0.7041557,-1
19,F,0,1,40,1,4,160,4,2220,0,0.9561024,12.33702,4.319966,-1
19,F,0,1,40,2,4,158,2,2042,2,0.9615705,12.36569,4.388116,-1
19,F,0,1,40,3,4,159,3,2486,0,0.1018391,12.16688,0.468137,-1
19,F,0,1,40,4,4,157,1,1187,0,1.356227E-07,12.24063,0,-1
19,F,0,1,40,5,3,160,4,4431,3,0.03241801,6.369848,0.2783625,-1
19,F,0,1,40,6,3,159,3,3709,3,0.2141951,6.103191,1.918569,-1
19,F,0,1,40,7,3,158,2,1698,1,0.05192845,6.528666,0.4361108,-1
19,F,0,1,40,8,3,157,1,1531,0,0.2191464,6.307867,1.908649,-1
19,F,0,1,41,1,1,164,4,1975,0,0.1986718,6.390689,1.716916,-1
19,F,0,1,41,2,1,161,1,964,0,0.3278864,6.348999,2.850256,-1
19,F,0,1,41,3,1,162,2,2375,0,0.2665685,6.504096,2.237559,-1
19,F,0,1,41,4,2,161,1,953,0,0.1453084,12.22118,0.6685182,-1
19,F,0,1,41,5,1,163,3,1387,0,0.3975135,6.099232,3.539335,-1
19,F,0,1,41,6,2,162,2,942,0,0.7618326,12.35141,3.48397,-1
19,F,0,1,41,7,2,164,4,1542,0,0.1628766,12.34494,0.742568,-1
19,F,0,1,41,8,2,163,3,2631,0,0.3077329,12.17453,1.423678,-1
19,F,0,1,42,1,1,168,4,2376,0,0.4201107,6.38403,3.6418,-1
19,F,0,1,42,2,2,166,2,831,0,0.3839606,12.36323,1.738776,-1
19,F,0,1,42,3,1,165,1,1742,1,4.010775E-08,6.327203,0,-1
19,F,0,1,42,4,2,167,3,1853,0,0.1599118,12.17044,0.7412493,-1
19,F,0,1,42,5,2,168,4,2542,2,0.2328307,12.34064,1.059618,-1
19,F,0,1,42,6,2,165,1,4353,4,0.4359436,12.28667,2.01227,-1
19,F,0,1,42,7,1,167,3,6087,5,0.3678943,6.089547,3.361385,-1
19,F,0,1,42,8,1,166,2,1598,1,0.1487754,6.546836,1.254294,-1
19,F,0,1,43,1,1,171,3,3098,3,3.135672E-08,6.106469,0,-1
19,F,0,1,43,2,2,169,1,2020,1,0.7432565,12.25058,3.444635,-1
19,F,0,1,43,3,2,170,2,2898,2,0.49315,12.38684,2.239308,-1
19,F,0,1,43,4,1,172,4,2509,0,0.3067155,6.391932,2.654464,-1
19,F,0,1,43,5,1,169,1,1376,0,0.05052133,6.349394,0.4379019,-1
19,F,0,1,43,6,2,172,4,2164,1,0.1850485,12.35948,0.8432553,-1
19,F,0,1,43,7,1,170,2,1598,0,0.4388385,6.537078,3.641585,-1
19,F,0,1,43,8,2,171,3,2365,0,0.3771355,12.19232,1.739226,-1
19,F,0,1,44,1,1,176,4,2809,1,0.238432,6.395484,2.062035,-1
19,F,0,1,44,2,1,175,3,3253,2,0.3209367,6.10405,2.872081,-1
19,F,0,1,44,3,1,174,2,1620,1,0.078857,6.537659,0.6590852,-1
19,F,0,1,44,4,1,173,1,1820,0,0.2534088,6.339325,2.205934,-1
19,F,0,1,44,5,2,175,3,2542,1,0.8247035,12.19362,3.817519,-1
19,F,0,1,44,6,2,173,1,5931,6,0.9230289,12.24883,4.281988,-1
19,F,0,1,44,7,2,176,4,2509,1,0.7348414,12.36423,3.349306,-1
19,F,0,1,44,8,2,174,2,9999,7,-1,-1,-1,-1
19,F,0,1,45,1,2,177,1,1120,0,0.3897938,12.24903,1.807861,-1
19,F,0,1,45,2,1,179,3,1898,0,0.393422,6.112799,3.584629,-1
19,F,0,1,45,3,1,180,4,2931,1,6.146312E-08,6.404708,0,-1
19,F,0,1,45,4,1,177,1,1076,0,0.02744999,6.345586,0.2382111,-1
19,F,0,1,45,5,2,180,4,2486,0,1.01486,12.35703,4.650758,-1
19,F,0,1,45,6,1,178,2,1520,1,0.2677021,6.535628,2.265636,-1
19,F,0,1,45,7,2,179,3,1575,0,0.9504405,12.17334,4.436987,-1
19,F,0,1,45,8,2,178,2,1876,1,0.9144407,12.38313,4.166827,-1
19,F,0,1,46,1,1,184,4,2976,1,0.03901717,6.387527,0.3322025,-1
19,F,0,1,46,2,1,183,3,1231,0,0.4654622,6.109654,4.138247,-1
19,F,0,1,46,3,2,182,2,842,0,0.6151087,12.37867,2.802607,-1
19,F,0,1,46,4,1,181,1,1664,0,4.133863E-08,6.341656,0,-1
19,F,0,1,46,5,2,183,3,1175,0,0.5180937,12.18597,2.373638,-1
19,F,0,1,46,6,2,184,4,1642,0,0.7721,12.36069,3.466618,-1
19,F,0,1,46,7,2,181,1,1498,1,0.7675093,12.25275,3.5538,-1
19,F,0,1,46,8,1,182,2,865,0,0.2053722,6.529182,1.72181,-1
19,F,0,1,47,1,2,188,4,2787,1,0.595553,12.35444,2.685694,-1
19,F,0,1,47,2,2,186,2,875,0,1.03545,12.37415,4.737847,-1
19,F,0,1,47,3,1,187,3,1965,0,0.2206733,6.103093,1.979025,-1
19,F,0,1,47,4,1,188,4,2765,0,0.04158992,6.394982,0.3571801,-1
19,F,0,1,47,5,2,187,3,1975,0,0.4458847,12.17912,2.064501,-1
19,F,0,1,47,6,1,185,1,1364,0,7.883716E-08,6.353404,0,-1
19,F,0,1,47,7,1,186,2,898,0,0.05920452,6.531842,0.4957456,-1
19,F,0,1,47,8,2,185,1,920,0,0.303893,12.23504,1.408199,-1
19,F,0,1,48,1,1,191,3,2909,2,2.014093E-07,6.092849,0,-1
19,F,0,1,48,2,1,189,1,1364,0,0.4178083,6.355502,3.628442,-1
19,F,0,1,48,3,1,190,2,875,0,0.06374802,6.529562,0.5341251,-1
19,F,0,1,48,4,1,192,4,1942,1,0.2919245,6.38823,2.527549,-1
19,F,0,1,48,5,2,189,1,1842,2,0.6971741,12.25673,3.226647,-1
19,F,0,1,48,6,2,192,4,2453,0,0.1269715,12.35397,0.5781073,-1
19,F,0,1,48,7,2,191,3,1909,1,0.2674949,12.18096,1.230034,-1
19,F,0,1,48,8,2,190,2,5909,5,0.6064684,12.37952,2.733589,-1
19,F,0,1,49,1,2,196,4,2475,0,0.5164658,12.35673,2.325068,-1
19,F,0,1,49,2,2,195,3,2942,3,0.7963078,12.17538,3.69141,-1
19,F,0,1,49,3,2,194,2,1787,1,0.738817,12.38288,3.385759,-1
19,F,0,1,49,4,2,193,1,2264,2,0.8538179,12.23575,3.888719,-1
19,F,0,1,49,5,1,196,4,3275,1,0.208691,6.388771,1.792532,-1
19,F,0,1,49,6,1,193,1,1409,0,0.5228269,6.333105,4.542993,-1
19,F,0,1,49,7,1,194,2,2431,0,0.5039964,6.525342,4.343974,-1
19,F,0,1,49,8,1,195,3,1131,0,0.3774329,6.096095,3.369006,-1
19,F,0,1,50,1,1,200,4,2798,0,0.3308397,6.397453,2.828816,-1
19,F,0,1,50,2,1,198,2,1654,1,0.2468504,6.541828,2.092,-1
19,F,0,1,50,3,2,199,3,1898,0,0.5954135,12.18756,2.727783,-1
19,F,0,1,50,4,2,198,2,1365,0,0.8442997,12.38081,3.847511,-1
19,F,0,1,50,5,2,197,1,1053,0,0.4537389,12.24742,2.069519,-1
19,F,0,1,50,6,2,200,4,1787,0,0.2297083,12.35933,1.046798,-1
19,F,0,1,50,7,1,197,1,1287,0,0.2184658,6.348501,1.895995,-1
19,F,0,1,50,8,1,199,3,1231,0,0.3979792,6.11165,3.543316,-1
19,F,0,1,51,1,2,202,2,742,0,0.8109249,12.38459,3.716257,-1
19,F,0,1,51,2,2,203,3,2087,0,0.3736379,12.19077,1.728843,-1
19,F,0,1,51,3,1,201,1,2587,0,0.2823626,6.353796,2.436947,-1
19,F,0,1,51,4,1,204,4,4131,2,0.2961344,6.391964,2.509284,-1
19,F,0,1,51,5,1,203,3,1587,0,0.3694811,6.114249,3.30559,-1
19,F,0,1,51,6,1,202,2,898,0,0.2427407,6.535141,2.058995,-1
19,F,0,1,51,7,2,204,4,1887,0,0.04597151,12.35879,0.2074791,-1
19,F,0,1,51,8,2,201,1,1198,1,0.6332108,12.25823,2.935183,-1
19,F,0,1,52,1,1,206,2,954,0,0.300176,6.54001,2.49975,-1
19,F,0,1,52,2,1,208,4,2265,1,0.5335236,6.398112,4.562784,-1
19,F,0,1,52,3,1,205,1,1153,0,2.399244E-07,6.353157,0,-1
19,F,0,1,52,4,1,207,3,1376,0,0.2766322,6.119739,2.461084,-1
19,F,0,1,52,5,2,208,4,1498,0,0.7391081,12.36755,3.367844,-1
19,F,0,1,52,6,2,207,3,2520,1,0.4389194,12.18101,2.034709,-1
19,F,0,1,52,7,2,206,2,3920,4,0.7144918,12.37166,3.257624,-1
19,F,0,1,52,8,2,205,1,987,0,0.3684959,12.24826,1.708804,-1
19,F,0,1,53,1,1,210,2,1498,1,0.1450626,6.539993,1.208042,-1
19,F,0,1,53,2,1,209,1,1964,1,1.135412E-07,6.334458,0,-1
19,F,0,1,53,3,1,211,3,3620,0,0.1771902,6.112539,1.60596,-1
19,F,0,1,53,4,2,212,4,3976,3,0.6475123,12.39873,2.943309,-1
19,F,0,1,53,5,2,209,1,1920,1,0.6048321,12.31975,2.784599,-1
19,F,0,1,53,6,2,211,3,2642,1,0.329724,12.20409,1.522128,-1
19,F,0,1,53,7,2,210,2,842,0,0.8570302,12.45241,3.906254,-1
19,F,0,1,53,8,1,212,4,3664,1,0.3339296,6.419641,2.854442,-1
19,F,0,1,54,1,2,215,3,1276,0,1.036124,12.23061,4.734125,-1
19,F,0,1,54,2,2,216,4,8975,8,0.6843907,12.39409,3.123742,-1
19,F,0,1,54,3,2,213,1,964,0,0.7255552,12.31524,3.350826,-1
19,F,0,1,54,4,1,214,2,1442,0,0.3236867,6.5914,2.676641,-1
19,F,0,1,54,5,1,213,1,1187,0,0.1768533,6.412208,1.512585,-1
19,F,0,1,54,6,1,215,3,1931,1,0.4693841,6.151207,4.153175,-1
19,F,0,1,54,7,2,214,2,1298,0,0.9166049,12.44994,4.179452,-1
19,F,0,1,54,8,1,216,4,2598,1,0.1166255,6.40901,1.005804,-1
19,F,0,1,55,1,2,219,3,1865,0,0.6989427,12.24449,3.18807,-1
19,F,0,1,55,2,1,217,1,1786,1,0.5324159,6.406479,4.562225,-1
19,F,0,1,55,3,1,219,3,1253,0,0.4805142,6.166025,4.234893,-1
19,F,0,1,55,4,1,220,4,2187,0,0.3956068,6.424221,3.406858,-1
19,F,0,1,55,5,2,218,2,976,0,0.7956405,12.44321,3.629143,-1
19,F,0,1,55,6,2,220,4,2076,1,0.2235943,12.41187,1.007165,-1
19,F,0,1,55,7,2,217,1,975,0,0.8653113,12.31345,3.998166,-1
19,F,0,1,55,8,1,218,2,1220,0,0.3647916,6.604125,2.99284,-1
19,F,0,1,56,1,1,221,1,1009,0,0.3791987,6.395527,3.252752,-1
19,F,0,1,56,2,2,224,4,1553,0,0.5416005,12.41439,2.476544,-1
19,F,0,1,56,3,1,222,2,2453,2,0.3257226,6.591948,2.723114,-1
19,F,0,1,56,4,2,223,3,1753,0,0.8007529,12.23855,3.657466,-1
19,F,0,1,56,5,2,222,2,987,0,1.045941,12.43212,4.717212,-1
19,F,0,1,56,6,1,224,4,3131,1,0.2437237,6.426761,2.097419,-1
19,F,0,1,56,7,2,221,1,1309,1,0.8594946,12.30719,3.9701,-1
19,F,0,1,56,8,1,223,3,1775,1,0.2165315,6.148011,1.922848,-1
19,F,0,1,57,1,4,226,2,9999,0,-1,-1,-1,-1
19,F,0,1,57,2,3,227,3,3020,0,0.3915059,6.150052,3.472149,-1
19,F,0,1,57,3,3,225,1,1709,0,0.2978478,6.362539,2.576483,-1
19,F,0,1,57,4,4,227,3,1676,0,0.2990493,12.21326,1.381968,-1
19,F,0,1,57,5,4,228,4,1431,0,1.035427,12.42705,4.662242,-1
19,F,0,1,57,6,3,226,2,1353,0,0.4053722,6.576647,3.3622,-1
19,F,0,1,57,7,3,228,4,2198,1,0.4830713,6.415499,4.170351,-1
19,F,0,1,57,8,4,225,1,1009,0,0.3364218,12.297,1.538624,-1
19,F,0,1,58,1,4,231,3,5620,0,0.2841241,12.23716,1.31045,-1
19,F,0,1,58,2,4,229,1,876,0,0.7897084,12.28314,3.652805,-1
19,F,0,1,58,3,3,230,2,1098,0,0.3896505,6.572375,3.246306,-1
19,F,0,1,58,4,4,232,4,2442,0,0.6206064,12.41119,2.823691,-1
19,F,0,1,58,5,3,229,1,1353,0,0.3236362,6.377037,2.782489,-1
19,F,0,1,58,6,4,230,2,831,0,0.336526,12.41368,1.511549,-1
19,F,0,1,58,7,3,232,4,1887,0,0.2999831,6.427643,2.556118,-1
19,F,0,1,58,8,3,231,3,4498,3,0.1404345,6.167393,1.26114,-1
19,F,0,1,59,1,3,233,1,1320,0,0.3535253,6.328616,3.06139,-1
19,F,0,1,59,2,4,234,2,664,0,0.781646,12.44085,3.513016,-1
19,F,0,1,59,3,4,235,3,1364,0,0.2396667,12.25022,1.100385,-1
19,F,0,1,59,4,3,236,4,2553,1,0.4235362,6.419996,3.658055,-1
19,F,0,1,59,5,3,234,2,1398,1,0.2269079,6.588141,1.887304,-1
19,F,0,1,59,6,4,233,1,864,0,0.8486481,12.31045,3.922013,-1
19,F,0,1,59,7,4,236,4,1887,0,0.4964457,12.43644,2.248292,-1
19,F,0,1,59,8,3,235,3,2609,3,0.06216748,6.15972,0.5546138,-1
19,F,0,1,60,1,3,240,4,2387,1,0.4740749,6.433749,4.041862,-1
19,F,0,1,60,2,4,238,2,1020,0,0.3162871,12.439,1.436268,-1
19,F,0,1,60,3,3,239,3,2942,0,0.4652658,6.155843,4.096486,-1
19,F,0,1,60,4,4,240,4,2287,0,0.5644292,12.43258,2.532809,-1
19,F,0,1,60,5,3,237,1,1276,0,0.5008704,6.397208,4.295779,-1
19,F,0,1,60,6,4,239,3,2131,1,1.025221,12.24641,4.678516,-1
19,F,0,1,60,7,3,238,2,1564,1,0.2734929,6.617914,2.275463,-1
19,F,0,1,60,8,4,237,1,1109,0,0.05962142,12.30585,0.2719625,-1
19,F,0,1,61,1,1,243,3,2409,2,0.4286895,6.116033,3.914767,-1
19,F,0,1,61,2,1,244,4,1842,0,0.2219369,6.398207,1.918263,-1
19,F,0,1,61,3,1,242,2,1376,1,0.2336838,6.566123,1.969707,-1
19,F,0,1,61,4,2,244,4,2242,1,1.492317E-07,12.37202,0,-1
19,F,0,1,61,5,1,241,1,1231,0,0.02113425,6.367517,0.1813082,-1
19,F,0,1,61,6,2,242,2,876,0,0.6411347,12.39852,2.890831,-1
19,F,0,1,61,7,2,243,3,1109,0,0.3003036,12.20622,1.373161,-1
19,F,0,1,61,8,2,241,1,1431,1,0.9393748,12.27527,4.343207,-1
19,F,0,1,62,1,2,247,3,1764,1,0.4826082,12.19814,2.221582,-1
19,F,0,1,62,2,1,245,1,1387,0,2.927413E-08,6.3744,0,-1
19,F,0,1,62,3,2,248,4,1787,1,0.1749512,12.3796,0.7900625,-1
19,F,0,1,62,4,2,245,1,1342,1,0.5576884,12.27458,2.577014,-1
19,F,0,1,62,5,1,246,2,1553,1,1.45431E-07,6.579041,0.01978234,-1
19,F,0,1,62,6,1,247,3,1753,0,0.1902324,6.122993,1.698005,-1
19,F,0,1,62,7,1,248,4,3798,1,0.3484158,6.403587,3.009669,-1
19,F,0,1,62,8,2,246,2,1831,1,0.5608381,12.40615,2.563917,-1
19,F,0,1,1,1,6,3,3,3296,0,9.428611,12.26394,50.21887,-1
19,F,0,1,1,2,6,4,4,2065,0,0.4761536,12.40194,2.136433,-1
19,F,0,1,1,3,6,2,2,931,0,2.084163,12.4237,9.40011,-1
19,F,0,1,1,4,7,1,1,1031,0,4.028987,6.374785,38.50632,-1
19,F,0,1,1,5,5,4,4,1153,0,5.337795,6.445464,55.90891,-1
19,F,0,1,1,6,5,1,1,931,0,3.741395,6.392636,34.13949,-1
19,F,0,1,1,7,7,4,4,798,0,5.728682,6.456317,62.53574,-1
19,F,0,1,1,8,8,2,2,865,0,2.323813,12.40719,10.49079,-1
19,F,0,1,1,9,8,3,3,1176,0,8.949231,12.27863,46.78973,-1
19,F,0,1,1,10,6,1,1,1342,0,6.392087,12.27994,31.27766,-1
19,F,0,1,1,11,5,3,3,1842,0,4.307388,6.171956,44.25851,-1
19,F,0,1,1,12,7,2,2,1198,0,3.502969,6.567521,32.23396,-1
19,F,0,1,1,13,7,3,3,576,0,2.840719,6.16292,27.44761,-1
19,F,0,1,1,14,8,1,1,787,0,3.585745,12.3035,16.92617,-1
19,F,0,1,1,15,5,2,2,1509,0,3.652314,6.565574,33.44812,-1
19,F,0,1,1,16,8,4,4,1242,0,3.613559,12.43037,16.61822,-1
19,F,0,1,2,1,6,2,2,1064,0,6.103926,12.41655,29.24911,-1
19,F,0,1,2,2,6,1,1,720,0,2.514145,12.30914,11.78561,-1
19,F,0,1,2,3,7,2,2,875,0,3.123432,6.572438,28.08809,-1
19,F,0,1,2,4,8,4,4,787,0,2.498703,12.41657,11.24917,-1
19,F,0,1,2,5,8,3,3,898,0,7.415926,12.25116,37.25216,-1
19,F,0,1,2,6,8,1,1,976,0,3.742031,12.30267,17.70378,-1
19,F,0,1,2,7,7,3,3,1265,0,4.618896,6.182528,48.33882,-1
19,F,0,1,2,8,5,2,2,686,0,3.496829,6.566076,32.17859,-1
19,F,0,1,2,9,5,3,3,1131,0,4.06294,6.18009,41.1037,-1
19,F,0,1,2,10,7,4,4,787,0,6.002192,6.445538,68.62527,-1
19,F,0,1,2,11,8,2,2,1398,0,2.549851,12.41033,11.65717,-1
19,F,0,1,2,12,6,4,4,842,0,1.074308,12.39637,4.917491,-1
19,F,0,1,2,13,5,1,1,742,0,4.87151,6.414568,49.41526,-1
19,F,0,1,2,14,6,3,3,931,0,5.204985,12.23288,25.15713,-1
19,F,0,1,2,15,7,1,1,1431,0,1.446087,6.372113,12.91549,-1
19,F,0,1,2,16,5,4,4,1198,0,2.230229,6.424172,19.54499,-1
