Age, Gender, Awareness Type, Session, Block, Trial, Set, Pattern, Quadrant, Response Time, Num Mistakes, Distance From Target, Camera Distance From Target, Angle Error (Degrees), FC Response
18,F,0,1,1,1,1,4,4,2387,0,0.2516561,6.410309,2.131021,-1
18,F,0,1,1,2,2,1,1,4298,0,0.627565,12.15176,2.917255,-1
18,F,0,1,1,3,2,3,3,1664,0,0.3634153,12.1375,1.679696,-1
18,F,0,1,1,4,2,4,4,2320,0,0.9067005,12.34036,4.102123,-1
18,F,0,1,1,5,2,2,2,4520,0,0.2290122,12.29976,1.047919,-1
18,F,0,1,1,6,1,1,1,3431,0,0.01763737,6.28752,0.1532334,-1
18,F,0,1,1,7,1,3,3,5509,1,1.452458E-07,6.220507,0,-1
18,F,0,1,1,8,1,2,2,3487,0,0.4297127,6.472781,3.603642,-1
18,F,0,1,2,1,1,5,1,3742,0,8.322584E-08,6.283531,0,-1
18,F,0,1,2,2,1,8,4,2220,0,0.0513632,6.408912,0.4356619,-1
18,F,0,1,2,3,1,6,2,3143,0,1.089749E-07,6.471231,0,-1
18,F,0,1,2,4,2,7,3,1809,0,0.8725014,12.13443,4.06953,-1
18,F,0,1,2,5,2,6,2,4953,0,0.4999599,12.29724,2.283448,-1
18,F,0,1,2,6,1,7,3,3376,0,0.1418098,6.240649,1.25445,-1
18,F,0,1,2,7,2,5,1,2842,0,0.4473943,12.1603,2.06137,-1
18,F,0,1,2,8,2,8,4,3176,0,1.034736,12.34116,4.682241,-1
18,F,0,1,3,1,2,9,1,1753,0,0.2755198,12.17012,1.267795,-1
18,F,0,1,3,2,1,11,3,3265,0,0.5154803,6.215036,4.562268,-1
18,F,0,1,3,3,2,12,4,2087,0,0.5288382,12.443,2.377346,-1
18,F,0,1,3,4,2,10,2,5276,0,0.302297,12.48641,1.368593,-1
18,F,0,1,3,5,1,12,4,5442,1,0.4976539,6.522356,4.186615,-1
18,F,0,1,3,6,1,10,2,2887,0,0.549357,6.571072,4.536348,-1
18,F,0,1,3,7,2,11,3,3576,1,1.684119E-07,12.28279,0,-1
18,F,0,1,3,8,1,9,1,2265,0,0.1979003,6.414544,1.695006,-1
18,F,0,1,4,1,2,14,2,6253,1,0.1462831,12.44918,0.661456,-1
18,F,0,1,4,2,1,15,3,2453,1,0.3018662,6.321608,2.635594,-1
18,F,0,1,4,3,2,13,1,2298,0,0.4493163,12.30721,2.05519,-1
18,F,0,1,4,4,1,14,2,3398,0,5.472931E-08,6.611156,0.01978234,-1
18,F,0,1,4,5,1,13,1,6375,0,0.3423877,6.413996,2.896108,-1
18,F,0,1,4,6,1,16,4,3298,1,0.02875673,6.541585,0.2390311,-1
18,F,0,1,4,7,2,15,3,5220,1,0.6078058,12.29365,2.755556,-1
18,F,0,1,4,8,2,16,4,2287,0,0.2389416,12.52279,1.073561,-1
18,F,0,1,5,1,1,18,2,2631,0,0.2867532,6.620653,2.350603,-1
18,F,0,1,5,2,2,19,3,2809,1,0.4121867,12.30494,1.888963,-1
18,F,0,1,5,3,2,20,4,2687,0,0.2609409,12.51114,1.165836,-1
18,F,0,1,5,4,1,17,1,2642,1,0.5239471,6.383259,4.447877,-1
18,F,0,1,5,5,1,19,3,2031,0,0.4318677,6.379842,3.73984,-1
18,F,0,1,5,6,2,18,2,2598,0,0.9991807,12.43408,4.510974,-1
18,F,0,1,5,7,1,20,4,2142,0,1.258071E-07,6.578704,0,-1
18,F,0,1,5,8,2,17,1,2742,1,0.4260179,12.29215,1.962041,-1
18,F,0,1,6,1,2,24,4,4164,3,0.5570583,12.51624,2.502724,-1
18,F,0,1,6,2,2,21,1,1753,0,0.2423712,12.28978,1.101984,-1
18,F,0,1,6,3,1,24,4,1909,0,0.204827,6.580883,1.683653,-1
18,F,0,1,6,4,1,23,3,4431,0,1.585701E-07,6.369491,0,-1
18,F,0,1,6,5,1,22,2,3553,0,0.03866636,6.619699,0.3202056,-1
18,F,0,1,6,6,2,23,3,8531,0,0.9011863,12.31738,4.080919,-1
18,F,0,1,6,7,2,22,2,1509,0,1.143277E-07,12.42997,0,-1
18,F,0,1,6,8,1,21,1,3942,1,0.3532311,6.371301,3.055629,-1
18,F,0,1,7,1,2,27,3,2042,0,0.8479573,12.30556,3.842367,-1
18,F,0,1,7,2,2,28,4,2165,0,0.4712448,12.51691,2.117016,-1
18,F,0,1,7,3,1,26,2,2742,0,0.2496115,6.623691,2.062699,-1
18,F,0,1,7,4,1,28,4,3376,0,0.3072104,6.585841,2.552823,-1
18,F,0,1,7,5,2,25,1,1487,0,0.05402046,12.30246,0.2462884,-1
18,F,0,1,7,6,2,26,2,1231,1,0.5516554,12.44489,2.513571,-1
18,F,0,1,7,7,1,27,3,3320,0,0.3527505,6.404307,3.042853,-1
18,F,0,1,7,8,1,25,1,2287,1,0.01955041,6.374078,0.1678588,-1
18,F,0,1,8,1,1,31,3,2776,0,0.3555548,6.40256,3.064458,-1
18,F,0,1,8,2,2,32,4,2498,0,0.8381803,12.54022,3.794005,-1
18,F,0,1,8,3,1,29,1,1520,0,0.3970609,6.38098,3.392807,-1
18,F,0,1,8,4,1,30,2,3587,0,0.1611156,6.640292,1.344794,-1
18,F,0,1,8,5,2,29,1,2287,0,0.8631023,12.30245,3.943176,-1
18,F,0,1,8,6,2,30,2,2875,0,0.9014823,12.44145,4.030752,-1
18,F,0,1,8,7,1,32,4,2153,0,0.1094661,6.605275,0.8987461,-1
18,F,0,1,8,8,2,31,3,1476,0,0.6002402,12.32945,2.740312,-1
18,F,0,1,9,1,2,33,1,3331,0,0.7652783,12.29092,3.542487,-1
18,F,0,1,9,2,2,35,3,1464,0,0.1208301,12.33002,0.5485832,-1
18,F,0,1,9,3,1,34,2,3698,0,0.2527858,6.629447,2.069236,-1
18,F,0,1,9,4,1,36,4,2620,1,0.1858053,6.614632,1.522386,-1
18,F,0,1,9,5,2,34,2,3186,1,0.2440774,12.42377,1.106238,-1
18,F,0,1,9,6,1,35,3,2264,0,0.1979107,6.420214,1.699848,-1
18,F,0,1,9,7,1,33,1,4109,1,0.1296465,6.353633,1.117851,-1
18,F,0,1,9,8,2,36,4,1420,0,0.9478056,12.53541,4.223455,-1
18,F,0,1,10,1,2,37,1,2554,1,0.8789989,12.2936,4.018539,-1
18,F,0,1,10,2,1,38,2,2009,0,0.2732439,6.626856,2.25646,-1
18,F,0,1,10,3,2,39,3,2165,2,0.3930952,12.33017,1.77586,-1
18,F,0,1,10,4,1,40,4,2953,0,0.189624,6.621014,1.564981,-1
18,F,0,1,10,5,2,38,2,1587,0,0.7590533,12.43477,3.389227,-1
18,F,0,1,10,6,2,40,4,1198,0,0.7332179,12.54062,3.250103,-1
18,F,0,1,10,7,1,39,3,3841,0,0.07489426,6.419653,0.6437659,-1
18,F,0,1,10,8,1,37,1,3287,0,0.09737463,6.382617,0.8416294,-1
18,F,0,1,11,1,2,44,4,3842,0,0.3789448,12.45978,1.710407,-1
18,F,0,1,11,2,2,41,1,2209,0,0.9888017,12.28161,4.529651,-1
18,F,0,1,11,3,1,43,3,4031,1,0.3464268,6.289315,3.032284,-1
18,F,0,1,11,4,2,42,2,5264,0,0.9436758,12.4377,4.288935,-1
18,F,0,1,11,5,1,41,1,6176,0,0.2377262,6.39926,2.03519,-1
18,F,0,1,11,6,1,42,2,1564,0,0.5048044,6.602381,4.150486,-1
18,F,0,1,11,7,1,44,4,2520,0,0.3521528,6.536228,2.947296,-1
18,F,0,1,11,8,2,43,3,3320,1,0.741744,12.26714,3.371388,-1
18,F,0,1,12,1,1,46,2,2065,0,0.4172941,6.614554,3.418504,-1
18,F,0,1,12,2,2,47,3,3431,1,0.310404,12.2476,1.426973,-1
18,F,0,1,12,3,2,45,1,3053,0,0.1115052,12.28047,0.5093729,-1
18,F,0,1,12,4,2,48,4,2398,1,0.4791076,12.47758,2.143841,-1
18,F,0,1,12,5,1,45,1,8098,0,0.1875607,6.387736,1.611919,-1
18,F,0,1,12,6,2,46,2,2942,0,0.1209868,12.44279,0.5435666,-1
18,F,0,1,12,7,1,48,4,4820,1,2.098527E-07,6.561091,0,-1
18,F,0,1,12,8,1,47,3,3942,2,1.830614E-07,6.32828,0,-1
18,F,0,1,13,1,1,52,4,1709,0,0.3333249,6.557767,2.797084,-1
18,F,0,1,13,2,2,51,3,2342,1,0.1878985,12.27259,0.85638,-1
18,F,0,1,13,3,1,49,1,1653,0,0.2568046,6.391851,2.208948,-1
18,F,0,1,13,4,2,50,2,3353,0,0.05703665,12.4368,0.2564087,-1
18,F,0,1,13,5,1,51,3,2553,0,0.2492473,6.333375,2.172588,-1
18,F,0,1,13,6,2,52,4,2131,1,0.6066387,12.49101,2.708411,-1
18,F,0,1,13,7,2,49,1,4442,0,0.3180064,12.29192,1.449559,-1
18,F,0,1,13,8,1,50,2,2409,0,0.565474,6.627951,4.638781,-1
18,F,0,1,14,1,1,56,4,3320,1,0.285441,6.564448,2.388927,-1
18,F,0,1,14,2,1,55,3,1620,0,3.453843E-07,6.320003,0,-1
18,F,0,1,14,3,1,54,2,1309,0,0.1370384,6.627817,1.131942,-1
18,F,0,1,14,4,2,53,1,1942,0,0.8715299,12.28444,3.980101,-1
18,F,0,1,14,5,2,56,4,1953,0,0.2479097,12.49296,1.116625,-1
18,F,0,1,14,6,1,53,1,3909,0,0.2048694,6.393301,1.766911,-1
18,F,0,1,14,7,2,54,2,2253,0,0.4612155,12.42716,2.073582,-1
18,F,0,1,14,8,2,55,3,1653,0,0.271855,12.27825,1.237646,-1
18,F,0,1,15,1,1,60,4,1942,0,0.390003,6.569469,3.265727,-1
18,F,0,1,15,2,2,57,1,3831,1,0.9693358,12.28333,4.384008,-1
18,F,0,1,15,3,1,58,2,3242,1,0.2453902,6.628068,2.011395,-1
18,F,0,1,15,4,1,59,3,2998,1,0.3385521,6.336354,2.950018,-1
18,F,0,1,15,5,2,58,2,2364,0,0.6901376,12.44358,3.15486,-1
18,F,0,1,15,6,2,60,4,1298,0,0.8536378,12.49469,3.884336,-1
18,F,0,1,15,7,2,59,3,2287,1,0.2708786,12.27445,1.231941,-1
18,F,0,1,15,8,1,57,1,2809,1,0.4552673,6.391269,3.884083,-1
18,F,0,1,16,1,2,64,4,2420,1,0.5955886,12.49419,2.650923,-1
18,F,0,1,16,2,1,62,2,2442,1,1.375537E-07,6.625082,0.01978234,-1
18,F,0,1,16,3,2,61,1,5120,0,0.1238702,12.28694,0.5668277,-1
18,F,0,1,16,4,2,63,3,3064,2,0.7301323,12.28214,3.352228,-1
18,F,0,1,16,5,1,64,4,2586,0,0.09160496,6.569724,0.7659171,-1
18,F,0,1,16,6,1,61,1,3687,0,0.3004582,6.393328,2.57367,-1
18,F,0,1,16,7,1,63,3,2964,1,0.2407838,6.340698,2.096392,-1
18,F,0,1,16,8,2,62,2,2053,0,0.2835482,12.44963,1.26872,-1
18,F,0,1,17,1,4,67,3,2066,1,1.024688,12.23393,4.657156,-1
18,F,0,1,17,2,3,66,2,2377,0,0.1729611,6.555422,1.447668,-1
18,F,0,1,17,3,3,67,3,2810,0,0.3692887,6.286805,3.223369,-1
18,F,0,1,17,4,4,66,2,1520,0,1.281598E-07,12.38189,0,-1
18,F,0,1,17,5,4,65,1,1342,0,0.430779,12.26402,1.973777,-1
18,F,0,1,17,6,3,68,4,2231,0,1.610809E-07,6.486611,0,-1
18,F,0,1,17,7,3,65,1,2509,0,0.133496,6.384884,1.144834,-1
18,F,0,1,17,8,4,68,4,1376,0,0.9107035,12.42213,4.059171,-1
18,F,0,1,18,1,3,69,1,3698,1,0.4049336,6.364428,3.510507,-1
18,F,0,1,18,2,4,72,4,1942,1,0.7863351,12.4403,3.549886,-1
18,F,0,1,18,3,4,70,2,1565,0,0.2659864,12.36361,1.200078,-1
18,F,0,1,18,4,3,71,3,3231,0,0.1723008,6.244655,1.509865,-1
18,F,0,1,18,5,4,69,1,4853,1,0.5745233,12.28341,2.655792,-1
18,F,0,1,18,6,3,70,2,1876,0,0.3033773,6.567089,2.572377,-1
18,F,0,1,18,7,3,72,4,2465,0,1.928182E-07,6.516891,0,-1
18,F,0,1,18,8,4,71,3,2498,1,0.4633469,12.24117,2.107658,-1
18,F,0,1,19,1,3,76,4,2753,0,0.1212994,6.519823,1.006194,-1
18,F,0,1,19,2,3,74,2,2709,0,0.05814261,6.586331,0.4881886,-1
18,F,0,1,19,3,3,75,3,4820,1,0.3678877,6.28603,3.177922,-1
18,F,0,1,19,4,4,73,1,2287,0,0.3036673,12.28855,1.396898,-1
18,F,0,1,19,5,4,74,2,1965,0,0.8052253,12.40612,3.689819,-1
18,F,0,1,19,6,4,76,4,2631,2,0.246323,12.47034,1.101273,-1
18,F,0,1,19,7,4,75,3,1953,0,0.4067215,12.24432,1.855829,-1
18,F,0,1,19,8,3,73,1,1753,0,0.4712379,6.394305,4.034248,-1
18,F,0,1,20,1,3,80,4,2276,1,0.2492485,6.50291,2.085534,-1
18,F,0,1,20,2,4,78,2,2120,0,0.2982516,12.39443,1.342755,-1
18,F,0,1,20,3,4,80,4,2164,1,0.310464,12.43668,1.407504,-1
18,F,0,1,20,4,4,77,1,3564,0,1.026292,12.29526,4.70582,-1
18,F,0,1,20,5,3,79,3,4487,0,0.2686197,6.316893,2.344434,-1
18,F,0,1,20,6,3,77,1,3931,0,3.883017E-08,6.174289,0,-1
18,F,0,1,20,7,4,79,3,3076,0,0.2667593,12.16539,1.224772,-1
18,F,0,1,20,8,3,78,2,1264,0,8.102361E-08,6.475392,0,-1
18,F,0,1,20,1,2,79,3,1953,0,0.130714,12.16995,0.6013339,-1
18,F,0,1,20,2,1,80,4,2776,0,0.0795005,6.468539,0.6717301,-1
18,F,0,1,20,3,1,78,2,2876,1,0.5195288,6.491298,4.449727,-1
18,F,0,1,20,4,2,80,4,5831,0,0.545713,12.38472,2.494577,-1
18,F,0,1,20,5,1,77,1,4209,0,0.5328096,6.293008,4.691227,-1
18,F,0,1,20,6,2,78,2,4376,1,0.3589874,12.42939,1.632548,-1
18,F,0,1,20,7,2,77,1,1331,0,0.8443088,12.28644,3.851682,-1
18,F,0,1,20,8,1,79,3,4364,1,2.939934E-08,6.307381,0,-1
18,F,0,1,21,1,2,81,1,2188,0,0.4397957,12.27777,2.032592,-1
18,F,0,1,21,2,1,82,2,1898,0,2.885122E-07,6.585496,0,-1
18,F,0,1,21,3,1,81,1,2320,0,0.3020813,6.385518,2.605116,-1
18,F,0,1,21,4,2,84,4,1087,0,0.4622441,12.48381,2.057284,-1
18,F,0,1,21,5,1,83,3,2342,0,0.3096306,6.329028,2.686277,-1
18,F,0,1,21,6,1,84,4,1053,0,0.4458565,6.546415,3.764368,-1
18,F,0,1,21,7,2,82,2,898,0,0.2052209,12.41827,0.9268292,-1
18,F,0,1,21,8,2,83,3,2687,0,0.6940316,12.27508,3.196105,-1
18,F,0,1,22,1,2,85,1,987,0,0.2402019,12.27449,1.09289,-1
18,F,0,1,22,2,1,88,4,1442,0,2.685835E-07,6.535878,0,-1
18,F,0,1,22,3,2,87,3,1776,1,0.8565646,12.27961,3.952353,-1
18,F,0,1,22,4,2,88,4,1865,0,0.6797303,12.47344,3.097246,-1
18,F,0,1,22,5,1,86,2,1587,0,0.3449574,6.596114,2.894891,-1
18,F,0,1,22,6,1,87,3,2042,0,6.917987E-08,6.340106,0,-1
18,F,0,1,22,7,1,85,1,6065,0,0.06859759,6.369844,0.5898349,-1
18,F,0,1,22,8,2,86,2,2642,1,0.2073829,12.40852,0.9427382,-1
18,F,0,1,23,1,2,92,4,942,0,0.2839709,12.47752,1.270108,-1
18,F,0,1,23,2,2,90,2,1065,0,0.2530821,12.4153,1.136256,-1
18,F,0,1,23,3,2,91,3,1776,0,0.07974777,12.27357,0.3642322,-1
18,F,0,1,23,4,1,89,1,1920,0,0.3941325,6.38398,3.344217,-1
18,F,0,1,23,5,1,91,3,2398,0,0.1312067,6.340826,1.142096,-1
18,F,0,1,23,6,2,89,1,1376,0,0.2609056,12.27712,1.19714,-1
18,F,0,1,23,7,1,92,4,2565,0,1.115848E-07,6.543404,0,-1
18,F,0,1,23,8,1,90,2,1409,0,3.937171E-08,6.593923,0,-1
18,F,0,1,24,1,2,95,3,1342,0,0.9582845,12.26983,4.450254,-1
18,F,0,1,24,2,2,94,2,2820,0,0.2543414,12.4171,1.141753,-1
18,F,0,1,24,3,2,93,1,2276,0,0.8351542,12.27759,3.81998,-1
18,F,0,1,24,4,1,95,3,4454,2,0.03624457,6.338943,0.3140353,-1
18,F,0,1,24,5,1,96,4,2087,0,0.3710212,6.535076,3.053643,-1
18,F,0,1,24,6,1,93,1,1487,0,0.2390438,6.373034,2.03211,-1
18,F,0,1,24,7,1,94,2,1454,0,3.324109E-08,6.586285,0,-1
18,F,0,1,24,8,2,96,4,2487,0,0.4692206,12.47481,2.125872,-1
18,F,0,1,25,1,2,97,1,2131,2,0.09476892,12.27721,0.4325065,-1
18,F,0,1,25,2,2,98,2,853,0,0.749802,12.41252,3.402372,-1
18,F,0,1,25,3,2,99,3,2076,0,0.03331523,12.27603,0.1519511,-1
18,F,0,1,25,4,2,100,4,5598,0,0.3528476,12.48219,1.594096,-1
18,F,0,1,25,5,1,97,1,1820,0,0.1306225,6.382027,1.109064,-1
18,F,0,1,25,6,1,98,2,1798,0,0.05734712,6.585592,0.4760123,-1
18,F,0,1,25,7,1,99,3,2009,0,0.2405364,6.34043,2.09228,-1
18,F,0,1,25,8,1,100,4,1820,0,1.769086E-07,6.530177,0,-1
18,F,0,1,26,1,1,103,3,1020,0,0.2383872,6.341288,2.075563,-1
18,F,0,1,26,2,1,104,4,1820,1,0.08348282,6.541492,0.7002546,-1
18,F,0,1,26,3,2,103,3,2887,0,0.1158546,12.27469,0.5311863,-1
18,F,0,1,26,4,1,102,2,2042,1,0.382695,6.584867,3.184076,-1
18,F,0,1,26,5,1,101,1,4109,0,0.376195,6.381584,3.253053,-1
18,F,0,1,26,6,2,104,4,1931,0,0.557319,12.46411,2.526077,-1
18,F,0,1,26,7,2,101,1,1376,1,0.1254172,12.28374,0.5723243,-1
18,F,0,1,26,8,2,102,2,1465,0,0.2810694,12.41806,1.26114,-1
18,F,0,1,27,1,1,105,1,820,0,0.3313867,6.389432,2.810837,-1
18,F,0,1,27,2,1,106,2,1087,0,8.966418E-08,6.595844,0,-1
18,F,0,1,27,3,1,108,4,1876,0,0.005707358,6.544145,0.04845664,-1
18,F,0,1,27,4,1,107,3,3142,0,1.284881E-07,6.339158,0,-1
18,F,0,1,27,5,2,108,4,1465,0,0.2024883,12.48495,0.9048218,-1
18,F,0,1,27,6,2,106,2,964,0,0.8268595,12.41319,3.704912,-1
18,F,0,1,27,7,2,107,3,1265,0,0.7502832,12.2837,3.405018,-1
18,F,0,1,27,8,2,105,1,3465,0,0.4689718,12.28443,2.166724,-1
18,F,0,1,28,1,1,110,2,2198,0,0.03211167,6.599319,0.2668786,-1
18,F,0,1,28,2,1,111,3,2731,0,0.02034346,6.344255,0.1769387,-1
18,F,0,1,28,3,1,112,4,1276,0,1.138703E-07,6.552404,0,-1
18,F,0,1,28,4,2,111,3,1598,0,0.8551887,12.27199,3.940344,-1
18,F,0,1,28,5,2,109,1,1309,0,0.6513875,12.28207,3.013439,-1
18,F,0,1,28,6,2,112,4,2520,1,0.08708577,12.48482,0.3906707,-1
18,F,0,1,28,7,2,110,2,2131,0,0.01115755,12.42397,0.04845664,-1
18,F,0,1,28,8,1,109,1,2620,0,0.2113385,6.383759,1.793624,-1
18,F,0,1,29,1,1,115,3,3109,0,0.1899186,6.416875,1.624376,-1
18,F,0,1,29,2,1,114,2,1908,0,0.08246521,6.539951,0.688134,-1
18,F,0,1,29,3,2,113,1,1353,0,0.2576252,12.21308,1.177859,-1
18,F,0,1,29,4,1,116,4,1542,0,1.452308E-07,6.552724,0,-1
18,F,0,1,29,5,2,114,2,953,0,0.2118891,12.34927,0.960423,-1
18,F,0,1,29,6,2,115,3,1230,0,0.2078691,12.25832,0.9581792,-1
18,F,0,1,29,7,2,116,4,1098,0,0.6856082,12.47766,3.067714,-1
18,F,0,1,29,8,1,113,1,1476,0,0.4221275,6.280404,3.636581,-1
18,F,0,1,30,1,2,118,2,1265,0,0.3617204,12.33682,1.630149,-1
18,F,0,1,30,2,1,117,1,1009,0,0.3702679,6.277938,3.247813,-1
18,F,0,1,30,3,2,119,3,5320,0,0.09370991,12.26131,0.4302385,-1
18,F,0,1,30,4,1,120,4,2409,0,0.3802889,6.56498,3.115396,-1
18,F,0,1,30,5,1,118,2,1020,0,0.412184,6.579896,3.460853,-1
18,F,0,1,30,6,2,120,4,2609,0,1.060705,12.47756,4.783072,-1
18,F,0,1,30,7,1,119,3,3776,3,0.04159338,6.4034,0.358274,-1
18,F,0,1,30,8,2,117,1,1387,0,0.5628095,12.1833,2.622714,-1
18,F,0,1,31,1,1,122,2,1642,0,0.1983077,6.533248,1.653156,-1
18,F,0,1,31,2,1,124,4,2653,1,0.04896083,6.574495,0.4039677,-1
18,F,0,1,31,3,1,123,3,2142,0,0.08116317,6.400847,0.6943616,-1
18,F,0,1,31,4,2,124,4,3142,1,2.422304E-07,12.47781,0,-1
18,F,0,1,31,5,2,122,2,2487,1,0.4385461,12.32874,2.011395,-1
18,F,0,1,31,6,1,121,1,3598,1,0.458494,6.267085,4.0219,-1
18,F,0,1,31,7,2,123,3,1298,0,0.5317578,12.28755,2.450244,-1
18,F,0,1,31,8,2,121,1,1687,1,0.9451327,12.22965,4.309662,-1
18,F,0,1,32,1,2,127,3,1131,0,0.2128873,12.29068,0.9775878,-1
18,F,0,1,32,2,1,128,4,1531,0,1.255136E-08,6.586154,0,-1
18,F,0,1,32,3,2,126,2,3109,0,0.5332928,12.37588,2.436385,-1
18,F,0,1,32,4,1,125,1,3109,1,0.4283773,6.288275,3.690986,-1
18,F,0,1,32,5,2,128,4,1698,0,0.5007424,12.5018,2.251772,-1
18,F,0,1,32,6,2,125,1,1431,0,0.5380581,12.23081,2.465851,-1
18,F,0,1,32,7,1,126,2,2987,0,0.1803618,6.574784,1.521743,-1
18,F,0,1,32,8,1,127,3,2409,0,0.04196542,6.418002,0.360452,-1
18,F,0,1,33,1,2,129,1,2687,1,0.5962911,12.24107,2.731225,-1
18,F,0,1,33,2,2,130,2,2231,0,0.4038232,12.36207,1.845678,-1
18,F,0,1,33,3,1,132,4,1720,0,0.02180724,6.582687,0.1802258,-1
18,F,0,1,33,4,1,131,3,1476,0,0.06324345,6.404882,0.5457222,-1
18,F,0,1,33,5,2,132,4,2131,0,0.3740982,12.49442,1.685744,-1
18,F,0,1,33,6,2,131,3,1165,0,0.7882885,12.29142,3.632325,-1
18,F,0,1,33,7,1,129,1,3098,3,0.1940185,6.27929,1.695121,-1
18,F,0,1,33,8,1,130,2,1742,0,0.2120256,6.567347,1.787941,-1
18,F,0,1,34,1,2,136,4,1509,0,0.3002064,12.4959,1.350312,-1
18,F,0,1,34,2,1,135,3,2642,0,0.5061367,6.411218,4.337883,-1
18,F,0,1,34,3,1,136,4,1131,0,0.3833351,6.586298,3.141117,-1
18,F,0,1,34,4,1,134,2,3354,0,0.4623993,6.556662,3.921863,-1
18,F,0,1,34,5,1,133,1,1309,0,0.3290825,6.285211,2.883169,-1
18,F,0,1,34,6,2,135,3,1942,1,0.326656,12.29101,1.482265,-1
18,F,0,1,34,7,2,133,1,1220,0,0.9262319,12.23699,4.308072,-1
18,F,0,1,34,8,2,134,2,1798,0,0.03656411,12.36946,0.165511,-1
18,F,0,1,35,1,1,139,3,3131,1,0.4836959,6.423199,4.138011,-1
18,F,0,1,35,2,1,137,1,5620,2,0.3107685,6.295246,2.716349,-1
18,F,0,1,35,3,2,140,4,2453,0,0.7852755,12.51625,3.555452,-1
18,F,0,1,35,4,2,138,2,2054,0,0.7930737,12.3753,3.596082,-1
18,F,0,1,35,5,2,139,3,1942,0,0.5211251,12.30538,2.361983,-1
18,F,0,1,35,6,1,140,4,1298,0,0.01272758,6.592629,0.1046783,-1
18,F,0,1,35,7,1,138,2,2676,2,0.366806,6.570867,3.057038,-1
18,F,0,1,35,8,2,137,1,1342,0,0.8954701,12.06698,4.207008,-1
18,F,0,1,37,1,4,148,4,1342,0,0.5698805,12.48151,2.550292,-1
18,F,0,1,37,2,4,145,1,6331,1,0.6098045,12.28758,2.826393,-1
18,F,0,1,37,3,4,147,3,2564,0,1.030372,12.27187,4.703863,-1
18,F,0,1,37,4,3,146,2,1709,0,0.426819,6.60972,3.614276,-1
18,F,0,1,37,5,3,148,4,1920,0,0.02583463,6.546114,0.2158,-1
18,F,0,1,37,6,3,145,1,3498,1,0.3754855,6.413913,3.245401,-1
18,F,0,1,37,7,3,147,3,1453,0,0.3361881,6.345338,2.926233,-1
18,F,0,1,37,8,4,146,2,1076,0,0.7841405,12.41795,3.565571,-1
18,F,0,1,38,1,4,149,1,1853,2,0.6184646,12.28662,2.866896,-1
18,F,0,1,38,2,4,152,4,7587,2,0.4096721,12.48256,1.85878,-1
18,F,0,1,38,3,3,150,2,1820,0,0.001405226,6.594452,0.01978234,-1
18,F,0,1,38,4,3,152,4,1298,0,0.4629779,6.555098,3.841399,-1
18,F,0,1,38,5,4,151,3,4209,2,0.6955546,12.27785,3.184015,-1
18,F,0,1,38,6,3,149,1,2720,1,0.3216531,6.399134,2.791409,-1
18,F,0,1,38,7,4,150,2,2876,0,0.2544341,12.40766,1.155044,-1
18,F,0,1,38,8,3,151,3,1676,1,0.3930455,6.365741,3.391768,-1
18,F,0,1,39,1,4,154,2,5220,1,0.5106018,12.42212,2.331458,-1
18,F,0,1,39,2,3,156,4,1076,0,0.5078661,6.548748,4.218026,-1
18,F,0,1,39,3,3,155,3,2142,0,0.1741718,6.371666,1.501026,-1
18,F,0,1,39,4,3,153,1,3976,1,6.382088E-08,6.390484,0,-1
18,F,0,1,39,5,3,154,2,2987,0,0.08807826,6.613279,0.7391344,-1
18,F,0,1,39,6,4,153,1,8453,0,0.45978,12.30244,2.115721,-1
18,F,0,1,39,7,4,156,4,9663,3,0.4933545,12.47493,2.229497,-1
18,F,0,1,39,8,4,155,3,8165,2,0.9239059,12.34477,4.232025,-1
18,F,0,1,40,1,4,160,4,1820,0,0.2388875,12.47933,1.071737,-1
18,F,0,1,40,2,3,159,3,3142,1,0.1801416,6.324147,1.546363,-1
18,F,0,1,40,3,3,157,1,1376,0,0.2424381,6.364037,2.093589,-1
18,F,0,1,40,4,3,158,2,1065,0,0.2950402,6.593881,2.476149,-1
18,F,0,1,40,5,4,157,1,5942,1,0.5418816,12.28405,2.511702,-1
18,F,0,1,40,6,4,158,2,1631,1,0.9089724,12.40886,4.148126,-1
18,F,0,1,40,7,3,160,4,3664,0,0.08770598,6.54842,0.7324861,-1
18,F,0,1,40,8,4,159,3,2298,1,0.9901298,12.3079,4.541139,-1
18,F,0,1,41,1,1,161,1,1720,0,0.4892606,6.364328,4.253858,-1
18,F,0,1,41,2,1,164,4,1842,0,0.01379029,6.539261,0.1136409,-1
18,F,0,1,41,3,1,162,2,1209,0,0.04469432,6.575227,0.3732531,-1
18,F,0,1,41,4,2,163,3,3320,3,0.7215733,12.24846,3.339589,-1
18,F,0,1,41,5,2,162,2,3398,0,0.515178,12.34658,2.331122,-1
18,F,0,1,41,6,2,164,4,4709,0,0.5764692,12.44709,2.620997,-1
18,F,0,1,41,7,2,161,1,2842,0,0.02888184,12.22811,0.132704,-1
18,F,0,1,41,8,1,163,3,5587,5,1.781592E-07,6.350721,0,-1
18,F,0,1,42,1,2,168,4,1842,0,0.01396428,12.45668,0.06255726,-1
18,F,0,1,42,2,2,165,1,2720,1,0.5615878,12.21607,2.558567,-1
18,F,0,1,42,3,2,167,3,1731,0,0.129068,12.24759,0.5898349,-1
18,F,0,1,42,4,2,166,2,7798,6,0.2654891,12.36742,1.211439,-1
18,F,0,1,42,5,1,167,3,4376,2,0.08961808,6.362291,0.7775803,-1
18,F,0,1,42,6,1,166,2,1365,0,0.1513967,6.543437,1.26625,-1
18,F,0,1,42,7,1,165,1,3631,0,0.2738626,6.327734,2.367529,-1
18,F,0,1,42,8,1,168,4,1265,0,0.04848781,6.516871,0.4039677,-1
18,F,0,1,43,1,2,170,2,3387,0,0.06044074,12.37461,0.2741124,-1
18,F,0,1,43,2,2,171,3,4842,0,0.7126158,12.25957,3.249079,-1
18,F,0,1,43,3,1,172,4,2009,0,6.530478E-08,6.539667,0,-1
18,F,0,1,43,4,2,169,1,3264,0,0.738754,12.25955,3.351527,-1
18,F,0,1,43,5,2,172,4,3665,1,0.7658375,12.46728,3.429654,-1
18,F,0,1,43,6,1,169,1,2909,1,0.08457314,6.344195,0.7276617,-1
18,F,0,1,43,7,1,171,3,1587,0,0.3653205,6.353617,3.176628,-1
18,F,0,1,43,8,1,170,2,1765,0,7.993587E-08,6.562981,0,-1
18,F,0,1,44,1,2,176,4,1542,0,0.4854828,12.47894,2.171687,-1
18,F,0,1,44,2,2,174,2,2865,0,2.799044E-07,12.38018,0,-1
18,F,0,1,44,3,1,176,4,2043,0,0.2167798,6.53983,1.79144,-1
18,F,0,1,44,4,1,175,3,2976,0,0.1363323,6.371657,1.174532,-1
18,F,0,1,44,5,1,173,1,4098,0,0.4240159,6.3392,3.692418,-1
18,F,0,1,44,6,2,175,3,3198,1,0.6690633,12.27582,3.055501,-1
18,F,0,1,44,7,1,174,2,2587,0,3.22019E-08,6.561021,0,-1
18,F,0,1,44,8,2,173,1,2931,2,0.6510712,12.23848,2.983407,-1
18,F,0,1,45,1,2,180,4,2476,0,0.8299649,12.48447,3.757027,-1
18,F,0,1,45,2,2,177,1,998,0,0.3810527,12.29406,1.736411,-1
18,F,0,1,45,3,1,179,3,2353,1,0.2754724,6.372979,2.387205,-1
18,F,0,1,45,4,1,178,2,1398,0,0.1523387,6.588748,1.278707,-1
18,F,0,1,45,5,1,180,4,2165,0,1.225035E-07,6.546167,0,-1
18,F,0,1,45,6,2,179,3,1465,0,0.3330353,12.30039,1.509865,-1
18,F,0,1,45,7,2,178,2,1098,0,0.7056373,12.42681,3.20943,-1
18,F,0,1,45,8,1,177,1,4320,3,0.1126946,6.367325,0.9697499,-1
18,F,0,1,46,1,1,182,2,1765,0,8.082413E-08,6.580184,0,-1
18,F,0,1,46,2,2,183,3,4853,0,0.1096971,12.30238,0.5004597,-1
18,F,0,1,46,3,1,184,4,2109,0,9.374159E-08,6.549934,0,-1
18,F,0,1,46,4,1,181,1,1609,0,0.3148896,6.37833,2.702912,-1
18,F,0,1,46,5,2,184,4,3176,1,0.5674099,12.49238,2.559867,-1
18,F,0,1,46,6,1,183,3,2620,0,0.4173554,6.368672,3.62531,-1
18,F,0,1,46,7,2,181,1,1098,0,0.6371135,12.27999,2.950814,-1
18,F,0,1,46,8,2,182,2,1631,0,0.4865961,12.45147,2.172678,-1
18,F,0,1,47,1,1,188,4,5042,2,0.5211447,6.565148,4.354467,-1
18,F,0,1,47,2,1,186,2,4776,3,0.4716624,6.590974,3.887309,-1
18,F,0,1,47,3,1,185,1,1898,0,0.3187779,6.377411,2.73015,-1
18,F,0,1,47,4,1,187,3,2220,1,0.170834,6.381381,1.474986,-1
18,F,0,1,47,5,2,186,2,1165,0,0.2528026,12.43367,1.148418,-1
18,F,0,1,47,6,2,185,1,2098,0,0.6141467,12.29936,2.801978,-1
18,F,0,1,47,7,2,188,4,8542,0,0.1305923,12.57164,0.5851721,-1
18,F,0,1,47,8,2,187,3,2876,0,1.902155E-07,12.34875,0,-1
18,F,0,1,48,1,1,192,4,4542,0,0.08512049,6.585284,0.699975,-1
18,F,0,1,48,2,2,191,3,1476,0,1.047596,12.31118,4.737227,-1
18,F,0,1,48,3,2,192,4,3098,1,0.7671169,12.53659,3.442361,-1
18,F,0,1,48,4,1,189,1,4131,1,1.226054E-07,6.38236,0,-1
18,F,0,1,48,5,2,190,2,1387,0,0.1396131,12.43661,0.6308707,-1
18,F,0,1,48,6,2,189,1,2098,0,0.4901514,12.33542,2.218232,-1
18,F,0,1,48,7,1,190,2,2109,1,0.365348,6.623066,3.020771,-1
18,F,0,1,48,8,1,191,3,1887,0,0.4425053,6.412382,3.813413,-1
18,F,0,1,49,1,2,196,4,2153,0,0.6512925,12.53093,2.929776,-1
18,F,0,1,49,2,1,194,2,1120,0,0.02114517,6.630959,0.1735894,-1
18,F,0,1,49,3,2,193,1,2631,0,0.1881856,12.32158,0.8568369,-1
18,F,0,1,49,4,2,195,3,1942,0,0.7129959,12.34061,3.267405,-1
18,F,0,1,49,5,1,196,4,2798,0,0.217663,6.593409,1.832483,-1
18,F,0,1,49,6,1,193,1,5765,1,0.2922741,6.41407,2.515128,-1
18,F,0,1,49,7,2,194,2,887,0,0.1996598,12.45993,0.8954742,-1
18,F,0,1,49,8,1,195,3,2542,0,0.3096635,6.392815,2.674373,-1
18,F,0,1,50,1,2,200,4,2031,0,0.5090404,12.52842,2.259494,-1
18,F,0,1,50,2,2,197,1,1120,0,0.9065679,12.33086,4.157747,-1
18,F,0,1,50,3,1,199,3,2476,0,0.3970751,6.395202,3.435016,-1
18,F,0,1,50,4,1,197,1,3531,0,0.4053945,6.420167,3.486892,-1
18,F,0,1,50,5,2,198,2,1198,0,0.2936552,12.4646,1.312837,-1
18,F,0,1,50,6,1,200,4,2109,0,1.405179E-07,6.586161,0,-1
18,F,0,1,50,7,2,199,3,1331,0,0.7156017,12.33134,3.287357,-1
18,F,0,1,50,8,1,198,2,4676,3,0.1986527,6.614182,1.630749,-1
18,F,0,1,51,1,2,201,1,1098,0,0.1611888,12.32313,0.7362165,-1
18,F,0,1,51,2,2,204,4,931,0,0.4656789,12.52894,2.091064,-1
18,F,0,1,51,3,1,202,2,1909,1,1.268997E-07,6.620879,0,-1
18,F,0,1,51,4,2,203,3,1220,0,1.19371E-07,12.33532,0.01978234,-1
18,F,0,1,51,5,1,204,4,1809,0,0.2500909,6.593997,2.082811,-1
18,F,0,1,51,6,2,202,2,886,0,0.5420069,12.45841,2.454474,-1
18,F,0,1,51,7,1,201,1,3020,0,0.2094917,6.414228,1.793842,-1
18,F,0,1,51,8,1,203,3,2698,0,0.1857025,6.376743,1.599243,-1
18,F,0,1,52,1,1,206,2,1276,0,0.4461728,6.606584,3.713517,-1
18,F,0,1,52,2,1,208,4,3376,0,0.03924533,6.574778,0.3256589,-1
18,F,0,1,52,3,2,206,2,3153,0,0.3143691,12.42953,1.42615,-1
18,F,0,1,52,4,1,205,1,2265,0,0.3115835,6.375756,2.687588,-1
18,F,0,1,52,5,1,207,3,2665,0,0.308423,6.376408,2.656676,-1
18,F,0,1,52,6,2,208,4,1320,0,0.5894288,12.52066,2.668878,-1
18,F,0,1,52,7,2,205,1,1531,0,1.053343,12.29049,4.824382,-1
18,F,0,1,52,8,2,207,3,1864,1,0.6876767,12.3156,3.112818,-1
18,F,0,1,53,1,2,209,1,1153,1,0.489213,12.28942,2.243761,-1
18,F,0,1,53,2,1,211,3,1687,0,0.006719899,6.384897,0.05595291,-1
18,F,0,1,53,3,2,212,4,2165,0,0.7658061,12.52315,3.455418,-1
18,F,0,1,53,4,2,210,2,1342,0,0.7186838,12.42478,3.285153,-1
18,F,0,1,53,5,2,211,3,1065,0,4.434051E-08,12.31819,0,-1
18,F,0,1,53,6,1,209,1,2887,0,0.2960877,6.373359,2.514739,-1
18,F,0,1,53,7,1,210,2,2965,0,0.2342226,6.610714,1.939771,-1
18,F,0,1,53,8,1,212,4,2253,0,0.2813681,6.586205,2.306305,-1
18,F,0,1,54,1,2,214,2,1064,0,0.3377175,12.43349,1.512585,-1
18,F,0,1,54,2,1,213,1,1587,1,0.3948027,6.37045,3.383272,-1
18,F,0,1,54,3,2,216,4,2065,0,0.6502824,12.5195,2.921144,-1
18,F,0,1,54,4,2,215,3,2009,0,0.3205484,12.30509,1.471932,-1
18,F,0,1,54,5,1,216,4,2309,0,0.1399734,6.587483,1.158765,-1
18,F,0,1,54,6,1,214,2,1153,0,1.733527E-07,6.605947,0,-1
18,F,0,1,54,7,2,213,1,3231,2,0.8032854,12.28627,3.643252,-1
18,F,0,1,54,8,1,215,3,2265,0,0.1369618,6.390838,1.18068,-1
18,F,0,1,55,1,2,217,1,3609,0,0.135163,12.30075,0.6148488,-1
18,F,0,1,55,2,1,218,2,1442,0,0.03111194,6.606349,0.2586879,-1
18,F,0,1,55,3,2,220,4,1820,0,0.2087239,12.52362,0.9392031,-1
18,F,0,1,55,4,1,217,1,4465,0,0.5055722,6.377152,4.391507,-1
18,F,0,1,55,5,2,219,3,6209,1,0.4375668,12.31618,2.004084,-1
18,F,0,1,55,6,2,218,2,1176,0,1.205159E-07,12.43083,0,-1
18,F,0,1,55,7,1,219,3,3031,0,1.217288E-07,6.417638,0,-1
18,F,0,1,55,8,1,220,4,1842,0,0.2774802,6.594735,2.282762,-1
18,F,0,1,56,1,2,221,1,1064,0,0.4109358,12.29152,1.873357,-1
18,F,0,1,56,2,2,224,4,1176,0,0.6382156,12.5256,2.865598,-1
18,F,0,1,56,3,2,223,3,1220,0,0.3328168,12.32183,1.528287,-1
18,F,0,1,56,4,1,222,2,1309,0,0.2668867,6.610512,2.21072,-1
18,F,0,1,56,5,1,221,1,1309,0,8.88527E-08,6.377331,0,-1
18,F,0,1,56,6,1,223,3,1531,0,0.2339076,6.403783,2.017515,-1
18,F,0,1,56,7,1,224,4,3687,0,0.005562598,6.594643,0.04423466,-1
18,F,0,1,56,8,2,222,2,3998,3,0.954218,12.41468,4.356625,-1
18,F,0,1,57,1,4,228,4,2333,1,0.6738446,12.53129,3.037895,-1
18,F,0,1,57,2,4,226,2,1321,0,0.8624361,12.44588,3.942083,-1
18,F,0,1,57,3,4,227,3,3076,1,0.8277503,12.33922,3.809869,-1
18,F,0,1,57,4,4,225,1,842,0,0.9543355,12.33802,4.397925,-1
18,F,0,1,57,5,3,227,3,2120,0,0.2630914,6.393756,2.269434,-1
18,F,0,1,57,6,3,226,2,1476,0,2.457021E-07,6.611166,0,-1
18,F,0,1,57,7,3,228,4,3231,0,0.1449483,6.600833,1.19763,-1
18,F,0,1,57,8,3,225,1,2820,0,0.2811371,6.433628,2.419456,-1
18,F,0,1,58,1,4,230,2,3876,0,0.4760344,12.45467,2.165459,-1
18,F,0,1,58,2,3,232,4,4342,0,1.351232E-07,6.605192,0,-1
18,F,0,1,58,3,3,230,2,3309,0,0.1912294,6.633812,1.583256,-1
18,F,0,1,58,4,4,231,3,3609,1,0.2652837,12.31024,1.22029,-1
18,F,0,1,58,5,4,229,1,2365,1,0.8416575,12.32291,3.821313,-1
18,F,0,1,58,6,4,232,4,1676,0,0.3444132,12.50453,1.529695,-1
18,F,0,1,58,7,3,229,1,2731,0,0.4435066,6.372548,3.824182,-1
18,F,0,1,58,8,3,231,3,2598,0,0.5125288,6.362537,4.432084,-1
18,F,0,1,59,1,4,233,1,898,0,0.9453756,12.34537,4.285006,-1
18,F,0,1,59,2,4,235,3,9999,0,-1,-1,-1,-1
18,F,0,1,59,3,3,233,1,1953,1,0.2468513,6.390317,2.120711,-1
18,F,0,1,59,4,3,235,3,2487,0,2.303678E-07,6.395435,0,-1
18,F,0,1,59,5,3,236,4,2353,0,0.133714,6.596369,1.114871,-1
18,F,0,1,59,6,3,234,2,2831,0,0.05475746,6.64384,0.4524074,-1
18,F,0,1,59,7,4,236,4,4965,0,0.3056372,12.50432,1.37814,-1
18,F,0,1,59,8,4,234,2,1587,0,0.3973849,12.46457,1.804827,-1
18,F,0,1,60,1,4,239,3,2342,0,0.2272467,12.2658,1.039105,-1
18,F,0,1,60,2,4,237,1,1531,1,0.5653789,12.35162,2.574279,-1
18,F,0,1,60,3,3,240,4,1909,0,0.01467908,6.571101,0.1219466,-1
18,F,0,1,60,4,3,238,2,1565,0,0.1826461,6.628808,1.532251,-1
18,F,0,1,60,5,3,237,1,3365,0,4.975048E-08,6.406312,0,-1
18,F,0,1,60,6,4,240,4,4453,3,0.7886018,12.55315,3.550107,-1
18,F,0,1,60,7,3,239,3,1187,0,4.60928E-08,6.426472,0,-1
18,F,0,1,60,8,4,238,2,2698,0,0.4219638,12.41763,1.919894,-1
18,F,0,1,61,1,2,241,1,3020,0,0.3690733,11.93517,1.722947,-1
18,F,0,1,61,2,1,243,3,2776,0,0.131405,6.157061,1.169188,-1
18,F,0,1,61,3,1,241,1,1542,0,0.02232711,6.077485,0.2007689,-1
18,F,0,1,61,4,2,244,4,2298,0,0.5007214,12.18922,2.308511,-1
18,F,0,1,61,5,2,242,2,1898,0,0.1419519,12.08693,0.659382,-1
18,F,0,1,61,6,2,243,3,2353,1,1.280893E-07,11.9701,0,-1
18,F,0,1,61,7,1,244,4,4665,4,0.3211423,6.357481,2.797784,-1
18,F,0,1,61,8,1,242,2,1109,0,0.5306205,6.271212,4.58864,-1
18,F,0,1,62,1,1,245,1,1854,0,4.612341E-08,6.077462,0,-1
18,F,0,1,62,2,1,247,3,2920,0,0.5011669,6.14548,4.449374,-1
18,F,0,1,62,3,2,245,1,2687,1,0.4579964,11.94589,2.174569,-1
18,F,0,1,62,4,2,246,2,1331,0,0.461872,12.07762,2.135059,-1
18,F,0,1,62,5,2,248,4,2819,1,1.692535E-07,12.18809,0.01978234,-1
18,F,0,1,62,6,1,246,2,3209,1,0.3371736,6.277409,2.911007,-1
18,F,0,1,62,7,1,248,4,2398,0,0.4603268,6.334995,4.001299,-1
18,F,0,1,62,8,2,247,3,4676,1,0.8781723,11.96123,4.16758,-1
18,F,0,1,1,1,5,4,4,6308,0,1.764742,6.569013,14.93798,-1
18,F,0,1,1,2,6,2,2,3287,0,7.536763,12.39581,37.44567,-1
18,F,0,1,1,3,7,4,4,5187,0,6.03021,6.571761,66.57686,-1
18,F,0,1,1,4,7,2,2,3020,0,1.121564,6.606103,9.294261,-1
18,F,0,1,1,5,5,1,1,1109,0,1.672273,6.366876,14.36633,-1
18,F,0,1,1,6,8,4,4,1076,0,2.643435,12.4979,12.00395,-1
18,F,0,1,1,7,8,1,1,1142,0,5.798689,12.33224,27.77622,-1
18,F,0,1,1,8,7,3,3,298,0,5.953111,6.451621,67.31689,-1
18,F,0,1,1,9,7,1,1,931,0,6.390861,6.420944,84.45038,-1
18,F,0,1,1,10,5,3,3,1220,0,2.997802,6.452541,27.68384,-1
18,F,0,1,1,11,6,1,1,854,0,1.188006,12.24615,5.513737,-1
18,F,0,1,1,12,8,3,3,1120,0,0.7172354,12.27017,3.252271,-1
18,F,0,1,1,13,6,4,4,1042,0,9.605301,12.47769,50.33573,-1
18,F,0,1,1,14,8,2,2,676,0,2.558756,12.41353,11.53452,-1
18,F,0,1,1,15,6,3,3,765,0,5.426276,12.35008,26.06378,-1
18,F,0,1,1,16,5,2,2,442,0,4.550899,6.565407,43.88103,-1
18,F,0,1,2,1,6,4,4,887,0,8.914692,12.49283,45.52733,-1
18,F,0,1,2,2,5,1,1,887,0,6.041518,6.376822,71.33281,-1
18,F,0,1,2,3,8,3,3,887,0,4.383169,12.31472,20.8504,-1
18,F,0,1,2,4,7,1,1,865,0,5.4968,6.389357,59.35059,-1
18,F,0,1,2,5,7,3,3,853,0,5.122873,6.401248,52.83721,-1
18,F,0,1,2,6,7,2,2,820,0,2.861904,6.687054,24.77435,-1
18,F,0,1,2,7,8,1,1,509,0,4.89542,12.35868,23.11895,-1
18,F,0,1,2,8,6,2,2,742,0,3.68856,12.43716,17.10554,-1
18,F,0,1,2,9,7,4,4,987,0,5.457694,6.607515,55.68825,-1
18,F,0,1,2,10,6,1,1,731,0,6.708689,12.30932,33.02526,-1
18,F,0,1,2,11,8,4,4,1031,0,8.897664,12.52649,45.02137,-1
18,F,0,1,2,12,8,2,2,920,0,8.210122,12.44716,40.97282,-1
18,F,0,1,2,13,5,3,3,642,0,5.93175,6.443278,67.0155,-1
18,F,0,1,2,14,5,4,4,453,0,2.087483,6.589239,17.71113,-1
18,F,0,1,2,15,6,3,3,1053,0,7.019044,12.34462,34.65204,-1
18,F,0,1,2,16,5,2,2,809,0,2.266865,6.607592,19.27875,-1
