Age, Gender, Awareness Type, Session, Block, Trial, Set, Pattern, Quadrant, Response Time, Num Mistakes, Distance From Target, Camera Distance From Target, Angle Error (Degrees), FC Response
19,F,0,1,1,1,1,1,1,3776,0,0.3046018,6.052765,2.721173,-1
19,F,0,1,1,2,2,4,4,8242,2,0.7063994,12.26544,3.202224,-1
19,F,0,1,1,3,2,2,2,5953,2,0.8935468,12.25978,4.054247,-1
19,F,0,1,1,4,1,4,4,9999,4,-1,-1,-1,-1
19,F,0,1,1,5,2,3,3,2709,0,0.8701619,12.07611,4.042347,-1
19,F,0,1,1,6,2,1,1,2398,0,0.8169265,12.12491,3.815877,-1
19,F,0,1,1,7,1,2,2,8664,3,0.05626746,6.541606,0.4693892,-1
19,F,0,1,1,8,1,3,3,3342,0,0.2515127,6.122619,2.213904,-1
19,F,0,1,2,1,1,8,4,4553,1,0.3040296,6.530974,2.542066,-1
19,F,0,1,2,2,1,7,3,3776,0,0.06840073,6.137484,0.6065179,-1
19,F,0,1,2,3,1,5,1,2442,0,0.2422626,6.105528,2.192853,-1
19,F,0,1,2,4,2,8,4,4631,1,0.978785,12.26744,4.438444,-1
19,F,0,1,2,5,2,6,2,8598,3,0.5421858,12.30136,2.451042,-1
19,F,0,1,2,6,2,5,1,3042,0,0.4920235,12.21284,2.244807,-1
19,F,0,1,2,7,1,6,2,4976,2,0.4892771,6.547063,4.080487,-1
19,F,0,1,2,8,2,7,3,5065,0,0.7010453,12.04532,3.285808,-1
19,F,0,1,3,1,2,9,1,3564,0,0.3215683,12.11089,1.500113,-1
19,F,0,1,3,2,1,12,4,3431,0,0.5425428,6.438076,4.602578,-1
19,F,0,1,3,3,2,11,3,2376,0,0.728837,12.04742,3.426456,-1
19,F,0,1,3,4,1,9,1,3131,0,0.07392871,6.055436,0.6696879,-1
19,F,0,1,3,5,2,12,4,6487,1,0.301007,12.34819,1.360131,-1
19,F,0,1,3,6,1,10,2,4087,0,0.1686711,6.533305,1.414577,-1
19,F,0,1,3,7,1,11,3,4364,0,0.197988,6.110439,1.748317,-1
19,F,0,1,3,8,2,10,2,3509,1,0.525937,12.29241,2.386878,-1
19,F,0,1,4,1,1,15,3,4631,0,7.596368E-09,6.097431,0.01978234,-1
19,F,0,1,4,2,2,16,4,3987,0,0.9336239,12.30242,4.221507,-1
19,F,0,1,4,3,2,14,2,1931,0,0.9327256,12.27851,4.255745,-1
19,F,0,1,4,4,2,15,3,2231,0,0.3719575,12.11129,1.722833,-1
19,F,0,1,4,5,1,14,2,5131,1,0.2209145,6.542541,1.839198,-1
19,F,0,1,4,6,2,13,1,3665,1,0.3769064,12.12169,1.751224,-1
19,F,0,1,4,7,1,16,4,3431,0,0.2000107,6.430285,1.697198,-1
19,F,0,1,4,8,1,13,1,6731,0,4.424542E-08,6.060524,0,-1
19,F,0,1,5,1,2,20,4,5453,2,0.2132576,12.25313,0.9685385,-1
19,F,0,1,5,2,1,18,2,4231,2,0.4593926,6.515756,3.865739,-1
19,F,0,1,5,3,2,17,1,2531,0,0.5669048,12.1013,2.62905,-1
19,F,0,1,5,4,1,19,3,5453,0,0.2967044,6.016238,2.669172,-1
19,F,0,1,5,5,1,17,1,3098,0,0.05276429,6.051015,0.477244,-1
19,F,0,1,5,6,1,20,4,3509,0,0.2890109,6.41744,2.444245,-1
19,F,0,1,5,7,2,19,3,3053,0,0.5609436,12.03129,2.642344,-1
19,F,0,1,5,8,2,18,2,4276,2,0.6650987,12.23812,3.042403,-1
19,F,0,1,6,1,2,24,4,9999,5,-1,-1,-1,-1
19,F,0,1,6,2,2,21,1,1831,0,0.2056408,12.09485,0.9534706,-1
19,F,0,1,6,3,2,23,3,2776,0,0.6487992,12.03105,3.036929,-1
19,F,0,1,6,4,1,22,2,3942,0,0.392368,6.485907,3.296872,-1
19,F,0,1,6,5,1,21,1,2987,0,1.029576E-07,6.040349,0,-1
19,F,0,1,6,6,2,22,2,3987,0,0.6165196,12.22838,2.812299,-1
19,F,0,1,6,7,1,23,3,3420,0,0.511431,6.043625,4.56746,-1
19,F,0,1,6,8,1,24,4,5431,1,0.5137088,6.388567,4.375601,-1
19,F,0,1,7,1,1,25,1,3031,0,1.586457E-07,6.046331,0,-1
19,F,0,1,7,2,1,27,3,3353,0,7.359576E-08,6.021876,0,-1
19,F,0,1,7,3,1,26,2,4664,1,0.2943543,6.464537,2.498262,-1
19,F,0,1,7,4,2,25,1,6931,0,1.771204E-07,12.10329,0,-1
19,F,0,1,7,5,2,26,2,2286,0,0.6875116,12.23941,3.132191,-1
19,F,0,1,7,6,1,28,4,9165,6,0.1734885,6.492156,1.481737,-1
19,F,0,1,7,7,2,27,3,3831,0,0.02571199,12.04567,0.1203313,-1
19,F,0,1,7,8,2,28,4,4642,0,0.0743681,12.23693,0.339197,-1
19,F,0,1,8,1,1,29,1,2664,0,0.09212454,6.055233,0.8341562,-1
19,F,0,1,8,2,2,30,2,3520,0,0.6510039,12.20792,2.973943,-1
19,F,0,1,8,3,1,31,3,2387,0,0.5131804,6.025318,4.596744,-1
19,F,0,1,8,4,2,32,4,5531,1,0.7143899,12.21251,3.25209,-1
19,F,0,1,8,5,2,29,1,1798,0,0.07504988,12.11116,0.3471792,-1
19,F,0,1,8,6,1,32,4,5020,0,0.2617218,6.424747,2.204869,-1
19,F,0,1,8,7,1,30,2,4287,0,0.1964235,6.490216,1.650194,-1
19,F,0,1,8,8,2,31,3,4242,0,0.4304601,12.03378,2.006328,-1
19,F,0,1,9,1,2,33,1,2687,0,0.2426291,12.1049,1.127091,-1
19,F,0,1,9,2,1,35,3,4031,0,1.136875E-07,6.020631,0,-1
19,F,0,1,9,3,1,33,1,3098,0,0.1457347,6.03383,1.320565,-1
19,F,0,1,9,4,2,34,2,1909,0,0.2206739,12.2351,1.007748,-1
19,F,0,1,9,5,1,36,4,4153,0,0.318442,6.420351,2.706892,-1
19,F,0,1,9,6,1,34,2,2476,0,0.2188032,6.481599,1.840475,-1
19,F,0,1,9,7,2,36,4,2442,0,1.02967,12.22509,4.685336,-1
19,F,0,1,9,8,2,35,3,3253,0,0.3820403,12.03669,1.780153,-1
19,F,0,1,10,1,1,38,2,2309,0,0.153905,6.490592,1.299955,-1
19,F,0,1,10,2,1,39,3,2976,0,0.2207159,6.042132,1.967619,-1
19,F,0,1,10,3,2,37,1,1831,0,1.438562E-07,12.10169,0,-1
19,F,0,1,10,4,1,40,4,3087,0,0.2937964,6.394978,2.506397,-1
19,F,0,1,10,5,2,39,3,2765,0,0.5584532,12.03515,2.602485,-1
19,F,0,1,10,6,2,40,4,3331,0,0.8958156,12.21336,4.078856,-1
19,F,0,1,10,7,1,37,1,2687,0,0.2508933,6.03709,2.271158,-1
19,F,0,1,10,8,2,38,2,2653,0,0.4033481,12.22287,1.849597,-1
19,F,0,1,11,1,2,43,3,5131,0,0.3063899,12.03184,1.429303,-1
19,F,0,1,11,2,2,44,4,4442,1,0.7684717,12.22964,3.493847,-1
19,F,0,1,11,3,1,41,1,3487,0,0.1071266,6.049231,0.9731742,-1
19,F,0,1,11,4,1,43,3,4776,0,0.03611624,6.032301,0.3250574,-1
19,F,0,1,11,5,2,42,2,3409,1,0.4897002,12.21745,2.238871,-1
19,F,0,1,11,6,1,44,4,4031,1,0.252472,6.414395,2.147763,-1
19,F,0,1,11,7,1,42,2,2731,0,0.1485917,6.494637,1.244584,-1
19,F,0,1,11,8,2,41,1,1865,0,0.2067676,12.10362,0.9549061,-1
19,F,0,1,12,1,1,48,4,3942,1,0.4726905,6.4331,4.012443,-1
19,F,0,1,12,2,1,45,1,1853,0,0.5160416,6.047756,4.628551,-1
19,F,0,1,12,3,1,47,3,3587,0,0.3443035,6.028145,3.077971,-1
19,F,0,1,12,4,2,45,1,2020,0,0.1180953,12.09921,0.5471546,-1
19,F,0,1,12,5,2,46,2,8320,0,0.3013951,12.25321,1.381119,-1
19,F,0,1,12,6,2,48,4,4175,2,0.9478431,12.23262,4.309753,-1
19,F,0,1,12,7,1,46,2,4220,0,0.3421724,6.488346,2.857938,-1
19,F,0,1,12,8,2,47,3,3431,0,0.5525849,12.04357,2.573062,-1
19,F,0,1,13,1,1,50,2,2998,0,0.4743548,6.477988,4.02039,-1
19,F,0,1,13,2,2,51,3,2598,0,0.4809747,12.03764,2.241579,-1
19,F,0,1,13,3,2,49,1,2142,0,0.2709175,12.09636,1.265323,-1
19,F,0,1,13,4,1,51,3,3098,0,0.3843199,6.023417,3.441166,-1
19,F,0,1,13,5,2,52,4,3509,2,0.2475921,12.22781,1.129865,-1
19,F,0,1,13,6,2,50,2,1631,0,0.3203516,12.23461,1.455891,-1
19,F,0,1,13,7,1,49,1,2887,0,0.287488,6.057676,2.574811,-1
19,F,0,1,13,8,1,52,4,4376,3,0.06664734,6.391351,0.5661368,-1
19,F,0,1,14,1,1,54,2,4098,0,1.482542E-07,6.494047,0,-1
19,F,0,1,14,2,2,53,1,2031,0,0.09785463,12.10974,0.4532716,-1
19,F,0,1,14,3,2,54,2,2598,0,0.8665302,12.24245,3.947296,-1
19,F,0,1,14,4,1,55,3,4076,2,0.404411,6.057885,3.602175,-1
19,F,0,1,14,5,2,56,4,3331,0,0.3944854,12.25031,1.789691,-1
19,F,0,1,14,6,1,53,1,2009,0,0.3205959,6.05789,2.880112,-1
19,F,0,1,14,7,2,55,3,2931,0,0.5666635,12.04934,2.638563,-1
19,F,0,1,14,8,1,56,4,4098,1,0.3558335,6.430469,3.00433,-1
19,F,0,1,15,1,1,58,2,2531,0,1.415921E-07,6.494168,0,-1
19,F,0,1,15,2,2,57,1,1553,0,0.5889047,12.10085,2.748514,-1
19,F,0,1,15,3,2,59,3,2165,0,0.5114609,12.03137,2.38302,-1
19,F,0,1,15,4,2,60,4,2742,0,0.8128382,12.23637,3.677061,-1
19,F,0,1,15,5,2,58,2,2609,0,0.2443217,12.24324,1.125875,-1
19,F,0,1,15,6,1,57,1,3097,1,0.06599999,6.036301,0.5954478,-1
19,F,0,1,15,7,1,60,4,3076,0,3.643702E-07,6.430354,0,-1
19,F,0,1,15,8,1,59,3,2342,0,0.1292019,6.035894,1.166507,-1
19,F,0,1,16,1,2,64,4,2520,0,0.3594745,12.23536,1.651024,-1
19,F,0,1,16,2,1,62,2,2787,0,0.1334755,6.489692,1.120823,-1
19,F,0,1,16,3,1,64,4,2076,0,0.2560105,6.431377,2.172318,-1
19,F,0,1,16,4,2,62,2,2865,0,0.2238231,12.24622,1.027363,-1
19,F,0,1,16,5,1,61,1,5775,0,0.2634679,6.038643,2.371163,-1
19,F,0,1,16,6,1,63,3,3453,0,0.19993,6.03324,1.804502,-1
19,F,0,1,16,7,2,61,1,1409,0,0.60185,12.10349,2.814247,-1
19,F,0,1,16,8,2,63,3,1720,0,0.06210509,12.03051,0.2900664,-1
19,F,0,1,17,1,4,65,1,2353,1,0.05021792,12.11276,0.2315465,-1
19,F,0,1,17,2,3,66,2,4320,0,0.4356301,6.507858,3.633457,-1
19,F,0,1,17,3,3,68,4,3820,0,0.2633065,6.448898,2.224928,-1
19,F,0,1,17,4,3,67,3,2542,0,0.2902526,6.045892,2.599852,-1
19,F,0,1,17,5,4,68,4,1665,0,0.7336125,12.26027,3.330255,-1
19,F,0,1,17,6,4,67,3,1831,0,0.6121779,12.05602,2.855539,-1
19,F,0,1,17,7,3,65,1,4109,0,0.16937,6.09805,1.545224,-1
19,F,0,1,17,8,4,66,2,1453,0,0.5285984,12.2638,2.409647,-1
19,F,0,1,18,1,3,69,1,2209,0,0.0027955,6.073315,0.01978234,-1
19,F,0,1,18,2,4,72,4,1331,0,0.6009423,12.25462,2.72333,-1
19,F,0,1,18,3,3,71,3,3109,0,0.1733566,6.037786,1.564856,-1
19,F,0,1,18,4,3,70,2,4142,1,0.2132221,6.488867,1.776191,-1
19,F,0,1,18,5,4,69,1,2209,0,1.997211E-07,12.12162,0,-1
19,F,0,1,18,6,3,72,4,3698,1,0.4329521,6.497367,3.662174,-1
19,F,0,1,18,7,4,70,2,1709,0,0.5731859,12.25278,2.613293,-1
19,F,0,1,18,8,4,71,3,2909,0,0.4498133,12.01772,2.094243,-1
19,F,0,1,19,1,4,76,4,4331,0,0.7433147,12.25262,3.373072,-1
19,F,0,1,19,2,4,75,3,1709,0,0.3074701,12.02324,1.431628,-1
19,F,0,1,19,3,3,76,4,8009,0,0.1474308,6.452132,1.238595,-1
19,F,0,1,19,4,4,73,1,1309,0,1.179086E-07,12.1612,0,-1
19,F,0,1,19,5,3,75,3,3276,0,0.371644,6.034005,3.357072,-1
19,F,0,1,19,6,4,74,2,2909,0,0.8305454,12.24217,3.813978,-1
19,F,0,1,19,7,3,73,1,5265,0,0.4721272,6.110108,4.288067,-1
19,F,0,1,19,8,3,74,2,1776,0,0.3455713,6.491373,2.87746,-1
19,F,0,1,20,1,3,80,4,4198,2,0.2028015,6.446641,1.714064,-1
19,F,0,1,20,2,3,79,3,3331,0,0.08408023,6.087705,0.760533,-1
19,F,0,1,20,3,4,78,2,4164,2,0.4640043,12.29102,2.134326,-1
19,F,0,1,20,4,4,80,4,4709,0,0.6658706,12.29364,3.020576,-1
19,F,0,1,20,5,3,78,2,4431,0,0.136165,6.477976,1.143808,-1
19,F,0,1,20,6,4,77,1,1731,0,0.6104174,12.09533,2.838557,-1
19,F,0,1,20,7,4,79,3,9999,0,-1,-1,-1,-1
19,F,0,1,20,8,3,77,1,6831,1,1.378877E-07,6.197653,0,-1
19,F,0,1,20,1,1,80,4,3787,0,0.2368339,6.503533,1.987708,-1
19,F,0,1,20,2,1,78,2,1898,0,0.4201101,6.555682,3.499335,-1
19,F,0,1,20,3,1,77,1,3598,1,0.02704162,6.112055,0.2406627,-1
19,F,0,1,20,4,2,80,4,9999,0,-1,-1,-1,-1
19,F,0,1,20,5,2,78,2,1775,0,0.4882039,12.32516,2.233094,-1
19,F,0,1,20,6,2,79,3,2365,0,0.1820224,12.11034,0.8476528,-1
19,F,0,1,20,7,2,77,1,1309,0,0.8206705,12.17284,3.820288,-1
19,F,0,1,20,8,1,79,3,3120,1,0.2167162,6.09972,1.916017,-1
19,F,0,1,21,1,1,84,4,5676,3,0.1664659,6.494458,1.386069,-1
19,F,0,1,21,2,2,83,3,3231,0,0.794675,12.14118,3.698829,-1
19,F,0,1,21,3,1,81,1,4542,0,0.1668943,6.140315,1.496456,-1
19,F,0,1,21,4,1,82,2,2409,0,0.3707887,6.566426,3.100341,-1
19,F,0,1,21,5,2,84,4,4598,0,0.5595058,12.34511,2.519793,-1
19,F,0,1,21,6,2,81,1,1454,0,0.1169381,12.20243,0.5381398,-1
19,F,0,1,21,7,1,83,3,4898,0,0.1893634,6.110631,1.702724,-1
19,F,0,1,21,8,2,82,2,2042,0,0.2294726,12.32471,1.040423,-1
19,F,0,1,22,1,1,87,3,3053,0,0.1011012,6.111575,0.8943809,-1
19,F,0,1,22,2,2,88,4,2364,0,0.6727479,12.33222,3.028214,-1
19,F,0,1,22,3,2,85,1,1365,0,0.1843023,12.19865,0.8488063,-1
19,F,0,1,22,4,2,86,2,2854,0,0.6737763,12.31653,3.051013,-1
19,F,0,1,22,5,1,85,1,1454,0,1.484086E-07,6.122351,0,-1
19,F,0,1,22,6,2,87,3,3320,0,0.9972436,12.14686,4.622834,-1
19,F,0,1,22,7,1,86,2,4865,0,0.2793421,6.56451,2.330282,-1
19,F,0,1,22,8,1,88,4,8442,3,0.2589682,6.516671,2.16555,-1
19,F,0,1,23,1,2,89,1,2265,0,0.2823276,12.19165,1.2986,-1
19,F,0,1,23,2,2,92,4,2398,0,0.9360003,12.32228,4.225542,-1
19,F,0,1,23,3,1,90,2,4787,0,0.2792697,6.574589,2.36132,-1
19,F,0,1,23,4,1,89,1,1931,0,0.5179254,6.129242,4.655894,-1
19,F,0,1,23,5,1,91,3,3042,0,0.3100928,6.108819,2.744095,-1
19,F,0,1,23,6,2,90,2,1686,0,0.5352333,12.32215,2.454394,-1
19,F,0,1,23,7,2,91,3,3265,0,0.7315608,12.12867,3.382867,-1
19,F,0,1,23,8,1,92,4,5442,1,0.0743115,6.531753,0.6208661,-1
19,F,0,1,24,1,1,95,3,6831,0,0.08718815,6.103472,0.7740492,-1
19,F,0,1,24,2,1,96,4,5598,1,0.3742067,6.517485,3.135377,-1
19,F,0,1,24,3,2,95,3,3553,0,0.5473796,12.13436,2.541065,-1
19,F,0,1,24,4,2,94,2,2665,0,0.5809233,12.32473,2.629571,-1
19,F,0,1,24,5,1,93,1,2631,0,0.1693193,6.123792,1.523028,-1
19,F,0,1,24,6,2,96,4,3209,0,0.5273666,12.31862,2.386139,-1
19,F,0,1,24,7,2,93,1,1398,0,0.3146634,12.18519,1.453469,-1
19,F,0,1,24,8,1,94,2,3965,2,0.4613914,6.557366,3.811616,-1
19,F,0,1,25,1,1,100,4,2687,0,0.4992182,6.504024,4.192692,-1
19,F,0,1,25,2,2,99,3,2987,0,1.184561E-07,12.1286,0,-1
19,F,0,1,25,3,2,100,4,3098,0,0.6162021,12.32521,2.779744,-1
19,F,0,1,25,4,1,97,1,1887,0,0.0893454,6.127005,0.7950006,-1
19,F,0,1,25,5,1,99,3,4687,0,0.1563097,6.109628,1.376293,-1
19,F,0,1,25,6,1,98,2,1953,0,6.251297E-08,6.57062,0,-1
19,F,0,1,25,7,2,97,1,1420,0,1.876893E-07,12.18846,0,-1
19,F,0,1,25,8,2,98,2,1598,0,0.709377,12.32915,3.200022,-1
19,F,0,1,26,1,2,103,3,1664,0,0.8314885,12.1318,3.843539,-1
19,F,0,1,26,2,1,104,4,4142,2,0.5544266,6.515693,4.570847,-1
19,F,0,1,26,3,1,101,1,2353,1,7.517473E-08,6.163218,0,-1
19,F,0,1,26,4,1,102,2,2098,0,0.1023959,6.604877,0.8467289,-1
19,F,0,1,26,5,1,103,3,2498,0,0.2403195,6.132665,2.104591,-1
19,F,0,1,26,6,2,101,1,1320,0,0.4572763,12.22942,2.108865,-1
19,F,0,1,26,7,2,102,2,1831,0,2.616927E-07,12.3636,0,-1
19,F,0,1,26,8,2,104,4,2364,0,0.4355836,12.36057,1.959047,-1
19,F,0,1,27,1,1,107,3,2520,0,4.461596E-07,6.129377,0,-1
19,F,0,1,27,2,1,108,4,1731,0,0.2633942,6.536331,2.199981,-1
19,F,0,1,27,3,1,106,2,1576,0,7.20101E-08,6.587127,0,-1
19,F,0,1,27,4,1,105,1,2387,0,0.0669098,6.140411,0.5967609,-1
19,F,0,1,27,5,2,108,4,2153,0,0.2108941,12.35677,0.9493572,-1
19,F,0,1,27,6,2,106,2,2765,0,0.9869681,12.34239,4.493224,-1
19,F,0,1,27,7,2,105,1,1720,0,0.5119922,12.21447,2.347354,-1
19,F,0,1,27,8,2,107,3,2298,0,0.8272191,12.16316,3.812181,-1
19,F,0,1,28,1,2,110,2,1309,0,0.8050079,12.34724,3.647065,-1
19,F,0,1,28,2,1,111,3,3431,0,0.2889445,6.134882,2.541219,-1
19,F,0,1,28,3,1,112,4,3176,1,0.4781034,6.530176,3.99939,-1
19,F,0,1,28,4,1,109,1,1365,0,0.4474824,6.148177,4.024139,-1
19,F,0,1,28,5,2,111,3,1731,0,0.2525584,12.15068,1.173198,-1
19,F,0,1,28,6,2,112,4,9999,0,-1,-1,-1,-1
19,F,0,1,28,7,1,110,2,3708,0,0.416869,6.584281,3.474573,-1
19,F,0,1,28,8,2,109,1,1687,0,0.3385768,12.22061,1.561225,-1
19,F,0,1,29,1,1,114,2,2165,0,0.1603322,6.595474,1.323082,-1
19,F,0,1,29,2,2,116,4,6687,0,0.1577856,12.34036,0.711894,-1
19,F,0,1,29,3,2,114,2,3020,0,0.04184384,12.36074,0.1897456,-1
19,F,0,1,29,4,2,115,3,2287,0,0.5257302,12.16834,2.422043,-1
19,F,0,1,29,5,2,113,1,1376,0,0.580229,12.19913,2.703998,-1
19,F,0,1,29,6,1,115,3,2020,0,0.2846477,6.198224,2.471084,-1
19,F,0,1,29,7,1,116,4,3331,1,0.436568,6.535731,3.648729,-1
19,F,0,1,29,8,1,113,1,1431,0,0.4632636,6.149722,4.10408,-1
19,F,0,1,30,1,2,118,2,3998,0,0.2385687,12.34249,1.080827,-1
19,F,0,1,30,2,1,117,1,3798,0,0.292138,6.146292,2.645083,-1
19,F,0,1,30,3,2,120,4,3053,1,0.8500315,12.35077,3.828275,-1
19,F,0,1,30,4,1,118,2,2309,0,0.4368666,6.57944,3.604403,-1
19,F,0,1,30,5,2,119,3,2242,0,0.6969267,12.16492,3.211503,-1
19,F,0,1,30,6,1,120,4,3287,1,0.4657902,6.535756,3.893198,-1
19,F,0,1,30,7,1,119,3,2398,0,0.4356245,6.129421,3.817724,-1
19,F,0,1,30,8,2,117,1,1398,0,0.2499129,12.2155,1.154875,-1
19,F,0,1,31,1,1,122,2,1753,0,0.1713865,6.58557,1.442522,-1
19,F,0,1,31,2,2,121,1,1587,0,0.1184339,12.2116,0.5446455,-1
19,F,0,1,31,3,1,124,4,3709,1,0.3667441,6.557815,3.05454,-1
19,F,0,1,31,4,1,123,3,3487,0,0.2377824,6.144598,2.076977,-1
19,F,0,1,31,5,2,122,2,1742,0,0.6227844,12.35201,2.812786,-1
19,F,0,1,31,6,2,124,4,3142,0,0.6353288,12.36059,2.858074,-1
19,F,0,1,31,7,2,123,3,3076,0,0.4006439,12.17118,1.847268,-1
19,F,0,1,31,8,1,121,1,3453,0,1.757412E-07,6.149113,0,-1
19,F,0,1,32,1,2,128,4,2798,0,0.8378944,12.34993,3.773668,-1
19,F,0,1,32,2,1,127,3,2665,0,0.2977176,6.144647,2.606018,-1
19,F,0,1,32,3,1,125,1,1442,0,0.393717,6.152522,3.513796,-1
19,F,0,1,32,4,2,127,3,2053,0,0.219234,12.1592,1.012784,-1
19,F,0,1,32,5,2,125,1,1142,0,0.6053789,12.21116,2.811811,-1
19,F,0,1,32,6,2,126,2,1409,0,0.01857282,12.35183,0.08392937,-1
19,F,0,1,32,7,1,128,4,5753,2,0.1610868,6.573714,1.338083,-1
19,F,0,1,32,8,1,126,2,2454,0,0.1312041,6.581784,1.086425,-1
19,F,0,1,33,1,1,132,4,2376,0,0.3725939,6.522782,3.119038,-1
19,F,0,1,33,2,1,130,2,1731,0,0.07557774,6.592654,0.6318005,-1
19,F,0,1,33,3,2,129,1,1187,0,6.34274E-08,12.21476,0,-1
19,F,0,1,33,4,2,132,4,1809,0,0.2569581,12.34582,1.156906,-1
19,F,0,1,33,5,2,131,3,2320,0,1.240095E-07,12.16079,0.01978234,-1
19,F,0,1,33,6,2,130,2,1409,0,0.3931461,12.36054,1.80168,-1
19,F,0,1,33,7,1,131,3,1942,0,0.001663889,6.11998,0,-1
19,F,0,1,33,8,1,129,1,2487,0,0.04607283,6.153532,0.4083038,-1
19,F,0,1,34,1,2,135,3,1853,0,4.554293E-08,12.15263,0,-1
19,F,0,1,34,2,2,133,1,1142,0,0.8799412,12.21195,4.088447,-1
19,F,0,1,34,3,2,134,2,1942,0,0.4951485,12.35034,2.237034,-1
19,F,0,1,34,4,1,136,4,2776,0,0.4034957,6.5271,3.348663,-1
19,F,0,1,34,5,1,135,3,1964,0,0.1741517,6.122346,1.529951,-1
19,F,0,1,34,6,1,134,2,2787,0,0.1688607,6.591317,1.393953,-1
19,F,0,1,34,7,2,136,4,4820,1,0.8294461,12.35257,3.737012,-1
19,F,0,1,34,8,1,133,1,2153,0,0.3356735,6.151457,2.964185,-1
19,F,0,1,35,1,1,140,4,2698,0,0.3045012,6.52508,2.547758,-1
19,F,0,1,35,2,1,138,2,1498,0,1.504949E-07,6.589358,0,-1
19,F,0,1,35,3,2,137,1,1354,0,0.4929482,12.18192,2.274172,-1
19,F,0,1,35,4,2,139,3,3120,0,0.1496312,12.15577,0.6921035,-1
19,F,0,1,35,5,1,137,1,5420,0,0.1152887,6.148306,1.025457,-1
19,F,0,1,35,6,2,140,4,2031,0,0.9013018,12.34965,4.059798,-1
19,F,0,1,35,7,2,138,2,3087,0,0.09869918,12.36162,0.4463111,-1
19,F,0,1,35,8,1,139,3,2398,0,0.3596265,6.118803,3.171077,-1
19,F,0,1,37,1,4,148,4,2009,0,0.351904,12.34824,1.585726,-1
19,F,0,1,37,2,3,145,1,1342,0,1.026979E-07,6.186607,0,-1
19,F,0,1,37,3,3,146,2,5397,0,0.2254188,6.568525,1.865925,-1
19,F,0,1,37,4,4,147,3,2464,0,0.6985151,12.1051,3.221789,-1
19,F,0,1,37,5,4,146,2,1876,0,0.1499037,12.38767,0.6824232,-1
19,F,0,1,37,6,3,147,3,2198,0,0.2017999,6.16747,1.780702,-1
19,F,0,1,37,7,4,145,1,2242,0,0.06680755,12.2669,0.3064671,-1
19,F,0,1,37,8,3,148,4,2776,0,0.5243189,6.535223,4.365966,-1
19,F,0,1,38,1,3,150,2,3464,1,0.5594329,6.565086,4.650295,-1
19,F,0,1,38,2,3,152,4,2320,0,0.3801092,6.531079,3.151694,-1
19,F,0,1,38,3,3,151,3,3731,0,0.434231,6.125532,3.859148,-1
19,F,0,1,38,4,4,149,1,1498,0,0.4916978,12.22717,2.284562,-1
19,F,0,1,38,5,4,151,3,1720,0,0.563078,12.12432,2.62346,-1
19,F,0,1,38,6,4,150,2,1253,0,0.5387444,12.33705,2.476386,-1
19,F,0,1,38,7,4,152,4,3120,0,0.4067097,12.39124,1.830559,-1
19,F,0,1,38,8,3,149,1,1842,0,0.2808883,6.166255,2.469341,-1
19,F,0,1,39,1,3,156,4,3576,0,0.4550996,6.550939,3.819263,-1
19,F,0,1,39,2,3,153,1,1598,0,0.2037348,6.154456,1.80461,-1
19,F,0,1,39,3,4,155,3,2342,0,4.213778E-08,12.13726,0,-1
19,F,0,1,39,4,4,153,1,1287,0,0.1467014,12.25763,0.675796,-1
19,F,0,1,39,5,4,154,2,2176,0,0.06189177,12.38984,0.2797648,-1
19,F,0,1,39,6,3,155,3,4153,0,0.1291738,6.1232,1.152839,-1
19,F,0,1,39,7,3,154,2,2409,0,0.2330737,6.591917,1.939368,-1
19,F,0,1,39,8,4,156,4,5453,0,0.5722831,12.32383,2.570398,-1
19,F,0,1,40,1,3,158,2,3009,1,0.15194,6.593326,1.254762,-1
19,F,0,1,40,2,4,159,3,3787,0,0.6183699,12.19398,2.855128,-1
19,F,0,1,40,3,4,158,2,8965,0,0.837456,12.3817,3.817108,-1
19,F,0,1,40,4,3,157,1,8765,0,0.2180326,6.0672,1.987807,-1
19,F,0,1,40,5,4,160,4,5064,2,0.5115287,12.40173,2.292003,-1
19,F,0,1,40,6,3,159,3,2731,0,0.4545273,6.181958,3.976803,-1
19,F,0,1,40,7,4,157,1,2320,0,0.65727,12.26505,3.010969,-1
19,F,0,1,40,8,3,160,4,4598,0,0.5228735,6.595815,4.36049,-1
19,F,0,1,41,1,2,162,2,1965,0,0.9204,12.53842,4.163677,-1
19,F,0,1,41,2,2,164,4,2587,0,0.04896774,12.53483,0.2185032,-1
19,F,0,1,41,3,2,161,1,1442,0,0.2211238,12.40442,1.001906,-1
19,F,0,1,41,4,1,162,2,1954,0,0.3573036,6.752231,2.894621,-1
19,F,0,1,41,5,1,161,1,1965,0,0.465873,6.318372,4.044672,-1
19,F,0,1,41,6,2,163,3,3265,0,1.043926,12.35232,4.747306,-1
19,F,0,1,41,7,1,164,4,3376,0,0.4459149,6.712844,3.631355,-1
19,F,0,1,41,8,1,163,3,5309,0,0.2589071,6.279542,2.214258,-1
19,F,0,1,42,1,1,168,4,6787,1,1.568434E-07,6.727035,0,-1
19,F,0,1,42,2,1,166,2,2087,0,0.1205625,6.75737,0.9739782,-1
19,F,0,1,42,3,2,167,3,3142,0,0.3312107,12.34747,1.507011,-1
19,F,0,1,42,4,1,165,1,2653,0,6.922881E-08,6.313335,0,-1
19,F,0,1,42,5,1,167,3,3787,0,0.2799602,6.264494,2.429064,-1
19,F,0,1,42,6,2,166,2,7065,1,0.7705262,12.53147,3.447135,-1
19,F,0,1,42,7,2,165,1,1342,0,0.366138,12.40432,1.656467,-1
19,F,0,1,42,8,2,168,4,2220,0,1.04488,12.53445,4.64009,-1
19,F,0,1,43,1,1,171,3,5042,1,0.1707399,6.278086,1.464735,-1
19,F,0,1,43,2,1,172,4,4942,1,0.4892838,6.717082,3.982658,-1
19,F,0,1,43,3,2,170,2,2020,0,0.6025879,12.53585,2.682266,-1
19,F,0,1,43,4,1,169,1,1865,0,0.1153487,6.319775,0.9960293,-1
19,F,0,1,43,5,2,171,3,3087,0,0.5780723,12.34877,2.63039,-1
19,F,0,1,43,6,1,170,2,6731,1,0.2812479,6.758552,2.258974,-1
19,F,0,1,43,7,2,172,4,3465,0,0.4258924,12.54098,1.894549,-1
19,F,0,1,43,8,2,169,1,1553,0,0.2792875,12.40477,1.272571,-1
19,F,0,1,44,1,1,174,2,2109,0,0.09147222,6.763234,0.7391344,-1
19,F,0,1,44,2,2,175,3,2909,0,0.5682936,12.35033,2.595029,-1
19,F,0,1,44,3,2,173,1,1630,0,0.3435627,12.40481,1.562853,-1
19,F,0,1,44,4,2,174,2,1542,0,0.2850907,12.53789,1.275335,-1
19,F,0,1,44,5,1,176,4,6665,2,0.2428557,6.726353,1.966624,-1
19,F,0,1,44,6,1,175,3,6031,1,0.2082359,6.281136,1.79733,-1
19,F,0,1,44,7,2,176,4,5898,2,0.132751,12.5521,0.589503,-1
19,F,0,1,44,8,1,173,1,1442,0,0.481269,6.331062,4.158076,-1
19,F,0,1,45,1,2,178,2,2876,0,0.004226403,12.30291,0.01978234,-1
19,F,0,1,45,2,1,177,1,1476,0,0.1406172,6.081943,1.27134,-1
19,F,0,1,45,3,2,179,3,1909,0,0.2519935,12.04699,1.175698,-1
19,F,0,1,45,4,2,180,4,3487,0,0.9415643,12.24831,4.275947,-1
19,F,0,1,45,5,1,178,2,1998,0,0.1953657,6.470709,1.639247,-1
19,F,0,1,45,6,2,177,1,1287,0,0.2960471,12.0983,1.383808,-1
19,F,0,1,45,7,1,179,3,2176,0,0.131911,6.053726,1.184982,-1
19,F,0,1,45,8,1,180,4,3331,0,0.3176099,6.444415,2.690718,-1
19,F,0,1,46,1,2,182,2,1576,0,0.5369339,12.25114,2.436466,-1
19,F,0,1,46,2,2,184,4,2887,1,0.4976183,12.55607,2.204425,-1
19,F,0,1,46,3,2,181,1,1642,0,0.08343611,12.39933,0.3779418,-1
19,F,0,1,46,4,1,182,2,1665,0,0.3586766,6.752011,2.916181,-1
19,F,0,1,46,5,2,183,3,2153,0,0.3687024,12.35048,1.682025,-1
19,F,0,1,46,6,1,181,1,2776,0,0.1461966,6.320254,1.261916,-1
19,F,0,1,46,7,1,183,3,2698,0,0.4402298,6.301498,3.755098,-1
19,F,0,1,46,8,1,184,4,1831,0,0.4582499,6.738854,3.718575,-1
19,F,0,1,47,1,2,186,2,1387,0,0.5480624,12.53235,2.44096,-1
19,F,0,1,47,2,1,187,3,2876,0,0.2669261,6.311233,2.281905,-1
19,F,0,1,47,3,1,188,4,2353,0,0.5776125,6.738991,4.689055,-1
19,F,0,1,47,4,1,185,1,1631,0,0.194483,6.31564,1.679114,-1
19,F,0,1,47,5,1,186,2,2098,0,0.4909803,6.745392,3.968965,-1
19,F,0,1,47,6,2,188,4,3109,0,0.609352,12.56174,2.738096,-1
19,F,0,1,47,7,2,185,1,1209,0,0.03759254,12.39847,0.1701742,-1
19,F,0,1,47,8,2,187,3,2331,0,0.6201776,12.36022,2.853894,-1
19,F,0,1,48,1,1,190,2,1565,0,0.4293467,6.746726,3.470964,-1
19,F,0,1,48,2,1,191,3,2120,0,0.3066312,6.321057,2.649593,-1
19,F,0,1,48,3,2,190,2,1131,0,0.8868115,12.53614,3.981871,-1
19,F,0,1,48,4,1,192,4,2531,0,0.251208,6.741858,2.009155,-1
19,F,0,1,48,5,2,189,1,1109,0,0.1438365,12.41066,0.6504185,-1
19,F,0,1,48,6,2,191,3,1976,0,0.3979914,12.36949,1.805477,-1
19,F,0,1,48,7,2,192,4,3798,2,0.2815542,12.57454,1.245212,-1
19,F,0,1,48,8,1,189,1,1531,0,1.476325E-07,6.302937,0,-1
19,F,0,1,49,1,2,195,3,1854,0,0.4924114,12.37154,2.234233,-1
19,F,0,1,49,2,2,196,4,3676,1,0.3946887,12.57173,1.751113,-1
19,F,0,1,49,3,1,195,3,4598,0,0.3319988,6.303602,2.905488,-1
19,F,0,1,49,4,1,194,2,2598,0,0.4673952,6.741585,3.748051,-1
19,F,0,1,49,5,2,193,1,1165,0,0.4414147,12.40158,1.9882,-1
19,F,0,1,49,6,1,196,4,2476,0,0.3772086,6.749625,3.002766,-1
19,F,0,1,49,7,1,193,1,1554,0,0.1100244,6.311061,0.957975,-1
19,F,0,1,49,8,2,194,2,1387,0,0.3423084,12.55923,1.539895,-1
19,F,0,1,50,1,2,200,4,3287,0,0.08605599,12.57497,0.3820612,-1
19,F,0,1,50,2,1,197,1,1776,0,0.1105012,6.322325,0.9606267,-1
19,F,0,1,50,3,2,198,2,3620,1,0.3846034,12.55611,1.736298,-1
19,F,0,1,50,4,1,199,3,2987,0,0.2744831,6.322268,2.334729,-1
19,F,0,1,50,5,1,198,2,1587,0,0.2515352,6.766515,2.019939,-1
19,F,0,1,50,6,2,199,3,7376,0,0.343848,12.3602,1.56423,-1
19,F,0,1,50,7,2,197,1,1298,0,0.4533675,12.4101,2.059091,-1
19,F,0,1,50,8,1,200,4,2887,0,0.4381636,6.747503,3.477108,-1
19,F,0,1,51,1,1,203,3,2887,0,0.09161654,6.325201,0.7855918,-1
19,F,0,1,51,2,2,201,1,1987,0,0.3454952,12.39876,1.569351,-1
19,F,0,1,51,3,1,202,2,3353,0,0.3278135,6.758073,2.629943,-1
19,F,0,1,51,4,1,201,1,1387,0,0.1133385,6.316232,0.9795874,-1
19,F,0,1,51,5,2,204,4,2720,0,0.5390511,12.57311,2.398493,-1
19,F,0,1,51,6,2,203,3,2809,1,0.9788368,12.35053,4.507673,-1
19,F,0,1,51,7,1,204,4,2987,1,0.4314656,6.755808,3.487285,-1
19,F,0,1,51,8,2,202,2,2665,0,0.8775829,12.54452,3.89345,-1
19,F,0,1,52,1,1,207,3,3653,1,0.4392355,6.320185,3.750297,-1
19,F,0,1,52,2,1,205,1,1598,0,0.08014017,6.334201,0.6909717,-1
19,F,0,1,52,3,1,208,4,1909,0,0.1741206,6.748124,1.407226,-1
19,F,0,1,52,4,1,206,2,3553,0,0.4779261,6.766331,3.879543,-1
19,F,0,1,52,5,2,207,3,2087,0,0.4904369,12.35564,2.251772,-1
19,F,0,1,52,6,2,206,2,1320,0,0.8394297,12.54867,3.732398,-1
19,F,0,1,52,7,2,205,1,1431,0,0.8059822,12.40012,3.688386,-1
19,F,0,1,52,8,2,208,4,3087,1,0.7365973,12.57669,3.258826,-1
19,F,0,1,53,1,1,210,2,1598,0,0.446631,6.75899,3.630977,-1
19,F,0,1,53,2,1,209,1,1554,0,0.004454331,6.316224,0.03956468,-1
19,F,0,1,53,3,2,210,2,2776,0,1.042497,12.53901,4.66325,-1
19,F,0,1,53,4,1,211,3,2620,0,0.2308493,6.317816,1.972487,-1
19,F,0,1,53,5,2,212,4,2365,0,0.7216581,12.57985,3.191875,-1
19,F,0,1,53,6,2,209,1,1131,0,0.2036472,12.40362,0.923021,-1
19,F,0,1,53,7,1,212,4,1442,0,0.4246753,6.749683,3.44054,-1
19,F,0,1,53,8,2,211,3,1965,0,0.5303854,12.36504,2.420264,-1
19,F,0,1,54,1,2,216,4,1631,0,0.7873572,12.57093,3.491829,-1
19,F,0,1,54,2,1,214,2,2431,0,0.4210195,6.75434,3.410132,-1
19,F,0,1,54,3,1,216,4,3031,1,0.4087996,6.75291,3.310324,-1
19,F,0,1,54,4,2,213,1,1165,0,7.12945E-08,12.40868,0,-1
19,F,0,1,54,5,1,215,3,2865,0,0.1563233,6.314688,1.338668,-1
19,F,0,1,54,6,1,213,1,1342,0,0.06008153,6.32267,0.5192646,-1
19,F,0,1,54,7,2,215,3,2287,0,0.3527692,12.36919,1.611677,-1
19,F,0,1,54,8,2,214,2,1209,0,0.2273033,12.54643,1.0201,-1
19,F,0,1,55,1,2,220,4,3298,0,0.6381682,12.57822,2.871195,-1
19,F,0,1,55,2,2,218,2,1298,0,0.1936421,12.55553,0.866827,-1
19,F,0,1,55,3,1,220,4,1609,0,0.02484696,6.755316,0.2007689,-1
19,F,0,1,55,4,1,217,1,1587,0,0.1029383,6.33341,0.8875727,-1
19,F,0,1,55,5,2,219,3,2476,0,1.08578E-07,12.36561,0,-1
19,F,0,1,55,6,1,218,2,1465,0,0.3661767,6.769662,2.930377,-1
19,F,0,1,55,7,1,219,3,2520,0,0.3073064,6.31347,2.616363,-1
19,F,0,1,55,8,2,217,1,1253,0,0.6422954,12.40262,2.929642,-1
19,F,0,1,56,1,2,222,2,1242,0,0.4385046,12.54414,1.957647,-1
19,F,0,1,56,2,2,221,1,1220,0,0.356705,12.40197,1.619913,-1
19,F,0,1,56,3,1,224,4,3142,0,0.2748879,6.753932,2.213462,-1
19,F,0,1,56,4,2,223,3,2031,0,0.4307314,12.36856,1.954847,-1
19,F,0,1,56,5,1,222,2,1831,0,0.457901,6.758237,3.696181,-1
19,F,0,1,56,6,2,224,4,3164,0,0.8591701,12.56891,3.810331,-1
19,F,0,1,56,7,1,223,3,3042,0,0.318041,6.316892,2.709278,-1
19,F,0,1,56,8,1,221,1,1731,0,0.2032851,6.324085,1.782899,-1
19,F,0,1,57,1,3,226,2,1609,0,0.3097058,6.433733,2.591028,-1
19,F,0,1,57,2,3,228,4,5942,3,0.3394453,6.690668,2.727496,-1
19,F,0,1,57,3,3,225,1,4731,0,0.02427993,6.33311,0.2093567,-1
19,F,0,1,57,4,4,228,4,2942,0,1.053717,12.5523,4.677469,-1
19,F,0,1,57,5,4,226,2,1931,1,0.1830957,12.53172,0.8158936,-1
19,F,0,1,57,6,3,227,3,2765,0,0.0925246,6.292609,0.8057577,-1
19,F,0,1,57,7,4,225,1,1353,0,0.3527558,12.41497,1.600222,-1
19,F,0,1,57,8,4,227,3,2287,0,0.9298201,12.36273,4.296144,-1
19,F,0,1,58,1,3,232,4,2820,0,0.4559583,6.743149,3.648568,-1
19,F,0,1,58,2,3,231,3,1865,0,0.3513649,6.305958,3.015582,-1
19,F,0,1,58,3,4,230,2,2553,1,0.6925617,12.56395,3.084578,-1
19,F,0,1,58,4,4,232,4,3587,0,0.6942804,12.60931,3.078289,-1
19,F,0,1,58,5,3,229,1,2609,0,0.4022394,6.37382,3.466506,-1
19,F,0,1,58,6,3,230,2,4642,0,0.5509486,6.716292,4.402109,-1
19,F,0,1,58,7,4,231,3,5542,0,0.04618695,12.31776,0.2102893,-1
19,F,0,1,58,8,4,229,1,1354,0,0.1670613,12.39578,0.7551107,-1
19,F,0,1,59,1,3,236,4,3487,0,0.4818751,6.719466,3.842112,-1
19,F,0,1,59,2,4,234,2,1620,0,0.9288177,12.52959,4.180342,-1
19,F,0,1,59,3,3,233,1,1831,0,8.784512E-08,6.333711,0,-1
19,F,0,1,59,4,3,234,2,2309,0,0.1916198,6.729804,1.544083,-1
19,F,0,1,59,5,4,235,3,1820,0,0.5451103,12.34452,2.472351,-1
19,F,0,1,59,6,4,233,1,2487,0,0.22517,12.4136,1.023547,-1
19,F,0,1,59,7,4,236,4,1464,0,0.603829,12.6075,2.677226,-1
19,F,0,1,59,8,3,235,3,4009,0,0.1750911,6.313137,1.493707,-1
19,F,0,1,60,1,3,238,2,2142,0,0.5318665,6.738589,4.309889,-1
19,F,0,1,60,2,3,240,4,3442,0,0.4133253,6.745594,3.297466,-1
19,F,0,1,60,3,4,238,2,1676,0,0.8000404,12.57828,3.615413,-1
19,F,0,1,60,4,4,237,1,1365,0,0.6518377,12.40714,2.9817,-1
19,F,0,1,60,5,3,239,3,2442,0,0.09720656,6.310074,0.8376676,-1
19,F,0,1,60,6,3,237,1,4887,0,0.03152954,6.343298,0.2733977,-1
19,F,0,1,60,7,4,239,3,1609,0,8.917526E-08,12.34741,0,-1
19,F,0,1,60,8,4,240,4,2920,0,0.3499961,12.57237,1.54826,-1
19,F,0,1,61,1,1,243,3,2542,0,7.415797E-08,6.311754,0,-1
19,F,0,1,61,2,1,244,4,2487,0,0.484184,6.740919,3.92805,-1
19,F,0,1,61,3,1,242,2,1509,0,0.5731197,6.757795,4.643297,-1
19,F,0,1,61,4,2,241,1,1087,0,4.648714E-08,12.40379,0,-1
19,F,0,1,61,5,2,243,3,1920,0,0.429647,12.36162,1.969409,-1
19,F,0,1,61,6,2,244,4,1653,0,0.7319143,12.56623,3.240571,-1
19,F,0,1,61,7,1,241,1,4187,0,0.2186666,6.320004,1.911927,-1
19,F,0,1,61,8,2,242,2,1754,0,0.1860708,12.54817,0.8336869,-1
19,F,0,1,62,1,2,247,3,3209,0,0.02465194,12.37143,0.1136409,-1
19,F,0,1,62,2,2,246,2,2854,0,0.910735,12.54695,4.082263,-1
19,F,0,1,62,3,1,247,3,3298,0,0.3421544,6.318326,2.921881,-1
19,F,0,1,62,4,1,248,4,2809,1,0.2064018,6.750381,1.666479,-1
19,F,0,1,62,5,2,245,1,1420,0,0.4782052,12.41788,2.171507,-1
19,F,0,1,62,6,2,248,4,2109,0,0.6421351,12.57435,2.839729,-1
19,F,0,1,62,7,1,245,1,1820,0,0.1245542,6.329238,1.074108,-1
19,F,0,1,62,8,1,246,2,2698,0,0.1710754,6.762725,1.388608,-1
19,F,0,1,1,1,5,3,3,8263,0,3.777547,6.152458,36.20295,-1
19,F,0,1,1,2,7,2,2,1864,0,1.925177,6.494249,16.34757,-1
19,F,0,1,1,3,5,1,1,1798,0,3.80874,6.110043,38.56173,-1
19,F,0,1,1,4,6,4,4,2120,0,11.00638,12.35609,62.95926,-1
19,F,0,1,1,5,7,3,3,1087,0,2.407637,6.134418,23.0201,-1
19,F,0,1,1,6,5,2,2,3942,0,5.35641,6.519717,55.24236,-1
19,F,0,1,1,7,7,1,1,1065,0,2.232392,6.160037,20.85143,-1
19,F,0,1,1,8,7,4,4,1042,0,1.290881,6.494278,10.83187,-1
19,F,0,1,1,9,6,1,1,886,0,0.6687312,12.15957,3.088321,-1
19,F,0,1,1,10,8,2,2,987,0,9.737784,12.26035,52.5845,-1
19,F,0,1,1,11,8,1,1,1753,0,0.3750003,12.15011,1.722038,-1
19,F,0,1,1,12,8,4,4,1131,0,5.294829,12.31958,25.36018,-1
19,F,0,1,1,13,8,3,3,1320,0,3.919856,12.08136,18.82198,-1
19,F,0,1,1,14,6,2,2,1009,0,1.354518,12.2774,6.262438,-1
19,F,0,1,1,15,6,3,3,1065,0,2.674844,12.1019,12.7133,-1
19,F,0,1,1,16,5,4,4,1331,0,3.557094,6.479859,32.22713,-1
19,F,0,1,2,1,7,4,4,742,0,5.707481,6.50732,61.29285,-1
19,F,0,1,2,2,7,1,1,676,0,3.47565,6.155877,34.37499,-1
19,F,0,1,2,3,7,3,3,709,0,4.346883,6.12948,45.16795,-1
19,F,0,1,2,4,5,1,1,764,0,1.797206,6.095961,16.83938,-1
19,F,0,1,2,5,5,4,4,865,0,3.326047,6.48306,29.84678,-1
19,F,0,1,2,6,7,2,2,598,0,3.289411,6.478447,28.82167,-1
19,F,0,1,2,7,6,3,3,820,0,6.453355,12.12525,32.15587,-1
19,F,0,1,2,8,8,4,4,698,0,4.197379,12.30821,19.33679,-1
19,F,0,1,2,9,6,1,1,598,0,3.210652,12.16187,15.17616,-1
19,F,0,1,2,10,6,2,2,509,0,6.264278,12.26942,30.70115,-1
19,F,0,1,2,11,8,1,1,653,0,1.341295,12.14265,6.148257,-1
19,F,0,1,2,12,8,2,2,398,0,6.034973,12.26496,29.45252,-1
19,F,0,1,2,13,5,3,3,487,0,4.465818,6.120209,46.8599,-1
19,F,0,1,2,14,6,4,4,542,0,4.584816,12.30331,21.26958,-1
19,F,0,1,2,15,8,3,3,520,0,3.086768,12.07869,14.80645,-1
19,F,0,1,2,16,5,2,2,453,0,4.334954,6.501708,41.81601,-1
