Age, Gender, Awareness Type, Session, Block, Trial, Set, Pattern, Quadrant, Response Time, Num Mistakes, Distance From Target, Camera Distance From Target, Angle Error (Degrees), FC Response
19,F,0,1,1,1,1,3,3,2365,0,0.003194702,6.194534,0.02797646,-1
19,F,0,1,1,2,2,1,1,4242,0,0.8910304,12.24943,4.116992,-1
19,F,0,1,1,3,1,2,2,1709,0,0.3191226,6.458041,2.698709,-1
19,F,0,1,1,4,1,4,4,5209,1,0.4254141,6.448975,3.650071,-1
19,F,0,1,1,5,2,3,3,1887,0,9.905959E-08,12.18555,0,-1
19,F,0,1,1,6,2,2,2,4564,0,0.8064305,12.39621,3.63157,-1
19,F,0,1,1,7,2,4,4,2009,0,0.1374845,12.42868,0.6183397,-1
19,F,0,1,1,8,1,1,1,1720,0,1.786238E-07,6.198313,0,-1
19,F,0,1,2,1,2,7,3,9999,3,-1,-1,-1,-1
19,F,0,1,2,2,2,8,4,1964,0,0.5389531,12.41201,2.42487,-1
19,F,0,1,2,3,1,6,2,1309,0,0.1124364,6.42261,0.9532654,-1
19,F,0,1,2,4,1,8,4,6998,9,0.5466195,6.390844,4.745284,-1
19,F,0,1,2,5,2,6,2,9999,0,-1,-1,-1,-1
19,F,0,1,2,6,2,5,1,7186,0,0.7518148,12.19037,3.514744,-1
19,F,0,1,2,7,1,7,3,5698,0,0.479629,6.221928,4.233413,-1
19,F,0,1,2,8,1,5,1,3242,0,0.2127357,6.133972,1.900428,-1
19,F,0,1,3,1,1,10,2,3376,0,0.4782943,6.439113,4.016199,-1
19,F,0,1,3,2,2,9,1,2264,0,0.5415812,12.22112,2.498027,-1
19,F,0,1,3,3,2,10,2,3064,1,0.190528,12.38485,0.8616194,-1
19,F,0,1,3,4,2,12,4,1453,0,0.3781564,12.43688,1.698005,-1
19,F,0,1,3,5,2,11,3,2165,0,0.8268621,12.18204,3.77595,-1
19,F,0,1,3,6,1,12,4,4109,1,0.5323308,6.424488,4.596701,-1
19,F,0,1,3,7,1,9,1,1320,0,0.2478191,6.169709,2.235196,-1
19,F,0,1,3,8,1,11,3,3609,2,1.936271E-07,6.178793,0,-1
19,F,0,1,4,1,1,16,4,2387,1,0.5452092,6.424859,4.702905,-1
19,F,0,1,4,2,1,15,3,3020,0,0.02150973,6.19036,0.1887116,-1
19,F,0,1,4,3,2,16,4,2154,1,0.02074383,12.41422,0.09278741,-1
19,F,0,1,4,4,2,15,3,1931,0,0.5426152,12.16393,2.492379,-1
19,F,0,1,4,5,2,14,2,5920,0,0.1898432,12.36535,0.8666012,-1
19,F,0,1,4,6,2,13,1,1209,0,0.4031487,12.20209,1.870953,-1
19,F,0,1,4,7,1,14,2,2353,0,0.2389626,6.391531,2.03134,-1
19,F,0,1,4,8,1,13,1,1442,0,0.3457982,6.167325,3.068607,-1
19,F,0,1,5,1,2,20,4,4120,3,0.7226725,12.34805,3.265247,-1
19,F,0,1,5,2,1,19,3,2087,0,0.4218982,6.140649,3.752281,-1
19,F,0,1,5,3,1,20,4,5920,0,0.1915514,6.40745,1.656703,-1
19,F,0,1,5,4,2,19,3,1065,0,1.031748,12.13568,4.730109,-1
19,F,0,1,5,5,2,17,1,5676,1,0.869252,12.12047,4.074965,-1
19,F,0,1,5,6,2,18,2,2320,0,0.3498604,12.36593,1.599243,-1
19,F,0,1,5,7,1,17,1,9309,0,0.1960867,6.186968,1.758918,-1
19,F,0,1,5,8,1,18,2,2065,1,2.219608E-07,6.441635,0,-1
19,F,0,1,6,1,1,23,3,1931,2,0.1732789,6.200844,1.518009,-1
19,F,0,1,6,2,1,22,2,1476,0,0.1394693,6.423953,1.18366,-1
19,F,0,1,6,3,2,24,4,6175,3,0.7383695,12.30381,3.350943,-1
19,F,0,1,6,4,2,21,1,2364,1,0.4539669,12.1984,2.11174,-1
19,F,0,1,6,5,2,22,2,4909,1,0.8620645,12.37146,3.941288,-1
19,F,0,1,6,6,2,23,3,1564,0,0.6032549,12.15289,2.774176,-1
19,F,0,1,6,7,1,21,1,1631,0,0.1842276,6.167427,1.637336,-1
19,F,0,1,6,8,1,24,4,4175,3,0.1211913,6.444024,1.02412,-1
19,F,0,1,7,1,1,25,1,1598,0,0.07885326,6.17844,0.7044336,-1
19,F,0,1,7,2,2,27,3,4087,4,0.9474006,12.13476,4.355996,-1
19,F,0,1,7,3,2,25,1,3798,1,0.4292223,12.21403,1.989086,-1
19,F,0,1,7,4,1,28,4,6209,6,0.3890674,6.427725,3.355614,-1
19,F,0,1,7,5,1,26,2,1631,0,0.44679,6.457338,3.776624,-1
19,F,0,1,7,6,2,28,4,2253,0,0.7696666,12.41573,3.441166,-1
19,F,0,1,7,7,1,27,3,2320,2,0.3485667,6.186447,3.080578,-1
19,F,0,1,7,8,2,26,2,3253,0,0.6727825,12.38826,3.094653,-1
19,F,0,1,8,1,2,29,1,1520,0,7.516194E-08,12.2227,0,-1
19,F,0,1,8,2,1,30,2,2564,0,0.031346,6.433547,0.2661444,-1
19,F,0,1,8,3,1,29,1,2831,0,0.3283618,6.194804,2.945104,-1
19,F,0,1,8,4,2,31,3,2575,3,0.7046654,12.09066,3.251368,-1
19,F,0,1,8,5,2,32,4,2453,2,0.3507356,12.40831,1.579543,-1
19,F,0,1,8,6,1,31,3,5409,3,0.4083858,6.155182,3.613734,-1
19,F,0,1,8,7,2,30,2,1476,0,0.1518266,12.38452,0.6878495,-1
19,F,0,1,8,8,1,32,4,4387,0,0.2784015,6.44691,2.351436,-1
19,F,0,1,9,1,2,34,2,3953,0,0.001022567,12.3771,0,-1
19,F,0,1,9,2,2,35,3,2076,1,0.6716385,12.13144,3.085023,-1
19,F,0,1,9,3,1,33,1,1620,0,0.04915921,6.16562,0.4396856,-1
19,F,0,1,9,4,2,36,4,3376,4,0.03927752,12.39215,0.1769387,-1
19,F,0,1,9,5,1,35,3,3409,4,0.1587513,6.137222,1.417341,-1
19,F,0,1,9,6,2,33,1,1298,0,0.3278512,12.21816,1.518267,-1
19,F,0,1,9,7,1,36,4,2864,0,0.5332695,6.411207,4.61346,-1
19,F,0,1,9,8,1,34,2,1498,0,4.554726E-07,6.453344,0,-1
19,F,0,1,10,1,1,37,1,976,0,0.01888527,6.18157,0.1678588,-1
19,F,0,1,10,2,1,39,3,2231,0,0.3467775,6.166882,3.083246,-1
19,F,0,1,10,3,1,38,2,1953,0,0.2168057,6.447793,1.817362,-1
19,F,0,1,10,4,2,37,1,909,0,0.8552346,12.21746,3.974488,-1
19,F,0,1,10,5,1,40,4,4065,3,0.3239464,6.438229,2.746947,-1
19,F,0,1,10,6,2,39,3,953,0,0.1403299,12.15819,0.6483091,-1
19,F,0,1,10,7,2,40,4,1965,0,0.4534667,12.40169,2.041623,-1
19,F,0,1,10,8,2,38,2,4498,0,0.01472758,12.37883,0.0656106,-1
19,F,0,1,11,1,2,43,3,1564,2,0.6869818,12.15793,3.209552,-1
19,F,0,1,11,2,1,42,2,1553,0,0.3674527,6.446447,3.097625,-1
19,F,0,1,11,3,1,43,3,2187,2,0.4407737,6.196481,3.883579,-1
19,F,0,1,11,4,2,41,1,2276,1,0.4221415,12.20307,1.959746,-1
19,F,0,1,11,5,1,44,4,3931,0,0.3248308,6.443966,2.781082,-1
19,F,0,1,11,6,2,42,2,4687,0,0.6853064,12.38789,3.151632,-1
19,F,0,1,11,7,2,44,4,2698,0,0.852991,12.42107,3.836808,-1
19,F,0,1,11,8,1,41,1,2742,1,0.2041292,6.170976,1.836643,-1
19,F,0,1,12,1,1,48,4,2642,0,0.1108756,6.445718,0.9522384,-1
19,F,0,1,12,2,2,47,3,1131,0,0.07123338,12.16618,0.3292442,-1
19,F,0,1,12,3,2,45,1,1576,0,0.8040974,12.2047,3.74073,-1
19,F,0,1,12,4,2,48,4,1187,0,0.6132457,12.41041,2.742525,-1
19,F,0,1,12,5,2,46,2,2353,1,0.6163074,12.38826,2.781152,-1
19,F,0,1,12,6,1,47,3,1898,1,0.2942028,6.190084,2.582856,-1
19,F,0,1,12,7,1,45,1,1242,0,0.1127997,6.165331,1.012204,-1
19,F,0,1,12,8,1,46,2,1609,0,0.2129704,6.416557,1.80461,-1
19,F,0,1,13,1,1,49,1,965,0,7.333186E-08,6.152261,0,-1
19,F,0,1,13,2,1,52,4,3709,0,0.4733866,6.409965,4.09553,-1
19,F,0,1,13,3,1,51,3,2753,1,0.4545738,6.158873,4.048447,-1
19,F,0,1,13,4,2,50,2,4453,2,0.9158521,12.32916,4.23531,-1
19,F,0,1,13,5,2,51,3,2287,3,0.9417592,12.13318,4.318198,-1
19,F,0,1,13,6,2,49,1,1187,0,0.6362132,12.19106,2.963789,-1
19,F,0,1,13,7,2,52,4,2753,3,0.5223904,12.37193,2.35767,-1
19,F,0,1,13,8,1,50,2,2309,1,0.4882106,6.423897,4.152515,-1
19,F,0,1,14,1,1,55,3,1942,0,0.075448,6.172068,0.6673463,-1
19,F,0,1,14,2,2,53,1,1120,0,0.1914372,12.205,0.8866904,-1
19,F,0,1,14,3,2,54,2,1987,0,0.1282272,12.36508,0.583833,-1
19,F,0,1,14,4,2,55,3,1086,0,0.0925624,12.1453,0.4270431,-1
19,F,0,1,14,5,2,56,4,2065,2,0.3349087,12.40476,1.514653,-1
19,F,0,1,14,6,1,54,2,3198,0,0.158401,6.428809,1.355663,-1
19,F,0,1,14,7,1,53,1,1631,0,0.4666802,6.164653,4.270951,-1
19,F,0,1,14,8,1,56,4,4964,5,0.5419437,6.409292,4.557586,-1
19,F,0,1,15,1,2,57,1,1909,0,0.9218447,12.0622,4.284138,-1
19,F,0,1,15,2,2,60,4,898,0,0.7330206,12.38693,3.305294,-1
19,F,0,1,15,3,1,57,1,1442,0,1.649178E-08,6.169425,0,-1
19,F,0,1,15,4,2,58,2,1064,0,0.2984166,12.37019,1.359411,-1
19,F,0,1,15,5,1,59,3,2042,1,0.01653211,6.169259,0.14537,-1
19,F,0,1,15,6,1,58,2,1498,0,0.04246196,6.43266,0.360452,-1
19,F,0,1,15,7,1,60,4,3598,0,0.0725712,6.418873,0.6208661,-1
19,F,0,1,15,8,2,59,3,964,0,0.353316,12.15366,1.639247,-1
19,F,0,1,16,1,1,64,4,6042,6,0.334806,6.417549,2.858143,-1
19,F,0,1,16,2,2,61,1,1609,0,1.009749,12.21593,4.710479,-1
19,F,0,1,16,3,2,64,4,6787,10,0.606883,12.26645,2.768172,-1
19,F,0,1,16,4,2,62,2,3531,0,1.026344,12.38325,4.701405,-1
19,F,0,1,16,5,2,63,3,3898,2,0.9461027,12.14417,4.371929,-1
19,F,0,1,16,6,1,61,1,1397,0,1.422792E-07,6.17423,0.01978234,-1
19,F,0,1,16,7,1,62,2,1598,0,0.2791296,6.441709,2.376029,-1
19,F,0,1,16,8,1,63,3,3387,4,0.1977864,6.098861,1.787832,-1
19,F,0,1,17,1,4,68,4,2964,1,1.011524,12.3812,4.519087,-1
19,F,0,1,17,2,4,65,1,1209,0,0.7183385,12.1616,3.366681,-1
19,F,0,1,17,3,4,67,3,1364,1,0.9548066,12.16341,4.381371,-1
19,F,0,1,17,4,3,65,1,820,0,1.548953E-07,6.164261,0,-1
19,F,0,1,17,5,3,66,2,4076,1,5.185355E-08,6.414639,0,-1
19,F,0,1,17,6,3,67,3,1809,0,0.4200773,6.154141,3.695493,-1
19,F,0,1,17,7,4,66,2,1764,0,1.022365,12.35604,4.668205,-1
19,F,0,1,17,8,3,68,4,2598,0,0.3777374,6.416111,3.23634,-1
19,F,0,1,18,1,3,70,2,1198,0,0.5116546,6.42186,4.340004,-1
19,F,0,1,18,2,3,69,1,1131,0,3.785474E-08,6.188661,0,-1
19,F,0,1,18,3,3,72,4,2931,1,0.3189514,6.4295,2.749867,-1
19,F,0,1,18,4,4,70,2,1287,1,0.5395088,12.38642,2.446966,-1
19,F,0,1,18,5,4,71,3,1998,0,0.7455477,12.18079,3.414091,-1
19,F,0,1,18,6,4,72,4,2387,1,0.6086398,12.41276,2.738383,-1
19,F,0,1,18,7,3,71,3,1187,0,0.3822026,6.191856,3.388823,-1
19,F,0,1,18,8,4,69,1,1120,0,0.6526695,12.19585,3.047161,-1
19,F,0,1,19,1,4,76,4,2309,0,0.5255982,12.36674,2.358832,-1
19,F,0,1,19,2,3,74,2,1753,0,0.5457206,6.422193,4.629186,-1
19,F,0,1,19,3,3,75,3,2375,3,1.250638E-07,6.185141,0,-1
19,F,0,1,19,4,3,73,1,1887,1,0.08778724,6.154343,0.7808449,-1
19,F,0,1,19,5,3,76,4,4309,3,0.4046425,6.438442,3.482397,-1
19,F,0,1,19,6,4,74,2,1409,0,0.5983937,12.36633,2.723761,-1
19,F,0,1,19,7,4,73,1,9999,3,-1,-1,-1,-1
19,F,0,1,19,8,4,75,3,1109,0,0.7873732,12.1122,3.612867,-1
19,F,0,1,20,1,3,78,2,2820,1,0.005830663,6.391107,0.04845664,-1
19,F,0,1,20,2,3,80,4,5775,8,0.1107616,6.424029,0.9381608,-1
19,F,0,1,20,3,3,79,3,4476,7,0.3757397,6.145847,3.336715,-1
19,F,0,1,20,4,3,77,1,1231,2,1.51817E-08,6.199718,0,-1
19,F,0,1,20,5,4,78,2,2120,0,0.4033302,12.34531,1.823811,-1
19,F,0,1,20,6,4,79,3,1531,0,0.4662698,12.14326,2.137349,-1
19,F,0,1,20,7,4,77,1,1231,0,0.160926,12.21009,0.7430948,-1
19,F,0,1,20,8,4,80,4,2953,1,1.048331,12.38474,4.694525,-1
19,F,0,1,20,1,1,77,1,998,0,1.212566E-07,6.16794,0,-1
19,F,0,1,20,2,2,80,4,1154,0,1.070562E-07,12.41134,0,-1
19,F,0,1,20,3,2,79,3,1131,0,0.5596333,12.16243,2.605191,-1
19,F,0,1,20,4,2,77,1,4820,0,0.6477178,12.23065,3.005959,-1
19,F,0,1,20,5,1,80,4,4554,3,0.1509183,6.449448,1.275949,-1
19,F,0,1,20,6,1,78,2,4264,0,2.856914E-08,6.426422,0,-1
19,F,0,1,20,7,1,79,3,2153,2,0.1240243,6.17953,1.090201,-1
19,F,0,1,20,8,2,78,2,9999,1,-1,-1,-1,-1
19,F,0,1,21,1,1,83,3,2409,1,0.4508715,6.149601,4.00443,-1
19,F,0,1,21,2,2,84,4,6287,2,0.182336,12.36991,0.82377,-1
19,F,0,1,21,3,2,82,2,7542,0,0.9332222,12.34426,4.276221,-1
19,F,0,1,21,4,1,84,4,4698,0,0.07306968,6.405777,0.6283845,-1
19,F,0,1,21,5,1,81,1,1053,0,0.2566523,6.168381,2.277698,-1
19,F,0,1,21,6,2,83,3,876,0,0.2820994,12.14664,1.2986,-1
19,F,0,1,21,7,2,81,1,4909,2,0.5748804,12.12105,2.684747,-1
19,F,0,1,21,8,1,82,2,7653,1,0.2106192,6.412472,1.785641,-1
19,F,0,1,22,1,1,87,3,2031,1,0.2825728,6.160367,2.491594,-1
19,F,0,1,22,2,1,86,2,2431,0,0.07784636,6.409935,0.6652907,-1
19,F,0,1,22,3,1,85,1,1620,1,6.754581E-08,6.143486,0,-1
19,F,0,1,22,4,1,88,4,3554,2,0.4945899,6.426651,4.195307,-1
19,F,0,1,22,5,2,86,2,1154,0,1.004264,12.36778,4.630328,-1
19,F,0,1,22,6,2,85,1,2009,0,0.7380055,12.20187,3.443612,-1
19,F,0,1,22,7,2,88,4,3653,0,0.3938808,12.39315,1.775419,-1
19,F,0,1,22,8,2,87,3,1031,0,0.5689846,12.14573,2.611195,-1
19,F,0,1,23,1,1,89,1,942,0,0.07085772,6.149843,0.6355062,-1
19,F,0,1,23,2,1,91,3,1987,0,0.5198244,6.180302,4.615752,-1
19,F,0,1,23,3,1,90,2,1764,0,0.08699815,6.424628,0.7420408,-1
19,F,0,1,23,4,2,92,4,1464,0,0.9055915,12.39968,4.080632,-1
19,F,0,1,23,5,2,90,2,1098,0,0.7737642,12.37082,3.562934,-1
19,F,0,1,23,6,2,89,1,1553,0,0.8249443,12.20093,3.853105,-1
19,F,0,1,23,7,1,92,4,4431,2,0.5386101,6.424114,4.630074,-1
19,F,0,1,23,8,2,91,3,1242,0,1.0401,12.15654,4.760287,-1
19,F,0,1,24,1,2,96,4,1876,2,0.3140834,12.40595,1.427796,-1
19,F,0,1,24,2,1,93,1,953,0,0.2757897,6.163194,2.494028,-1
19,F,0,1,24,3,2,95,3,798,0,0.006573351,12.15287,0.01978234,-1
19,F,0,1,24,4,1,94,2,2809,0,0.3040864,6.45187,2.579747,-1
19,F,0,1,24,5,2,93,1,842,0,0.4929819,12.21544,2.292003,-1
19,F,0,1,24,6,2,94,2,3998,0,0.3452586,12.38213,1.568852,-1
19,F,0,1,24,7,1,95,3,3676,0,0.4540604,6.183114,4.028711,-1
19,F,0,1,24,8,1,96,4,3109,0,0.2690041,6.434099,2.317311,-1
19,F,0,1,25,1,1,98,2,1520,2,0.2603242,6.443222,2.210985,-1
19,F,0,1,25,2,2,99,3,1542,1,0.6411284,12.16417,2.946233,-1
19,F,0,1,25,3,1,97,1,2976,0,3.759611E-08,6.180239,0,-1
19,F,0,1,25,4,1,99,3,2276,3,0.425931,6.167067,3.759736,-1
19,F,0,1,25,5,1,100,4,3431,0,0.5172105,6.437883,4.456236,-1
19,F,0,1,25,6,2,97,1,4098,0,0.6038011,12.22877,2.807074,-1
19,F,0,1,25,7,2,100,4,965,0,0.4147681,12.4059,1.864037,-1
19,F,0,1,25,8,2,98,2,1998,2,0.3223946,12.39645,1.454411,-1
19,F,0,1,26,1,1,101,1,831,0,0.3607034,6.195489,3.200267,-1
19,F,0,1,26,2,2,104,4,853,0,0.4823861,12.41665,2.169433,-1
19,F,0,1,26,3,1,102,2,3154,0,0.0519137,6.44064,0.4392403,-1
19,F,0,1,26,4,1,103,3,2331,1,0.3318527,6.183408,2.939914,-1
19,F,0,1,26,5,1,104,4,3087,0,0.01388677,6.428051,0.1170339,-1
19,F,0,1,26,6,2,103,3,876,0,0.8292652,12.18394,3.801533,-1
19,F,0,1,26,7,2,102,2,3676,1,0.8107865,12.39479,3.699623,-1
19,F,0,1,26,8,2,101,1,1242,0,0.6545309,12.22382,3.046261,-1
19,F,0,1,27,1,1,108,4,4798,4,0.2830451,6.419955,2.425757,-1
19,F,0,1,27,2,1,105,1,3376,0,0.3116757,6.196508,2.752784,-1
19,F,0,1,27,3,1,106,2,3787,0,0.3889113,6.468006,3.268004,-1
19,F,0,1,27,4,2,105,1,1876,2,0.4926118,12.2287,2.284905,-1
19,F,0,1,27,5,2,107,3,1198,0,0.6633648,12.27195,3.043111,-1
19,F,0,1,27,6,2,108,4,1309,0,0.6751102,12.4517,3.024721,-1
19,F,0,1,27,7,1,107,3,2598,0,3.441083E-07,6.203046,0,-1
19,F,0,1,27,8,2,106,2,2776,0,0.7744717,12.42377,3.525589,-1
19,F,0,1,28,1,1,112,4,5898,6,0.275179,6.339283,2.405176,-1
19,F,0,1,28,2,2,111,3,976,0,0.283991,12.16668,1.304763,-1
19,F,0,1,28,3,1,110,2,2176,0,0.153752,6.444253,1.299503,-1
19,F,0,1,28,4,1,109,1,898,0,0.1750774,6.187255,1.568353,-1
19,F,0,1,28,5,1,111,3,1642,1,0.4950786,6.178536,4.355816,-1
19,F,0,1,28,6,2,110,2,1587,0,0.4272293,12.39488,1.947323,-1
19,F,0,1,28,7,2,112,4,1298,1,0.939849,12.4173,4.22934,-1
19,F,0,1,28,8,2,109,1,976,0,0.5604086,12.23309,2.59616,-1
19,F,0,1,29,1,1,116,4,4076,5,0.5078664,6.362041,4.414017,-1
19,F,0,1,29,2,2,113,1,1131,0,0.1109333,12.23705,0.5112901,-1
19,F,0,1,29,3,2,115,3,787,0,0.3334683,12.18107,1.530334,-1
19,F,0,1,29,4,1,114,2,2320,0,0.4393401,6.466529,3.711249,-1
19,F,0,1,29,5,2,116,4,998,0,0.1090373,12.43088,0.4913847,-1
19,F,0,1,29,6,1,113,1,1698,1,0.1228308,6.196668,1.100385,-1
19,F,0,1,29,7,1,115,3,909,0,0.2398069,6.196257,2.114981,-1
19,F,0,1,29,8,2,114,2,2731,0,0.6311491,12.43055,2.87099,-1
19,F,0,1,30,1,2,117,1,1409,0,0.6567171,12.2488,3.030347,-1
19,F,0,1,30,2,2,119,3,953,0,0.5995427,12.18084,2.743382,-1
19,F,0,1,30,3,2,120,4,954,0,0.3279157,12.43385,1.485167,-1
19,F,0,1,30,4,2,118,2,5064,1,0.04966548,12.41593,0.2246844,-1
19,F,0,1,30,5,1,119,3,2298,0,0.3504733,6.195699,3.101983,-1
19,F,0,1,30,6,1,118,2,2631,0,0.06297072,6.460808,0.5289715,-1
19,F,0,1,30,7,1,117,1,987,0,0.2108248,6.203293,1.887615,-1
19,F,0,1,30,8,1,120,4,1898,0,0.3593088,6.441468,3.057487,-1
19,F,0,1,31,1,1,121,1,1065,0,0.1318821,6.212213,1.175032,-1
19,F,0,1,31,2,1,123,3,1454,1,0.3693188,6.204553,3.264588,-1
19,F,0,1,31,3,2,122,2,3020,0,0.626947,12.39868,2.875282,-1
19,F,0,1,31,4,2,124,4,909,0,0.966857,12.43103,4.385928,-1
19,F,0,1,31,5,1,122,2,2154,0,2.0216E-07,6.468491,0,-1
19,F,0,1,31,6,2,121,1,1087,0,0.8997582,12.24456,4.172698,-1
19,F,0,1,31,7,2,123,3,787,0,0.6472351,12.18775,2.959095,-1
19,F,0,1,31,8,1,124,4,2420,0,0.5018318,6.451498,4.280067,-1
19,F,0,1,32,1,1,126,2,2120,0,6.6204E-08,6.466496,0,-1
19,F,0,1,32,2,2,128,4,809,0,0.5633723,12.43482,2.528788,-1
19,F,0,1,32,3,1,125,1,887,0,0.4769515,6.210315,4.33707,-1
19,F,0,1,32,4,1,128,4,2642,0,0.3708026,6.445283,3.172681,-1
19,F,0,1,32,5,2,127,3,987,0,0.4277448,12.19552,1.957548,-1
19,F,0,1,32,6,2,125,1,1187,0,0.6787248,12.25379,3.147592,-1
19,F,0,1,32,7,1,127,3,1431,0,0.04171881,6.200872,0.3690354,-1
19,F,0,1,32,8,2,126,2,1765,1,0.4459683,12.42566,2.028929,-1
19,F,0,1,33,1,1,132,4,3242,3,0.2728779,6.388866,2.355677,-1
19,F,0,1,33,2,1,131,3,1409,0,0.09336327,6.136062,0.8329825,-1
19,F,0,1,33,3,1,130,2,1242,0,0.4105353,6.381619,3.537509,-1
19,F,0,1,33,4,2,131,3,820,0,0.4521762,12.10303,2.084502,-1
19,F,0,1,33,5,2,129,1,1020,0,0.2379256,12.1515,1.106591,-1
19,F,0,1,33,6,2,132,4,2942,1,0.6765318,12.34352,3.042853,-1
19,F,0,1,33,7,1,129,1,942,0,0.2694796,6.115254,2.451602,-1
19,F,0,1,33,8,2,130,2,5453,1,0.6499167,12.32674,2.942111,-1
19,F,0,1,34,1,2,136,4,1509,1,0.6923502,12.36076,3.163041,-1
19,F,0,1,34,2,2,133,1,1598,2,0.6077147,12.17291,2.831721,-1
19,F,0,1,34,3,1,136,4,3187,1,0.5191416,6.376928,4.469403,-1
19,F,0,1,34,4,2,135,3,1598,0,0.7878997,12.10513,3.636688,-1
19,F,0,1,34,5,1,134,2,3909,0,0.3952616,6.391147,3.383677,-1
19,F,0,1,34,6,1,133,1,887,0,0.5096347,6.12383,4.701822,-1
19,F,0,1,34,7,2,134,2,1187,1,0.8574806,12.3193,3.936565,-1
19,F,0,1,34,8,1,135,3,1697,0,0.2266906,6.134204,2.018388,-1
19,F,0,1,35,1,1,138,2,1931,0,0.02998263,6.387775,0.2564087,-1
19,F,0,1,35,2,1,140,4,2509,1,0.3046378,6.389374,2.608946,-1
19,F,0,1,35,3,2,139,3,942,0,0.1202771,12.09592,0.5567266,-1
19,F,0,1,35,4,2,137,1,1442,1,0.7513688,12.15331,3.472939,-1
19,F,0,1,35,5,2,140,4,931,0,0.8567157,12.34749,3.952105,-1
19,F,0,1,35,6,1,137,1,854,0,0.3929035,6.115156,3.565461,-1
19,F,0,1,35,7,2,138,2,4153,1,0.4267014,12.31638,1.948228,-1
19,F,0,1,35,8,1,139,3,1497,0,0.4796523,6.12667,4.294502,-1
19,F,0,1,37,1,4,146,2,1320,0,0.06814402,12.31838,0.3109043,-1
19,F,0,1,37,2,3,145,1,1087,0,0.2892271,6.11557,2.597818,-1
19,F,0,1,37,3,3,148,4,2920,0,0.3290481,6.367504,2.816333,-1
19,F,0,1,37,4,3,147,3,1309,0,0.4684563,6.105674,4.164994,-1
19,F,0,1,37,5,3,146,2,3253,0,1.154574E-07,6.39435,0.01978234,-1
19,F,0,1,37,6,4,148,4,1376,0,0.7540842,12.33346,3.405191,-1
19,F,0,1,37,7,4,145,1,820,0,0.7341639,12.14747,3.396959,-1
19,F,0,1,37,8,4,147,3,2187,2,0.3712757,12.05622,1.729409,-1
19,F,0,1,38,1,4,150,2,1265,0,0.489491,12.27402,2.254291,-1
19,F,0,1,38,2,4,149,1,1831,1,0.2247816,12.11679,1.03967,-1
19,F,0,1,38,3,4,151,3,1287,0,0.06741043,12.1048,0.3121605,-1
19,F,0,1,38,4,4,152,4,5442,9,0.3714688,12.25958,1.688644,-1
19,F,0,1,38,5,3,150,2,1598,0,0.3153595,6.351228,2.690282,-1
19,F,0,1,38,6,3,152,4,1820,0,0.5427096,6.341224,4.727623,-1
19,F,0,1,38,7,3,151,3,2142,0,0.3080368,6.088822,2.775516,-1
19,F,0,1,38,8,3,149,1,1020,0,0.3436285,6.108572,3.082102,-1
19,F,0,1,39,1,4,154,2,5598,0,0.620917,12.28415,2.863959,-1
19,F,0,1,39,2,3,156,4,3609,3,0.4382373,6.334142,3.783824,-1
19,F,0,1,39,3,4,155,3,1786,0,0.2698051,12.0653,1.251639,-1
19,F,0,1,39,4,3,153,1,2487,0,0.5008925,6.086228,4.657072,-1
19,F,0,1,39,5,3,154,2,1498,0,0.1648442,6.37936,1.409449,-1
19,F,0,1,39,6,3,155,3,3298,3,0.3845182,6.074636,3.473671,-1
19,F,0,1,39,7,4,153,1,1232,0,0.3442659,12.09284,1.599855,-1
19,F,0,1,39,8,4,156,4,1176,0,0.1997986,12.28191,0.9159984,-1
19,F,0,1,40,1,3,158,2,4176,0,0.02480805,6.379335,0.2139789,-1
19,F,0,1,40,2,3,159,3,2765,3,0.3363052,6.085078,3.018696,-1
19,F,0,1,40,3,4,157,1,1665,2,0.8470992,12.08176,3.960025,-1
19,F,0,1,40,4,4,160,4,5986,16,0.5033817,12.25303,2.298144,-1
19,F,0,1,40,5,4,158,2,2431,2,0.5557517,12.26776,2.561931,-1
19,F,0,1,40,6,4,159,3,965,0,1.257268E-07,12.04913,0,-1
19,F,0,1,40,7,3,160,4,3131,5,0.4018049,6.34319,3.4169,-1
19,F,0,1,40,8,3,157,1,1176,0,0.4334201,6.104898,3.892997,-1
19,F,0,1,41,1,2,163,3,853,0,0.06360637,12.06205,0.2954137,-1
19,F,0,1,41,2,2,164,4,842,0,3.058474E-07,12.30307,0,-1
19,F,0,1,41,3,1,162,2,2931,0,0.2524371,6.355772,2.181578,-1
19,F,0,1,41,4,1,164,4,1798,1,0.2167882,6.342128,1.876697,-1
19,F,0,1,41,5,2,161,1,876,0,0.8231922,12.12286,3.868726,-1
19,F,0,1,41,6,1,163,3,1087,0,0.4779204,6.081872,4.306298,-1
19,F,0,1,41,7,2,162,2,4175,1,1.014126,12.29751,4.681823,-1
19,F,0,1,41,8,1,161,1,1020,0,0.4142155,6.088245,3.757131,-1
19,F,0,1,42,1,1,167,3,2476,0,0.5090563,6.089389,4.585351,-1
19,F,0,1,42,2,2,166,2,1709,0,0.3584228,12.29999,1.630989,-1
19,F,0,1,42,3,1,168,4,2253,1,0.4768278,6.348865,4.150439,-1
19,F,0,1,42,4,1,166,2,1198,0,0.06044641,6.377331,0.518133,-1
19,F,0,1,42,5,2,168,4,1131,0,0.5325341,12.3098,2.409079,-1
19,F,0,1,42,6,2,165,1,3365,0,0.7423522,12.12136,3.476601,-1
19,F,0,1,42,7,2,167,3,854,0,0.3233759,12.05485,1.498286,-1
19,F,0,1,42,8,1,165,1,1220,0,0.3087407,6.047564,2.848813,-1
19,F,0,1,43,1,1,172,4,3098,0,0.4798887,6.346263,4.193673,-1
19,F,0,1,43,2,2,171,3,765,0,0.8671415,12.06054,4.005213,-1
19,F,0,1,43,3,2,172,4,776,0,0.3734347,12.29647,1.695237,-1
19,F,0,1,43,4,1,169,1,831,0,0.1879475,6.079446,1.698696,-1
19,F,0,1,43,5,2,170,2,1820,0,0.5809287,12.27953,2.690573,-1
19,F,0,1,43,6,1,171,3,2809,2,0.2750483,6.077116,2.456945,-1
19,F,0,1,43,7,1,170,2,2831,0,0.2248048,6.374281,1.923357,-1
19,F,0,1,43,8,2,169,1,953,0,0.539342,12.11069,2.533737,-1
19,F,0,1,44,1,2,176,4,754,0,0.1799508,12.29946,0.8232948,-1
19,F,0,1,44,2,1,175,3,1687,0,0.199788,6.077211,1.794387,-1
19,F,0,1,44,3,1,176,4,4031,2,0.3728164,6.372844,3.224401,-1
19,F,0,1,44,4,1,173,1,1376,0,4.799349E-08,6.081174,0,-1
19,F,0,1,44,5,2,174,2,1942,0,1.614662E-07,12.28646,0,-1
19,F,0,1,44,6,2,175,3,876,0,0.3280628,12.06776,1.518138,-1
19,F,0,1,44,7,1,174,2,1898,0,0.07965753,6.363032,0.6815624,-1
19,F,0,1,44,8,2,173,1,2464,0,0.6656308,12.1066,3.11998,-1
19,F,0,1,45,1,1,179,3,1309,0,0.1373863,6.075449,1.230511,-1
19,F,0,1,45,2,2,178,2,1442,0,0.776572,12.28482,3.600109,-1
19,F,0,1,45,3,1,180,4,4631,4,0.131956,6.35218,1.142438,-1
19,F,0,1,45,4,2,179,3,1442,1,0.5991598,12.04533,2.770787,-1
19,F,0,1,45,5,1,177,1,920,0,0.1570031,6.068983,1.432038,-1
19,F,0,1,45,6,2,180,4,798,0,0.1453705,12.28691,0.6635236,-1
19,F,0,1,45,7,1,178,2,1387,0,9.595902E-08,6.355913,0,-1
19,F,0,1,45,8,2,177,1,987,0,2.168709E-07,12.10619,0,-1
19,F,0,1,46,1,2,183,3,853,0,0.1836806,12.04109,0.8577499,-1
19,F,0,1,46,2,1,182,2,1742,0,1.847994E-07,6.35831,0,-1
19,F,0,1,46,3,1,183,3,1553,0,0.3767133,6.081868,3.395806,-1
19,F,0,1,46,4,2,182,2,1154,0,1.050505,12.27438,4.88046,-1
19,F,0,1,46,5,2,181,1,2287,2,0.9757671,12.11104,4.590219,-1
19,F,0,1,46,6,2,184,4,1631,0,0.2417411,12.29856,1.097001,-1
19,F,0,1,46,7,1,181,1,831,0,0.1803602,6.070326,1.64687,-1
19,F,0,1,46,8,1,184,4,1631,0,0.3936028,6.348555,3.417358,-1
19,F,0,1,47,1,2,186,2,1820,0,0.6455459,12.279,2.985571,-1
19,F,0,1,47,2,1,187,3,1487,0,0.2394183,6.088592,2.155041,-1
19,F,0,1,47,3,1,185,1,754,0,0.4875234,6.075582,4.52225,-1
19,F,0,1,47,4,2,188,4,1654,0,0.1862076,12.29897,0.8522572,-1
19,F,0,1,47,5,1,186,2,4098,1,0.461322,6.352131,3.946403,-1
19,F,0,1,47,6,2,185,1,987,0,0.3613571,12.08626,1.696044,-1
19,F,0,1,47,7,2,187,3,876,0,0.1960077,12.03903,0.916212,-1
19,F,0,1,47,8,1,188,4,2576,0,0.5009112,6.349055,4.376361,-1
19,F,0,1,48,1,1,191,3,2420,1,0.2510272,6.081684,2.255506,-1
19,F,0,1,48,2,1,192,4,3587,2,0.3707276,6.359877,3.175395,-1
19,F,0,1,48,3,2,189,1,4498,3,0.05497322,12.0641,0.2571706,-1
19,F,0,1,48,4,2,190,2,2498,0,0.800799,12.27546,3.700946,-1
19,F,0,1,48,5,2,192,4,1376,0,0.9955256,12.30159,4.521601,-1
19,F,0,1,48,6,1,189,1,3420,3,0.1969287,6.08023,1.796567,-1
19,F,0,1,48,7,2,191,3,998,0,0.532306,12.05129,2.462435,-1
19,F,0,1,48,8,1,190,2,2753,0,3.122605E-07,6.371336,0,-1
19,F,0,1,49,1,2,193,1,2131,2,1.580676E-07,12.14635,0,-1
19,F,0,1,49,2,1,196,4,1598,0,0.4965369,6.372623,4.321689,-1
19,F,0,1,49,3,1,195,3,2365,0,0.4578075,6.112389,4.094621,-1
19,F,0,1,49,4,2,196,4,831,0,0.3534746,12.33128,1.599855,-1
19,F,0,1,49,5,2,195,3,865,0,0.001849363,12.08525,0,-1
19,F,0,1,49,6,2,194,2,1587,0,0.3838809,12.31238,1.764251,-1
19,F,0,1,49,7,1,193,1,1031,0,0.2407418,6.111075,2.16338,-1
19,F,0,1,49,8,1,194,2,1309,0,8.337061E-08,6.379941,0,-1
19,F,0,1,50,1,1,200,4,1876,0,0.4708852,6.377086,4.043122,-1
19,F,0,1,50,2,1,199,3,2098,0,0.2223662,6.103198,1.996844,-1
19,F,0,1,50,3,2,197,1,820,0,0.6267604,12.13569,2.931246,-1
19,F,0,1,50,4,2,198,2,1787,0,0.3838606,12.30065,1.762919,-1
19,F,0,1,50,5,1,197,1,1231,0,0.1523922,6.100955,1.373446,-1
19,F,0,1,50,6,2,199,3,865,0,0.444979,12.08095,2.081401,-1
19,F,0,1,50,7,2,200,4,853,0,0.1885272,12.3269,0.8543211,-1
19,F,0,1,50,8,1,198,2,1687,0,0.290859,6.379235,2.494969,-1
19,F,0,1,51,1,2,203,3,898,0,0.3800111,12.08488,1.761587,-1
19,F,0,1,51,2,2,201,1,898,0,0.6563204,12.14593,3.05723,-1
19,F,0,1,51,3,2,204,4,909,0,0.426418,12.32821,1.931075,-1
19,F,0,1,51,4,1,203,3,1842,1,0.4529259,6.114039,4.063029,-1
19,F,0,1,51,5,2,202,2,1042,0,0.218685,12.30374,1.000147,-1
19,F,0,1,51,6,1,204,4,3698,1,0.3829525,6.384212,3.277097,-1
19,F,0,1,51,7,1,202,2,1009,0,0.1220574,6.379519,1.051088,-1
19,F,0,1,51,8,1,201,1,976,0,0.3083536,6.104784,2.760453,-1
19,F,0,1,52,1,2,208,4,1220,0,0.5578677,12.33648,2.541604,-1
19,F,0,1,52,2,1,206,2,2209,0,1.41267E-07,6.37955,0,-1
19,F,0,1,52,3,1,207,3,1498,0,0.4424183,6.116344,3.952898,-1
19,F,0,1,52,4,2,206,2,2676,0,0.4878405,12.3104,2.239832,-1
19,F,0,1,52,5,2,205,1,1353,1,0.562362,12.13495,2.603388,-1
19,F,0,1,52,6,1,208,4,2209,1,0.3119439,6.373406,2.689773,-1
19,F,0,1,52,7,2,207,3,1020,0,0.308801,12.08541,1.44618,-1
19,F,0,1,52,8,1,205,1,809,0,0.1350353,6.098569,1.213537,-1
19,F,0,1,53,1,1,211,3,1176,0,0.5231602,6.108608,4.698446,-1
19,F,0,1,53,2,1,210,2,920,0,0.5188882,6.366284,4.462824,-1
19,F,0,1,53,3,1,209,1,765,0,5.886137E-08,6.091467,0,-1
19,F,0,1,53,4,2,211,3,1287,0,0.6682529,12.06747,3.136127,-1
19,F,0,1,53,5,2,210,2,709,0,0.3059901,12.29845,1.407643,-1
19,F,0,1,53,6,1,212,4,2198,1,0.1727041,6.377879,1.493314,-1
19,F,0,1,53,7,2,209,1,1409,0,0.6988823,12.14,3.235009,-1
19,F,0,1,53,8,2,212,4,1953,2,0.9964063,12.32421,4.509542,-1
19,F,0,1,54,1,1,214,2,1698,0,1.666979E-07,6.370779,0,-1
19,F,0,1,54,2,2,216,4,1698,1,1.02249,12.32598,4.629735,-1
19,F,0,1,54,3,2,213,1,765,0,0.08153474,12.13748,0.3774237,-1
19,F,0,1,54,4,2,214,2,2842,0,0.4415153,12.30569,2.024391,-1
19,F,0,1,54,5,1,213,1,2698,0,0.1861213,6.101292,1.670467,-1
19,F,0,1,54,6,2,215,3,1165,0,0.3249005,12.07332,1.507401,-1
19,F,0,1,54,7,1,216,4,3031,2,0.483463,6.37489,4.17678,-1
19,F,0,1,54,8,1,215,3,3731,2,0.0567506,6.10163,0.5078341,-1
19,F,0,1,55,1,1,220,4,3154,1,0.3229608,6.372026,2.770151,-1
19,F,0,1,55,2,2,219,3,998,0,0.0429754,12.07944,0.2007689,-1
19,F,0,1,55,3,2,218,2,1698,0,0.2840398,12.30142,1.305813,-1
19,F,0,1,55,4,2,217,1,1065,0,0.7279623,12.13648,3.417186,-1
19,F,0,1,55,5,2,220,4,920,0,8.694222E-08,12.32536,0,-1
19,F,0,1,55,6,1,219,3,1565,0,0.2989741,6.107419,2.676129,-1
19,F,0,1,55,7,1,217,1,1020,0,0.05670748,6.086916,0.5132,-1
19,F,0,1,55,8,1,218,2,2320,0,0.01950852,6.3779,0.166689,-1
19,F,0,1,56,1,1,224,4,1920,0,0.5016652,6.365264,4.370091,-1
19,F,0,1,56,2,1,223,3,3242,0,0.1563131,6.096189,1.403606,-1
19,F,0,1,56,3,1,222,2,2842,0,4.647076E-08,6.376784,0,-1
19,F,0,1,56,4,2,221,1,1109,0,0.5581526,12.11796,2.613518,-1
19,F,0,1,56,5,2,224,4,1054,0,0.5155541,12.3175,2.336908,-1
19,F,0,1,56,6,2,223,3,1587,0,0.775798,12.06916,3.57566,-1
19,F,0,1,56,7,2,222,2,1554,0,0.3242228,12.29647,1.4878,-1
19,F,0,1,56,8,1,221,1,1465,0,0.3110843,6.093311,2.827847,-1
19,F,0,1,57,1,4,228,4,1020,0,0.9557881,12.29746,4.330155,-1
19,F,0,1,57,2,4,226,2,1742,1,0.8216075,12.29233,3.796173,-1
19,F,0,1,57,3,4,225,1,2498,3,0.1050931,12.1028,0.4897892,-1
19,F,0,1,57,4,3,227,3,2620,1,0.1182344,6.077485,1.067896,-1
19,F,0,1,57,5,3,228,4,5020,0,0.07309374,6.359879,0.6293179,-1
19,F,0,1,57,6,3,225,1,1331,0,0.06852877,6.106072,0.6183397,-1
19,F,0,1,57,7,3,226,2,2642,0,0.4713335,6.391682,4.019123,-1
19,F,0,1,57,8,4,227,3,1864,1,0.5201692,12.0334,2.417271,-1
19,F,0,1,58,1,3,232,4,2865,1,0.4031926,6.37475,3.404961,-1
19,F,0,1,58,2,4,230,2,1720,0,0.05208366,12.28752,0.2382111,-1
19,F,0,1,58,3,4,229,1,1065,0,0.5073743,12.08983,2.361237,-1
19,F,0,1,58,4,3,231,3,2498,0,0.1424974,6.080312,1.285727,-1
19,F,0,1,58,5,3,229,1,1842,0,0.07146971,6.081301,0.6498165,-1
19,F,0,1,58,6,4,232,4,3931,1,0.7959824,12.31273,3.610807,-1
19,F,0,1,58,7,4,231,3,942,0,0.7799047,12.08102,3.67919,-1
19,F,0,1,58,8,3,230,2,1609,0,0.2125524,6.370919,1.838666,-1
19,F,0,1,59,1,4,235,3,831,0,0.5838562,12.07814,2.735808,-1
19,F,0,1,59,2,4,233,1,987,0,0.73945,12.0745,3.479078,-1
19,F,0,1,59,3,4,236,4,1976,0,0.4930723,12.29299,2.23134,-1
19,F,0,1,59,4,4,234,2,1976,2,0.003016707,12.26498,0,-1
19,F,0,1,59,5,3,233,1,787,0,0.2784883,6.086225,2.561702,-1
19,F,0,1,59,6,3,234,2,1831,0,1.68611E-07,6.381135,0,-1
19,F,0,1,59,7,3,236,4,2209,0,0.08609059,6.351412,0.7420408,-1
19,F,0,1,59,8,3,235,3,2109,0,0.173665,6.09011,1.563855,-1
19,F,0,1,60,1,4,240,4,2642,0,0.3042203,12.28854,1.386633,-1
19,F,0,1,60,2,4,238,2,3776,2,0.0763753,12.28647,0.3488659,-1
19,F,0,1,60,3,3,239,3,2231,0,2.477248E-07,6.093295,0,-1
19,F,0,1,60,4,3,237,1,1431,1,5.102164E-08,6.093321,0,-1
19,F,0,1,60,5,4,239,3,2776,1,0.7783308,12.07196,3.612,-1
19,F,0,1,60,6,3,240,4,5176,4,0.3418027,6.372632,2.978941,-1
19,F,0,1,60,7,4,237,1,3698,1,0.8793398,12.1215,4.112232,-1
19,F,0,1,60,8,3,238,2,2164,0,0.05639043,6.359879,0.4809199,-1
19,F,0,1,61,1,1,241,1,987,0,3.03843E-08,6.084915,0,-1
19,F,0,1,61,2,2,242,2,1409,0,0.2883592,12.28785,1.311346,-1
19,F,0,1,61,3,2,244,4,1076,0,0.3843262,12.30898,1.737988,-1
19,F,0,1,61,4,2,243,3,1220,0,0.1994474,12.05851,0.9251386,-1
19,F,0,1,61,5,1,242,2,1453,0,0.106704,6.371644,0.9117159,-1
19,F,0,1,61,6,1,243,3,1153,0,0.4992141,6.090716,4.495665,-1
19,F,0,1,61,7,2,241,1,1076,0,0.4996122,12.12802,2.321783,-1
19,F,0,1,61,8,1,244,4,1398,0,0.3832203,6.375021,3.320187,-1
19,F,0,1,62,1,1,245,1,764,0,0.2896627,6.156371,2.632101,-1
19,F,0,1,62,2,2,248,4,1253,0,0.2801539,12.35289,1.279625,-1
19,F,0,1,62,3,1,247,3,1665,0,0.4504095,6.119616,4.023019,-1
19,F,0,1,62,4,2,246,2,1231,1,0.612289,12.33231,2.779181,-1
19,F,0,1,62,5,2,247,3,1365,0,0.4391934,12.09627,2.036824,-1
19,F,0,1,62,6,1,246,2,2931,0,0.3790359,6.397924,3.242987,-1
19,F,0,1,62,7,2,245,1,1176,0,8.516746E-08,12.1671,0,-1
19,F,0,1,62,8,1,248,4,1654,0,0.1760215,6.398119,1.492528,-1
19,F,0,1,1,1,8,1,1,11607,0,9.678047,12.18901,52.56071,-1
19,F,0,1,1,2,7,4,4,6064,0,6.110082,6.456819,71.13784,-1
19,F,0,1,1,3,5,2,2,4142,0,4.775528,6.438689,47.87579,-1
19,F,0,1,1,4,6,3,3,10453,0,2.04657,12.14479,9.459744,-1
19,F,0,1,1,5,6,2,2,7931,0,7.541219E-08,12.36818,0,-1
19,F,0,1,1,6,8,3,3,9509,0,0.9389818,12.16187,4.308026,-1
19,F,0,1,1,7,8,4,4,9275,0,7.464674,12.38181,37.076,-1
19,F,0,1,1,8,5,3,3,10942,0,0.5621449,6.181321,4.983226,-1
19,F,0,1,1,9,6,1,1,7020,0,0.02752034,12.20818,0.1266688,-1
19,F,0,1,1,10,8,2,2,7331,0,8.289153,12.40667,41.92218,-1
19,F,0,1,1,11,7,1,1,2776,0,1.895833,6.155997,17.81581,-1
19,F,0,1,1,12,6,4,4,2398,0,3.527295,12.40505,16.33544,-1
19,F,0,1,1,13,7,2,2,7998,0,0.3215425,6.425022,2.752926,-1
19,F,0,1,1,14,5,4,4,11075,0,4.671381,6.461042,44.39663,-1
19,F,0,1,1,15,7,3,3,1976,0,4.708807,6.279631,48.57773,-1
19,F,0,1,1,16,5,1,1,8320,0,2.361765,6.239644,22.2414,-1
19,F,0,1,2,1,5,4,4,10909,0,4.522458,6.507444,42.25345,-1
19,F,0,1,2,2,8,3,3,4309,0,5.124143,12.24228,24.52157,-1
19,F,0,1,2,3,8,2,2,5976,0,1.487007,12.46883,6.672591,-1
19,F,0,1,2,4,7,4,4,2309,0,3.088716,6.514153,27.28275,-1
19,F,0,1,2,5,7,2,2,2031,0,6.40504,6.515156,79.45092,-1
19,F,0,1,2,6,6,3,3,5720,0,5.093606,12.25725,24.33155,-1
19,F,0,1,2,7,8,1,1,1742,0,1.373671,12.26409,6.39338,-1
19,F,0,1,2,8,6,4,4,3608,0,10.3217,12.5025,55.64646,-1
19,F,0,1,2,9,6,1,1,1665,0,6.89634,12.28061,34.16399,-1
19,F,0,1,2,10,6,2,2,1765,0,2.282547,12.43878,10.31578,-1
19,F,0,1,2,11,5,3,3,1453,0,0.30487,6.255498,2.673422,-1
19,F,0,1,2,12,5,1,1,2353,0,3.802086,6.250257,37.46732,-1
19,F,0,1,2,13,7,3,3,6142,0,6.273935,6.327246,82.5571,-1
19,F,0,1,2,14,8,4,4,1731,0,2.957702,12.45967,13.33782,-1
19,F,0,1,2,15,5,2,2,8286,0,2.476861,6.445138,21.52611,-1
19,F,0,1,2,16,7,1,1,887,0,1.017943,6.185874,9.024671,-1
