Age, Gender, Awareness Type, Session, Block, Trial, Set, Pattern, Quadrant, Response Time, Num Mistakes, Distance From Target, Camera Distance From Target, Angle Error (Degrees), FC Response
18,F,0,1,1,1,1,2,2,1998,0,0.3269685,6.296498,2.821333,-1
18,F,0,1,1,2,1,1,1,2442,0,0.1521781,6.093791,1.386492,-1
18,F,0,1,1,3,2,3,3,4942,1,0.8524613,12.06891,4.019513,-1
18,F,0,1,1,4,2,4,4,4809,1,0.3947317,12.25607,1.814775,-1
18,F,0,1,1,5,1,3,3,2642,0,0.4550417,6.331803,4.010539,-1
18,F,0,1,1,6,1,4,4,9999,2,-1,-1,-1,-1
18,F,0,1,1,7,2,2,2,2142,0,0.8456506,12.38254,3.822542,-1
18,F,0,1,1,8,2,1,1,2476,0,0.7378871,12.19872,3.417874,-1
18,F,0,1,2,1,1,8,4,9999,3,-1,-1,-1,-1
18,F,0,1,2,2,1,6,2,9999,2,-1,-1,-1,-1
18,F,0,1,2,3,1,7,3,9999,3,-1,-1,-1,-1
18,F,0,1,2,4,2,6,2,5431,2,1.045907,12.39187,4.721777,-1
18,F,0,1,2,5,2,8,4,9999,3,-1,-1,-1,-1
18,F,0,1,2,6,1,5,1,2531,0,0.4372514,6.085195,4.007998,-1
18,F,0,1,2,7,2,7,3,9999,2,-1,-1,-1,-1
18,F,0,1,2,8,2,5,1,9999,5,-1,-1,-1,-1
18,F,0,1,3,1,2,11,3,9999,0,-1,-1,-1,-1
18,F,0,1,3,2,1,12,4,9009,2,0.4922188,6.504292,4.13607,-1
18,F,0,1,3,3,1,10,2,9999,3,-1,-1,-1,-1
18,F,0,1,3,4,2,12,4,9999,1,-1,-1,-1,-1
18,F,0,1,3,5,1,9,1,9664,2,0.512494,6.094683,4.655431,-1
18,F,0,1,3,6,1,11,3,7909,2,0.1194283,6.324812,1.039105,-1
18,F,0,1,3,7,2,10,2,2864,1,0.6342863,12.35185,2.870581,-1
18,F,0,1,3,8,2,9,1,9999,4,-1,-1,-1,-1
18,F,0,1,4,1,2,14,2,1787,0,0.7937033,12.36771,3.615034,-1
18,F,0,1,4,2,1,13,1,7342,3,0.3995472,6.058788,3.701052,-1
18,F,0,1,4,3,2,15,3,2854,0,0.9652742,12.0523,4.552469,-1
18,F,0,1,4,4,1,16,4,4476,0,0.4113557,6.476832,3.482172,-1
18,F,0,1,4,5,1,15,3,4931,1,0.3208305,6.306417,2.827432,-1
18,F,0,1,4,6,2,13,1,7065,2,0.8657004,12.1535,3.98826,-1
18,F,0,1,4,7,1,14,2,2642,1,0.2698239,6.277361,2.34727,-1
18,F,0,1,4,8,2,16,4,7098,2,0.9787791,12.241,4.528829,-1
18,F,0,1,5,1,2,18,2,1409,0,0.2155266,12.39124,0.9753835,-1
18,F,0,1,5,2,1,17,1,2409,0,0.4691516,6.102767,4.357839,-1
18,F,0,1,5,3,2,19,3,3187,1,0.73677,12.07896,3.464076,-1
18,F,0,1,5,4,1,20,4,4376,0,0.5043294,6.49454,4.284411,-1
18,F,0,1,5,5,1,19,3,2865,0,0.2753682,6.347637,2.388353,-1
18,F,0,1,5,6,2,20,4,3020,1,1.029865,12.27344,4.743591,-1
18,F,0,1,5,7,1,18,2,1342,0,0.5093056,6.313872,4.408733,-1
18,F,0,1,5,8,2,17,1,3387,1,0.5799734,12.17907,2.665062,-1
18,F,0,1,6,1,1,24,4,2587,0,0.338631,6.510355,2.837591,-1
18,F,0,1,6,2,2,22,2,1420,0,0.603332,12.4014,2.719374,-1
18,F,0,1,6,3,2,21,1,2864,1,1.041417,12.21269,4.775981,-1
18,F,0,1,6,4,2,24,4,5420,2,0.8352276,12.2632,3.840226,-1
18,F,0,1,6,5,1,23,3,6131,2,0.05687249,6.351102,0.4929749,-1
18,F,0,1,6,6,1,21,1,2587,0,0.3348929,6.102317,3.082293,-1
18,F,0,1,6,7,2,23,3,3342,1,0.5439562,12.09258,2.554203,-1
18,F,0,1,6,8,1,22,2,1876,0,0.3846868,6.317871,3.320305,-1
18,F,0,1,7,1,1,28,4,2609,0,0.5097483,6.504752,4.340771,-1
18,F,0,1,7,2,2,27,3,3742,0,1.000719,12.0748,4.709107,-1
18,F,0,1,7,3,2,28,4,9999,7,-1,-1,-1,-1
18,F,0,1,7,4,1,26,2,1254,0,0.375809,6.315331,3.250946,-1
18,F,0,1,7,5,2,25,1,2009,1,0.7415251,12.18477,3.406801,-1
18,F,0,1,7,6,2,26,2,1031,0,0.9773428,12.36396,4.461464,-1
18,F,0,1,7,7,1,25,1,2087,0,0.4655488,6.095371,4.310753,-1
18,F,0,1,7,8,1,27,3,3109,0,0.114723,6.350108,0.9944565,-1
18,F,0,1,8,1,1,29,1,5920,2,0.3879535,6.060773,3.543814,-1
18,F,0,1,8,2,1,31,3,2709,0,0.1963941,6.355853,1.701344,-1
18,F,0,1,8,3,2,29,1,3620,2,0.9713735,12.18564,4.464448,-1
18,F,0,1,8,4,1,30,2,2087,1,0.1968245,6.294424,1.705135,-1
18,F,0,1,8,5,1,32,4,9999,4,-1,-1,-1,-1
18,F,0,1,8,6,2,31,3,5742,0,0.8212522,12.0772,3.862394,-1
18,F,0,1,8,7,2,32,4,3342,1,0.3750579,12.25589,1.727824,-1
18,F,0,1,8,8,2,30,2,1320,0,0.5603249,12.3694,2.549524,-1
18,F,0,1,9,1,2,35,3,5376,0,0.8374378,12.06427,3.942729,-1
18,F,0,1,9,2,2,36,4,2020,0,1.010586,12.2564,4.670973,-1
18,F,0,1,9,3,2,33,1,2075,0,0.608246,12.18878,2.793092,-1
18,F,0,1,9,4,1,34,2,1498,0,8.093392E-08,6.305998,0,-1
18,F,0,1,9,5,1,33,1,2153,0,0.4299444,6.090444,3.95676,-1
18,F,0,1,9,6,1,36,4,6276,2,0.50346,6.484486,4.290989,-1
18,F,0,1,9,7,2,34,2,5420,3,0.02812735,12.35969,0.1251145,-1
18,F,0,1,9,8,1,35,3,4409,0,0.1848838,6.334375,1.606447,-1
18,F,0,1,10,1,1,37,1,2876,0,0.4784042,6.098445,4.287702,-1
18,F,0,1,10,2,2,39,3,2431,0,0.6289131,12.06809,2.959095,-1
18,F,0,1,10,3,2,37,1,4098,1,0.8963054,12.18169,4.162595,-1
18,F,0,1,10,4,1,38,2,4176,1,0.5253388,6.282544,4.570118,-1
18,F,0,1,10,5,2,40,4,9999,0,-1,-1,-1,-1
18,F,0,1,10,6,1,39,3,7031,2,0.4331933,6.309247,3.779268,-1
18,F,0,1,10,7,1,40,4,5287,1,0.2975427,6.480244,2.552823,-1
18,F,0,1,10,8,2,38,2,1131,0,1.026134,12.38619,4.649705,-1
18,F,0,1,11,1,1,41,1,5742,3,0.3198016,6.103738,2.867374,-1
18,F,0,1,11,2,2,44,4,9999,8,-1,-1,-1,-1
18,F,0,1,11,3,2,42,2,1542,0,0.3279451,12.38991,1.494755,-1
18,F,0,1,11,4,1,44,4,2076,0,0.3199201,6.484056,2.682923,-1
18,F,0,1,11,5,2,43,3,3720,0,0.208983,12.07969,0.9747815,-1
18,F,0,1,11,6,1,42,2,4231,1,0.5242059,6.308637,4.667533,-1
18,F,0,1,11,7,1,43,3,3554,0,8.960163E-08,6.354759,0,-1
18,F,0,1,11,8,2,41,1,2543,0,0.7883866,12.21165,3.614167,-1
18,F,0,1,12,1,1,47,3,9999,2,-1,-1,-1,-1
18,F,0,1,12,2,2,46,2,987,0,0.6225734,12.3848,2.807422,-1
18,F,0,1,12,3,1,48,4,3053,0,0.2939787,6.479875,2.48955,-1
18,F,0,1,12,4,1,46,2,1387,0,0.3795112,6.321398,3.311093,-1
18,F,0,1,12,5,2,48,4,2876,0,0.3743194,12.2661,1.727031,-1
18,F,0,1,12,6,1,45,1,2253,0,0.4501003,6.106139,4.03682,-1
18,F,0,1,12,7,2,47,3,9087,4,0.9038404,12.05362,4.240763,-1
18,F,0,1,12,8,2,45,1,7009,1,0.5565717,12.18493,2.556424,-1
18,F,0,1,13,1,1,51,3,3365,0,0.3032078,6.349519,2.642121,-1
18,F,0,1,13,2,2,49,1,1709,0,0.4226197,12.21051,1.952041,-1
18,F,0,1,13,3,1,50,2,2720,1,0.1467747,6.294837,1.273032,-1
18,F,0,1,13,4,2,51,3,5709,0,0.7426258,12.06857,3.504869,-1
18,F,0,1,13,5,1,52,4,3375,0,0.2722212,6.482047,2.297547,-1
18,F,0,1,13,6,1,49,1,1764,0,0.3960377,6.094997,3.606683,-1
18,F,0,1,13,7,2,52,4,2253,0,0.1435636,12.26566,0.659382,-1
18,F,0,1,13,8,2,50,2,909,0,0.6273187,12.37739,2.830477,-1
18,F,0,1,14,1,1,55,3,3431,0,0.3361751,6.342461,2.918328,-1
18,F,0,1,14,2,2,54,2,1453,1,0.8071046,12.38455,3.702004,-1
18,F,0,1,14,3,2,56,4,4187,1,0.6566553,12.26303,3.031509,-1
18,F,0,1,14,4,1,54,2,1476,0,0.4115879,6.311498,3.536181,-1
18,F,0,1,14,5,2,55,3,2976,0,0.6590369,12.07528,3.099015,-1
18,F,0,1,14,6,1,53,1,2276,0,0.3414591,6.094788,3.066054,-1
18,F,0,1,14,7,1,56,4,2453,0,0.3682604,6.484442,3.158891,-1
18,F,0,1,14,8,2,53,1,9999,5,-1,-1,-1,-1
18,F,0,1,15,1,2,59,3,9999,3,-1,-1,-1,-1
18,F,0,1,15,2,1,57,1,3620,2,0.03463996,6.085789,0.3127867,-1
18,F,0,1,15,3,1,59,3,4409,2,0.400244,6.33958,3.47677,-1
18,F,0,1,15,4,1,60,4,3731,0,0.3249539,6.4877,2.716349,-1
18,F,0,1,15,5,1,58,2,1931,0,0.1218375,6.304919,1.046611,-1
18,F,0,1,15,6,2,60,4,7520,4,0.5086708,12.26167,2.337829,-1
18,F,0,1,15,7,2,57,1,2042,0,0.6227484,12.19772,2.885001,-1
18,F,0,1,15,8,2,58,2,1609,1,0.6604726,12.37647,3.003809,-1
18,F,0,1,16,1,1,64,4,3487,0,0.05362336,6.493454,0.4541341,-1
18,F,0,1,16,2,2,62,2,1209,0,0.01044346,12.39174,0.04423466,-1
18,F,0,1,16,3,2,61,1,9842,5,0.3914763,12.19085,1.796894,-1
18,F,0,1,16,4,1,63,3,3553,0,2.416444E-07,6.357594,0,-1
18,F,0,1,16,5,1,62,2,5998,3,0.4962546,6.289539,4.311616,-1
18,F,0,1,16,6,1,61,1,4898,3,0.1557759,6.082861,1.42189,-1
18,F,0,1,16,7,2,63,3,4576,1,0.08980763,12.0833,0.4173099,-1
18,F,0,1,16,8,2,64,4,3209,0,0.8592205,12.27818,3.945807,-1
18,F,0,1,17,1,4,66,2,5009,0,0.9913929,12.36499,4.559563,-1
18,F,0,1,17,2,3,65,1,1742,0,0.5121064,6.09417,4.712849,-1
18,F,0,1,17,3,3,68,4,2320,0,0.08493475,6.476305,0.7129927,-1
18,F,0,1,17,4,3,67,3,2220,0,1.32792E-07,6.339665,0,-1
18,F,0,1,17,5,4,65,1,2131,0,0.5012273,12.20816,2.297377,-1
18,F,0,1,17,6,3,66,2,2376,1,0.2644015,6.267439,2.292089,-1
18,F,0,1,17,7,4,68,4,1576,0,0.4459095,12.2755,2.053856,-1
18,F,0,1,17,8,4,67,3,4442,3,0.5911119,12.07659,2.77904,-1
18,F,0,1,18,1,3,70,2,2398,2,0.4466392,6.313829,3.971826,-1
18,F,0,1,18,2,3,71,3,7953,0,0.002717711,6.385735,0.02797646,-1
18,F,0,1,18,3,3,69,1,1898,0,0.4466321,6.077539,4.088542,-1
18,F,0,1,18,4,4,70,2,1365,0,0.09983848,12.34569,0.453703,-1
18,F,0,1,18,5,4,69,1,2209,0,0.5326028,12.16123,2.484907,-1
18,F,0,1,18,6,4,72,4,4609,0,1.013923,12.31049,4.665308,-1
18,F,0,1,18,7,4,71,3,2253,0,1.009875,12.07962,4.778154,-1
18,F,0,1,18,8,3,72,4,4864,2,0.161857,6.47222,1.354364,-1
18,F,0,1,19,1,4,74,2,1065,0,0.2661617,12.35428,1.20496,-1
18,F,0,1,19,2,4,75,3,6431,4,0.5506153,12.10126,2.591179,-1
18,F,0,1,19,3,4,76,4,5331,0,0.6393368,12.32218,2.918664,-1
18,F,0,1,19,4,4,73,1,2165,1,0.7647218,12.20576,3.499111,-1
18,F,0,1,19,5,3,75,3,6587,0,0.0686313,6.377324,0.5924829,-1
18,F,0,1,19,6,3,73,1,2698,0,0.4254599,6.107793,3.804159,-1
18,F,0,1,19,7,3,74,2,1987,1,0.4598647,6.282104,4.022776,-1
18,F,0,1,19,8,3,76,4,3676,1,0.4352855,6.537252,3.655431,-1
18,F,0,1,20,1,4,77,1,4442,3,0.3747602,12.14271,1.726918,-1
18,F,0,1,20,2,3,79,3,5031,0,0.351684,6.379333,3.035897,-1
18,F,0,1,20,3,4,78,2,6231,2,1.003224,12.4058,4.593163,-1
18,F,0,1,20,4,3,80,4,7153,1,0.3347018,6.534868,2.834485,-1
18,F,0,1,20,5,4,79,3,4064,1,0.4198247,12.08623,1.969111,-1
18,F,0,1,20,6,3,78,2,3276,0,0.1633189,6.285695,1.413054,-1
18,F,0,1,20,7,3,77,1,3365,1,0.1510478,6.067977,1.366017,-1
18,F,0,1,20,8,4,80,4,9999,2,-1,-1,-1,-1
18,F,0,1,20,1,1,78,2,1431,0,0.1971996,6.27774,1.707659,-1
18,F,0,1,20,2,2,80,4,3187,0,0.8046476,12.2888,3.707448,-1
18,F,0,1,20,3,2,77,1,3420,1,0.5507504,12.17056,2.549217,-1
18,F,0,1,20,4,2,78,2,1009,0,0.5778731,12.36582,2.629794,-1
18,F,0,1,20,5,1,77,1,2765,1,0.2931954,6.072426,2.641306,-1
18,F,0,1,20,6,2,79,3,9999,1,-1,-1,-1,-1
18,F,0,1,20,7,1,80,4,5742,3,0.2913605,6.499484,2.484277,-1
18,F,0,1,20,8,1,79,3,5298,3,0.4882154,6.379858,4.213055,-1
18,F,0,1,21,1,1,82,2,1776,0,0.3166087,6.32359,2.693917,-1
18,F,0,1,21,2,1,84,4,2865,0,0.0652831,6.516909,0.5510744,-1
18,F,0,1,21,3,2,81,1,1220,0,0.4874959,12.23702,2.232743,-1
18,F,0,1,21,4,2,84,4,1987,0,0.5114106,12.29714,2.343849,-1
18,F,0,1,21,5,2,83,3,6509,1,0.6574712,12.10259,3.090665,-1
18,F,0,1,21,6,1,81,1,5276,0,0.08499441,6.123921,0.7636142,-1
18,F,0,1,21,7,1,83,3,3009,0,0.2764309,6.391425,2.403873,-1
18,F,0,1,21,8,2,82,2,1198,0,0.03985992,12.40099,0.1802258,-1
18,F,0,1,22,1,2,85,1,4909,0,0.8240432,12.22722,3.814543,-1
18,F,0,1,22,2,2,87,3,2742,0,0.4235564,12.10702,1.979915,-1
18,F,0,1,22,3,2,86,2,9999,5,-1,-1,-1,-1
18,F,0,1,22,4,1,85,1,2209,1,0.1721584,6.106176,1.54649,-1
18,F,0,1,22,5,1,88,4,3920,0,0.288237,6.51074,2.436144,-1
18,F,0,1,22,6,1,87,3,3387,0,0.09071431,6.383584,0.7820969,-1
18,F,0,1,22,7,2,88,4,2987,0,7.886846E-08,12.29733,0,-1
18,F,0,1,22,8,1,86,2,1331,0,0.3599066,6.306578,3.116966,-1
18,F,0,1,23,1,1,92,4,6509,1,0.4821017,6.525849,4.039391,-1
18,F,0,1,23,2,1,89,1,4209,0,0.391839,6.116241,3.546189,-1
18,F,0,1,23,3,1,90,2,1354,0,1.08255E-07,6.301814,0,-1
18,F,0,1,23,4,1,91,3,3253,0,0.1500947,6.382061,1.297544,-1
18,F,0,1,23,5,2,90,2,1654,1,0.9754644,12.39166,4.47317,-1
18,F,0,1,23,6,2,89,1,1687,0,0.3719112,12.20619,1.704791,-1
18,F,0,1,23,7,2,91,3,4398,1,0.6961539,12.09896,3.267285,-1
18,F,0,1,23,8,2,92,4,1776,0,7.405958E-08,12.28096,0,-1
18,F,0,1,24,1,1,93,1,1565,0,0.2447716,6.116083,2.189905,-1
18,F,0,1,24,2,1,94,2,1165,0,0.3353706,6.303443,2.862113,-1
18,F,0,1,24,3,2,93,1,1387,0,1.038031,12.19906,4.801834,-1
18,F,0,1,24,4,1,95,3,2987,0,5.505976E-08,6.379783,0,-1
18,F,0,1,24,5,2,96,4,2576,0,0.7363865,12.28797,3.383851,-1
18,F,0,1,24,6,2,94,2,931,0,0.6565446,12.38455,2.967749,-1
18,F,0,1,24,7,2,95,3,2653,0,0.8826886,12.1041,4.142363,-1
18,F,0,1,24,8,1,96,4,2198,0,0.478123,6.502023,3.986246,-1
18,F,0,1,25,1,2,98,2,1120,0,0.376887,12.38714,1.727371,-1
18,F,0,1,25,2,2,100,4,2165,0,0.6794296,12.29598,3.114893,-1
18,F,0,1,25,3,1,98,2,1298,0,2.797167E-07,6.302758,0,-1
18,F,0,1,25,4,2,99,3,4031,0,0.9643632,12.09612,4.529391,-1
18,F,0,1,25,5,1,97,1,1398,0,0.1706712,6.123253,1.528671,-1
18,F,0,1,25,6,1,99,3,2298,0,0.354102,6.383519,3.086926,-1
18,F,0,1,25,7,2,97,1,9999,8,-1,-1,-1,-1
18,F,0,1,25,8,1,100,4,4431,1,0.03799346,6.522108,0.3195939,-1
18,F,0,1,26,1,2,102,2,1587,1,0.4109672,12.39588,1.868546,-1
18,F,0,1,26,2,1,103,3,2887,0,0.1134828,6.384472,0.9783881,-1
18,F,0,1,26,3,2,104,4,2054,0,0.6812713,12.29098,3.124432,-1
18,F,0,1,26,4,2,101,1,2642,2,0.6941563,12.20538,3.183707,-1
18,F,0,1,26,5,1,104,4,3565,1,0.3182559,6.512727,2.717574,-1
18,F,0,1,26,6,1,101,1,2631,0,0.03726072,6.115408,0.3357179,-1
18,F,0,1,26,7,1,102,2,1487,0,0.3789399,6.30588,3.264048,-1
18,F,0,1,26,8,2,103,3,4620,0,0.8062997,12.10904,3.781754,-1
18,F,0,1,27,1,2,105,1,6087,1,0.8632659,12.1935,3.968916,-1
18,F,0,1,27,2,1,108,4,3042,1,0.03502366,6.51582,0.2934199,-1
18,F,0,1,27,3,1,107,3,5265,0,0.04833338,6.390977,0.4154301,-1
18,F,0,1,27,4,2,108,4,2620,0,0.8920074,12.30357,4.088351,-1
18,F,0,1,27,5,2,106,2,1354,0,0.676713,12.38868,3.07568,-1
18,F,0,1,27,6,1,105,1,2587,0,0.1932107,6.116964,1.731445,-1
18,F,0,1,27,7,2,107,3,3676,1,0.2054228,12.09719,0.9565441,-1
18,F,0,1,27,8,1,106,2,1542,0,0.3260445,6.305003,2.824107,-1
18,F,0,1,28,1,1,112,4,2687,1,0.115673,6.51054,0.9805858,-1
18,F,0,1,28,2,1,109,1,9999,0,-1,-1,-1,-1
18,F,0,1,28,3,1,110,2,1331,0,0.06608807,6.304225,0.569239,-1
18,F,0,1,28,4,2,111,3,1853,0,1.009704,12.10905,4.737888,-1
18,F,0,1,28,5,2,109,1,9999,7,-1,-1,-1,-1
18,F,0,1,28,6,2,112,4,4876,1,0.5546718,12.29507,2.523441,-1
18,F,0,1,28,7,2,110,2,831,0,0.2295869,12.39207,1.04155,-1
18,F,0,1,28,8,1,111,3,3298,0,0.1666258,6.379667,1.43763,-1
18,F,0,1,29,1,1,113,1,3742,0,0.238235,6.136863,2.162113,-1
18,F,0,1,29,2,1,116,4,2376,0,0.37213,6.511716,3.095033,-1
18,F,0,1,29,3,1,115,3,3376,0,4.550512E-08,6.390843,0,-1
18,F,0,1,29,4,2,116,4,2365,0,0.7891301,12.29497,3.634373,-1
18,F,0,1,29,5,2,115,3,5065,3,0.7236414,12.08156,3.406628,-1
18,F,0,1,29,6,2,114,2,953,0,0.5049474,12.39797,2.310205,-1
18,F,0,1,29,7,2,113,1,1653,0,1.042681,12.21828,4.77963,-1
18,F,0,1,29,8,1,114,2,1820,0,1.385939E-07,6.307601,0,-1
18,F,0,1,30,1,1,119,3,3576,0,0.07847784,6.383196,0.6772422,-1
18,F,0,1,30,2,1,120,4,3131,1,0.2020553,6.523335,1.696506,-1
18,F,0,1,30,3,2,118,2,853,0,0.2396247,12.39862,1.083359,-1
18,F,0,1,30,4,1,117,1,5997,3,0.2084543,6.071763,1.88076,-1
18,F,0,1,30,5,2,120,4,3187,0,1.020417,12.28736,4.70457,-1
18,F,0,1,30,6,1,118,2,1420,0,0.5340657,6.318302,4.550532,-1
18,F,0,1,30,7,2,119,3,3487,0,1.014967,12.1003,4.78213,-1
18,F,0,1,30,8,2,117,1,2031,1,0.9689841,12.20163,4.476059,-1
18,F,0,1,31,1,2,123,3,2898,0,0.8224475,12.10896,3.862394,-1
18,F,0,1,31,2,2,124,4,2454,0,0.4538551,12.29514,2.064691,-1
18,F,0,1,31,3,1,123,3,2486,0,0.06849694,6.382839,0.5941319,-1
18,F,0,1,31,4,1,124,4,3520,0,0.3698337,6.515598,3.120544,-1
18,F,0,1,31,5,2,121,1,1142,0,0.9019051,12.22307,4.185211,-1
18,F,0,1,31,6,2,122,2,1142,0,0.6550255,12.39314,2.973943,-1
18,F,0,1,31,7,1,121,1,5998,0,0.09385674,6.116854,0.8492672,-1
18,F,0,1,31,8,1,122,2,1875,1,0.1188686,6.308248,1.018564,-1
18,F,0,1,32,1,2,125,1,1742,0,0.7395113,12.20999,3.390498,-1
18,F,0,1,32,2,2,128,4,2442,0,0.6635056,12.2837,3.044333,-1
18,F,0,1,32,3,1,126,2,2820,1,0.4421501,6.309227,3.804417,-1
18,F,0,1,32,4,1,127,3,3064,0,0.3477686,6.375529,3.034349,-1
18,F,0,1,32,5,1,128,4,3764,2,0.2699223,6.5109,2.313592,-1
18,F,0,1,32,6,2,127,3,3253,0,0.5362877,12.09696,2.51684,-1
18,F,0,1,32,7,2,126,2,1186,0,1.048229,12.38967,4.773971,-1
18,F,0,1,32,8,1,125,1,3142,1,0.2449213,6.109095,2.221847,-1
18,F,0,1,33,1,2,131,3,4465,2,0.5166882,12.08819,2.402081,-1
18,F,0,1,33,2,2,132,4,1420,0,0.7217411,12.28044,3.310975,-1
18,F,0,1,33,3,1,129,1,1576,0,0.0455453,6.113647,0.4102162,-1
18,F,0,1,33,4,1,130,2,1653,0,0.1363527,6.307635,1.180183,-1
18,F,0,1,33,5,1,131,3,3087,0,4.203343E-08,6.378593,0,-1
18,F,0,1,33,6,1,132,4,1920,0,0.4277,6.504642,3.573962,-1
18,F,0,1,33,7,2,129,1,2453,2,0.24166,12.205,1.111179,-1
18,F,0,1,33,8,2,130,2,953,0,0.940295,12.37935,4.268566,-1
18,F,0,1,34,1,2,135,3,1643,0,0.3907471,12.09627,1.828313,-1
18,F,0,1,34,2,2,136,4,1487,0,0.7201983,12.28956,3.310679,-1
18,F,0,1,34,3,1,134,2,1598,0,0.387533,6.312174,3.312335,-1
18,F,0,1,34,4,1,135,3,3520,0,0.3772868,6.387381,3.292772,-1
18,F,0,1,34,5,1,133,1,3253,1,0.3676852,6.107296,3.352987,-1
18,F,0,1,34,6,1,136,4,4153,1,0.07480616,6.507746,0.63025,-1
18,F,0,1,34,7,2,134,2,1053,0,0.7483407,12.39882,3.38628,-1
18,F,0,1,34,8,2,133,1,2642,2,0.8517357,12.20569,3.906755,-1
18,F,0,1,35,1,1,139,3,2787,0,0.4186313,6.387384,3.659821,-1
18,F,0,1,35,2,1,140,4,1765,0,0.224219,6.510451,1.869383,-1
18,F,0,1,35,3,2,138,2,1020,0,0.8939884,12.39078,4.069482,-1
18,F,0,1,35,4,2,137,1,1465,0,0.6458367,12.2061,2.961674,-1
18,F,0,1,35,5,2,139,3,5453,1,0.5229226,12.1007,2.451123,-1
18,F,0,1,35,6,2,140,4,1676,0,3.021973E-07,12.28822,0,-1
18,F,0,1,35,7,1,137,1,2331,0,0.05067339,6.107942,0.456712,-1
18,F,0,1,35,8,1,138,2,1620,0,0.2303376,6.301667,1.977343,-1
18,F,0,1,37,1,4,145,1,1609,0,0.3049276,12.16429,1.405696,-1
18,F,0,1,37,2,4,146,2,1387,0,0.07394965,12.39197,0.3351346,-1
18,F,0,1,37,3,4,147,3,4265,0,0.5710143,12.11702,2.636336,-1
18,F,0,1,37,4,3,148,4,4120,1,0.2485429,6.550203,2.101893,-1
18,F,0,1,37,5,3,146,2,1576,0,0.4566501,6.293996,3.954285,-1
18,F,0,1,37,6,3,145,1,2687,0,0.4625905,6.102149,4.130906,-1
18,F,0,1,37,7,3,147,3,3120,0,1.835147E-07,6.337802,0,-1
18,F,0,1,37,8,4,148,4,3387,0,0.4816354,12.2853,2.215672,-1
18,F,0,1,38,1,3,150,2,1365,0,0.3298018,6.328721,2.844137,-1
18,F,0,1,38,2,3,151,3,3498,0,0.2159028,6.378816,1.864037,-1
18,F,0,1,38,3,4,152,4,4753,2,0.5150341,12.28757,2.372484,-1
18,F,0,1,38,4,4,150,2,1031,0,0.2773882,12.36939,1.263156,-1
18,F,0,1,38,5,3,152,4,3553,0,0.3525997,6.535161,2.971309,-1
18,F,0,1,38,6,4,149,1,1731,0,2.154923E-07,12.1928,0,-1
18,F,0,1,38,7,4,151,3,2653,0,0.5694157,12.11027,2.672982,-1
18,F,0,1,38,8,3,149,1,1687,0,0.1396296,6.072657,1.252108,-1
18,F,0,1,39,1,3,154,2,1309,0,0.4714882,6.314521,4.01849,-1
18,F,0,1,39,2,3,156,4,4765,1,0.1307494,6.547821,1.111531,-1
18,F,0,1,39,3,4,154,2,998,0,0.2638709,12.41227,1.196485,-1
18,F,0,1,39,4,4,155,3,5331,0,1.009705,12.12195,4.733255,-1
18,F,0,1,39,5,3,153,1,3109,0,0.4383872,6.116502,3.89953,-1
18,F,0,1,39,6,4,156,4,2587,0,0.7825168,12.289,3.605597,-1
18,F,0,1,39,7,4,153,1,1909,1,0.3503413,12.21334,1.616768,-1
18,F,0,1,39,8,3,155,3,3187,0,0.4677888,6.35282,4.049994,-1
18,F,0,1,40,1,3,158,2,2731,1,0.02931658,6.317802,0.2556444,-1
18,F,0,1,40,2,3,160,4,1487,0,0.04882593,6.482339,0.410693,-1
18,F,0,1,40,3,3,157,1,1465,0,0.3960824,6.118871,3.537897,-1
18,F,0,1,40,4,4,159,3,2609,1,0.8107166,12.1018,3.800709,-1
18,F,0,1,40,5,4,160,4,1631,0,1.013835,12.2802,4.652274,-1
18,F,0,1,40,6,3,159,3,5276,1,0.467409,6.390373,4.027058,-1
18,F,0,1,40,7,4,158,2,909,0,0.7619323,12.39881,3.470062,-1
18,F,0,1,40,8,4,157,1,1520,0,0.1404001,12.21346,0.6452838,-1
18,F,0,1,41,1,1,163,3,3964,0,0.4260916,6.389553,3.670878,-1
18,F,0,1,41,2,1,162,2,3698,2,0.03182222,6.30322,0.276953,-1
18,F,0,1,41,3,1,161,1,3776,0,1.163481E-07,6.119573,0.01978234,-1
18,F,0,1,41,4,2,164,4,1942,0,0.3523429,12.28816,1.621241,-1
18,F,0,1,41,5,2,162,2,2076,2,0.03708955,12.38988,0.1678588,-1
18,F,0,1,41,6,2,161,1,1831,1,0.9360044,12.21362,4.33219,-1
18,F,0,1,41,7,2,163,3,3187,0,0.262775,12.0982,1.223493,-1
18,F,0,1,41,8,1,164,4,2787,0,0.1690858,6.519633,1.425052,-1
18,F,0,1,42,1,2,165,1,1809,1,1.006857,12.20719,4.672945,-1
18,F,0,1,42,2,1,166,2,2009,0,0.4662608,6.305808,4.042637,-1
18,F,0,1,42,3,2,167,3,6709,5,0.4354626,12.08664,2.040184,-1
18,F,0,1,42,4,2,166,2,1409,0,0.633421,12.38739,2.866009,-1
18,F,0,1,42,5,1,168,4,2342,0,0.3867792,6.507339,3.291464,-1
18,F,0,1,42,6,1,167,3,4631,0,0.3233688,6.375783,2.806934,-1
18,F,0,1,42,7,2,168,4,2253,0,1.004565,12.28864,4.611719,-1
18,F,0,1,42,8,1,165,1,2371,0,0.1321902,6.118708,1.186137,-1
18,F,0,1,43,1,1,171,3,2709,0,0.3010547,6.378503,2.606919,-1
18,F,0,1,43,2,2,169,1,1275,0,0.13419,12.21738,0.616438,-1
18,F,0,1,43,3,2,170,2,1098,0,0.3753591,12.38962,1.700308,-1
18,F,0,1,43,4,1,172,4,2831,1,1.623441E-08,6.510312,0,-1
18,F,0,1,43,5,1,169,1,4231,0,0.115099,6.122369,1.033061,-1
18,F,0,1,43,6,2,172,4,2453,0,0.7465069,12.28978,3.432621,-1
18,F,0,1,43,7,2,171,3,3587,1,1.004663,12.10542,4.722026,-1
18,F,0,1,43,8,1,170,2,1564,0,0.4066225,6.319723,3.462323,-1
18,F,0,1,44,1,1,176,4,3776,1,0.1151548,6.508845,0.9765865,-1
18,F,0,1,44,2,2,175,3,2476,1,0.4745372,12.11184,2.200159,-1
18,F,0,1,44,3,2,173,1,1364,0,0.6502375,12.21816,2.979007,-1
18,F,0,1,44,4,1,174,2,1509,0,0.2133529,6.311493,1.835257,-1
18,F,0,1,44,5,1,175,3,1909,0,0.09914689,6.379412,0.8556943,-1
18,F,0,1,44,6,2,176,4,2687,0,1.153701E-07,12.29695,0,-1
18,F,0,1,44,7,1,173,1,2342,0,0.2098531,6.114526,1.879511,-1
18,F,0,1,44,8,2,174,2,1087,0,0.7421441,12.39284,3.363364,-1
18,F,0,1,45,1,1,180,4,3609,1,0.000401574,6.544884,0,-1
18,F,0,1,45,2,1,178,2,1276,1,0.5000751,6.351094,4.248053,-1
18,F,0,1,45,3,1,179,3,2420,0,0.3130915,6.396873,2.720597,-1
18,F,0,1,45,4,2,180,4,1342,0,4.799649E-08,12.3275,0,-1
18,F,0,1,45,5,1,177,1,3720,0,0.4367607,6.161867,3.871206,-1
18,F,0,1,45,6,2,179,3,2053,0,0.3556362,12.15077,1.651735,-1
18,F,0,1,45,7,2,177,1,976,0,1.041354,12.269,4.768838,-1
18,F,0,1,45,8,2,178,2,1031,0,0.4385448,12.42808,1.97566,-1
18,F,0,1,46,1,2,181,1,1720,1,0.6568668,12.25567,3.000288,-1
18,F,0,1,46,2,1,182,2,2676,2,0.03819119,6.339931,0.3274564,-1
18,F,0,1,46,3,1,183,3,2587,0,1.531191E-07,6.403026,0.01978234,-1
18,F,0,1,46,4,2,184,4,2065,0,0.5514044,12.32818,2.531959,-1
18,F,0,1,46,5,1,181,1,3231,2,0.2925936,6.133502,2.609846,-1
18,F,0,1,46,6,2,182,2,742,0,0.6735361,12.43073,3.0328,-1
18,F,0,1,46,7,1,184,4,1309,0,0.2876884,6.534822,2.415083,-1
18,F,0,1,46,8,2,183,3,2209,0,0.7451137,12.14956,3.48324,-1
18,F,0,1,47,1,1,185,1,2709,1,0.3197798,6.133814,2.904747,-1
18,F,0,1,47,2,1,187,3,6298,3,1.577113E-07,6.391605,0,-1
18,F,0,1,47,3,2,185,1,1942,1,0.8264334,12.25326,3.776676,-1
18,F,0,1,47,4,1,186,2,1120,0,0.4512368,6.337191,3.83941,-1
18,F,0,1,47,5,1,188,4,3120,1,0.2067326,6.541483,1.750889,-1
18,F,0,1,47,6,2,187,3,5231,2,1.006265,12.12143,4.735614,-1
18,F,0,1,47,7,2,188,4,2520,0,0.7144454,12.3192,3.28056,-1
18,F,0,1,47,8,2,186,2,1987,1,0.8482909,12.42718,3.811205,-1
18,F,0,1,48,1,2,192,4,2720,1,2.35903E-07,12.32083,0,-1
18,F,0,1,48,2,1,191,3,4076,0,0.06925262,6.397091,0.5957764,-1
18,F,0,1,48,3,1,190,2,1465,0,0.2639464,6.34086,2.273311,-1
18,F,0,1,48,4,1,192,4,2120,0,0.248237,6.532174,2.060991,-1
18,F,0,1,48,5,2,189,1,1554,0,0.8295959,12.26718,3.830424,-1
18,F,0,1,48,6,2,190,2,965,0,0.88603,12.42999,3.981724,-1
18,F,0,1,48,7,1,189,1,4598,0,0.4308135,6.151048,3.837063,-1
18,F,0,1,48,8,2,191,3,2964,0,0.5853332,12.14715,2.73924,-1
18,F,0,1,49,1,1,194,2,1442,0,0.4963991,6.340392,4.267786,-1
18,F,0,1,49,2,1,195,3,3487,0,0.3643541,6.402231,3.168359,-1
18,F,0,1,49,3,1,196,4,3598,1,0.1307292,6.543437,1.099851,-1
18,F,0,1,49,4,2,195,3,2265,0,0.0294501,12.15293,0.1356209,-1
18,F,0,1,49,5,2,194,2,809,0,0.371323,12.43918,1.678764,-1
18,F,0,1,49,6,1,193,1,1953,0,0.2895915,6.150818,2.57671,-1
18,F,0,1,49,7,2,196,4,1742,0,0.9921888,12.32691,4.541096,-1
18,F,0,1,49,8,2,193,1,1809,1,0.4389614,12.26261,2.003498,-1
18,F,0,1,50,1,1,200,4,4398,1,0.0802916,6.541976,0.66998,-1
18,F,0,1,50,2,2,198,2,798,0,0.2280658,12.44513,1.027554,-1
18,F,0,1,50,3,1,197,1,1376,0,0.06753357,6.158014,0.6032831,-1
18,F,0,1,50,4,1,198,2,3020,2,0.4013944,6.345415,3.405881,-1
18,F,0,1,50,5,2,199,3,4887,0,8.095493E-08,12.14762,0,-1
18,F,0,1,50,6,2,197,1,1342,0,0.9393904,12.27072,4.311525,-1
18,F,0,1,50,7,2,200,4,3142,0,0.7638304,12.32766,3.506154,-1
18,F,0,1,50,8,1,199,3,4965,0,0.4750414,6.39641,4.147985,-1
18,F,0,1,51,1,1,204,4,3520,0,0.4547888,6.53343,3.802615,-1
18,F,0,1,51,2,2,203,3,1809,0,0.4214152,12.14934,1.960844,-1
18,F,0,1,51,3,1,202,2,1376,0,0.4658338,6.34343,3.989831,-1
18,F,0,1,51,4,1,203,3,4209,1,1.190428E-07,6.399837,0,-1
18,F,0,1,51,5,2,201,1,1831,1,0.7466365,12.25334,3.41151,-1
18,F,0,1,51,6,2,204,4,2020,0,0.6510867,12.3299,2.989699,-1
18,F,0,1,51,7,1,201,1,2009,0,0.0740153,6.14423,0.6661724,-1
18,F,0,1,51,8,2,202,2,1009,0,0.01280876,12.43563,0.05934703,-1
18,F,0,1,52,1,1,208,4,3176,1,0.1251073,6.546298,1.055732,-1
18,F,0,1,52,2,2,205,1,3053,1,0.2528123,12.24886,1.157413,-1
18,F,0,1,52,3,1,207,3,2398,0,0.3971053,6.401614,3.455588,-1
18,F,0,1,52,4,2,208,4,2020,0,0.9443103,12.33662,4.336076,-1
18,F,0,1,52,5,2,207,3,4609,0,0.8168818,12.15129,3.818647,-1
18,F,0,1,52,6,2,206,2,853,0,0.7611398,12.44246,3.446397,-1
18,F,0,1,52,7,1,205,1,7487,1,0.2426716,6.148247,2.160211,-1
18,F,0,1,52,8,1,206,2,1231,0,0.1349425,6.34708,1.148418,-1
18,F,0,1,53,1,1,209,1,4031,0,1.311503E-08,6.147187,0,-1
18,F,0,1,53,2,1,211,3,3698,0,0.4581448,6.414988,3.935819,-1
18,F,0,1,53,3,2,212,4,1909,0,0.2646804,12.33018,1.201219,-1
18,F,0,1,53,4,2,209,1,1876,1,0.5591584,12.23317,2.557955,-1
18,F,0,1,53,5,2,210,2,987,0,0.7209787,12.4154,3.244013,-1
18,F,0,1,53,6,1,212,4,1754,0,0.4590933,6.531031,3.831599,-1
18,F,0,1,53,7,2,211,3,1665,0,0.2274133,12.13249,1.054991,-1
18,F,0,1,53,8,1,210,2,3131,1,0.3991913,6.301745,3.530806,-1
18,F,0,1,54,1,1,216,4,1642,0,7.467987E-08,6.539786,0,-1
18,F,0,1,54,2,2,214,2,2164,1,0.7121702,12.40091,3.206745,-1
18,F,0,1,54,3,2,213,1,1653,1,1.02178,12.23366,4.732469,-1
18,F,0,1,54,4,2,215,3,1453,0,0.189901,12.13694,0.8778186,-1
18,F,0,1,54,5,2,216,4,3442,1,0.8796928,12.32261,4.025501,-1
18,F,0,1,54,6,1,214,2,4331,3,0.2886344,6.294474,2.503506,-1
18,F,0,1,54,7,1,215,3,2909,0,5.067641E-08,6.405424,0,-1
18,F,0,1,54,8,1,213,1,2265,0,0.4186532,6.116705,3.73916,-1
18,F,0,1,55,1,1,218,2,2687,2,0.3530694,6.285538,3.067076,-1
18,F,0,1,55,2,2,217,1,7631,2,0.5646516,12.20596,2.607144,-1
18,F,0,1,55,3,2,219,3,3442,0,0.7507043,12.1199,3.517416,-1
18,F,0,1,55,4,2,220,4,6253,4,0.8392504,12.3225,3.812951,-1
18,F,0,1,55,5,1,219,3,3898,0,0.07687481,6.408063,0.6602717,-1
18,F,0,1,55,6,1,217,1,1441,0,0.1975672,6.124306,1.768904,-1
18,F,0,1,55,7,2,218,2,842,0,0.1762995,12.40436,0.7994187,-1
18,F,0,1,55,8,1,220,4,2242,0,2.78571E-07,6.528326,0,-1
18,F,0,1,56,1,1,221,1,3575,0,0.1501946,6.118262,1.34741,-1
18,F,0,1,56,2,2,224,4,2687,0,0.3388794,12.32509,1.552173,-1
18,F,0,1,56,3,1,222,2,2587,1,0.1406393,6.302446,1.204473,-1
18,F,0,1,56,4,2,221,1,2531,1,0.8382842,12.21517,3.84252,-1
18,F,0,1,56,5,2,223,3,2375,0,0.8189092,12.11615,3.838696,-1
18,F,0,1,56,6,1,224,4,3398,1,0.2367355,6.530632,2.001152,-1
18,F,0,1,56,7,1,223,3,2676,0,0.1632877,6.416677,1.403048,-1
18,F,0,1,56,8,2,222,2,1565,1,0.581656,12.40599,2.662416,-1
18,F,0,1,57,1,4,228,4,2308,0,0.5893275,12.30468,2.675764,-1
18,F,0,1,57,2,4,226,2,887,0,0.7613709,12.43718,3.443612,-1
18,F,0,1,57,3,3,227,3,2820,0,2.723508E-07,6.374287,0,-1
18,F,0,1,57,4,4,225,1,2009,0,0.2405834,12.18028,1.103581,-1
18,F,0,1,57,5,3,226,2,2220,1,0.2470235,6.299305,2.164646,-1
18,F,0,1,57,6,3,228,4,3009,1,1.865787E-07,6.552606,0,-1
18,F,0,1,57,7,4,227,3,3309,0,0.7861918,12.16266,3.670559,-1
18,F,0,1,57,8,3,225,1,3687,0,0.392907,6.07649,3.506266,-1
18,F,0,1,58,1,4,232,4,3387,0,0.3698491,12.33463,1.690034,-1
18,F,0,1,58,2,4,231,3,1598,0,0.841213,12.12589,3.922263,-1
18,F,0,1,58,3,3,232,4,4487,1,0.3075382,6.514864,2.585204,-1
18,F,0,1,58,4,4,230,2,1965,0,0.82184,12.38399,3.735125,-1
18,F,0,1,58,5,3,229,1,4898,0,0.3673053,6.108851,3.275365,-1
18,F,0,1,58,6,3,230,2,1376,0,0.3716082,6.291551,3.17749,-1
18,F,0,1,58,7,4,229,1,1676,0,0.8301364,12.22414,3.802357,-1
18,F,0,1,58,8,3,231,3,4442,0,0.263395,6.350964,2.282248,-1
18,F,0,1,59,1,4,236,4,1565,0,0.8167659,12.30319,3.739474,-1
18,F,0,1,59,2,3,234,2,2476,2,0.3252473,6.290566,2.822998,-1
18,F,0,1,59,3,4,233,1,1709,0,0.7875726,12.16986,3.599293,-1
18,F,0,1,59,4,4,235,3,2720,0,0.6747636,12.12555,3.138623,-1
18,F,0,1,59,5,3,233,1,5153,5,0.4983481,6.060428,4.580009,-1
18,F,0,1,59,6,3,236,4,1164,0,0.3349514,6.498875,2.776856,-1
18,F,0,1,59,7,4,234,2,942,0,0.8132836,12.39402,3.727516,-1
18,F,0,1,59,8,3,235,3,4753,0,5.696843E-08,6.359149,0,-1
18,F,0,1,60,1,4,238,2,1098,0,0.3932544,12.43005,1.776521,-1
18,F,0,1,60,2,3,237,1,2320,1,5.86673E-08,6.087175,0,-1
18,F,0,1,60,3,4,240,4,9999,0,-1,-1,-1,-1
18,F,0,1,60,4,3,238,2,1220,0,0.3579519,6.313798,3.119666,-1
18,F,0,1,60,5,3,240,4,3765,1,1.526577E-07,6.503633,0,-1
18,F,0,1,60,6,3,239,3,2720,0,0.3067531,6.408256,2.635371,-1
18,F,0,1,60,7,4,237,1,1409,0,0.9566076,12.21732,4.385169,-1
18,F,0,1,60,8,4,239,3,3875,0,0.04948341,12.1513,0.2289973,-1
18,F,0,1,61,1,2,242,2,1153,0,0.1573671,12.44351,0.7107937,-1
18,F,0,1,61,2,2,244,4,2176,0,0.09579544,12.33146,0.4352126,-1
18,F,0,1,61,3,2,243,3,2787,0,0.8664176,12.1539,4.049898,-1
18,F,0,1,61,4,1,242,2,1631,1,0.02502794,6.357255,0.2139789,-1
18,F,0,1,61,5,1,241,1,2009,0,0.4167934,6.167451,3.700893,-1
18,F,0,1,61,6,1,244,4,1776,1,1.143208E-07,6.549406,0,-1
18,F,0,1,61,7,2,241,1,1376,0,0.5820109,12.27636,2.653727,-1
18,F,0,1,61,8,1,243,3,3065,0,1.411544E-07,6.401155,0,-1
18,F,0,1,62,1,2,248,4,3031,1,0.9837374,12.33833,4.442899,-1
18,F,0,1,62,2,1,245,1,3942,0,2.308112E-07,6.166543,0,-1
18,F,0,1,62,3,1,247,3,5498,0,0.0396108,6.407937,0.3414966,-1
18,F,0,1,62,4,2,245,1,1998,0,0.5895332,12.26954,2.690718,-1
18,F,0,1,62,5,2,246,2,965,0,0.5389552,12.43631,2.422528,-1
18,F,0,1,62,6,1,248,4,2142,0,0.5582563,6.540086,4.645026,-1
18,F,0,1,62,7,2,247,3,2909,0,0.9437829,12.15247,4.412597,-1
18,F,0,1,62,8,1,246,2,1442,0,0.5383142,6.35741,4.628677,-1
18,F,0,1,1,1,8,2,2,5774,0,3.828608,12.43565,17.88518,-1
18,F,0,1,1,2,6,3,3,1665,0,2.702914,12.156,12.8196,-1
18,F,0,1,1,3,5,1,1,1520,0,1.70001,6.175717,15.60088,-1
18,F,0,1,1,4,7,3,3,2509,0,0.5640856,6.408817,4.876163,-1
18,F,0,1,1,5,5,4,4,2598,0,4.903451,6.566248,48.31101,-1
18,F,0,1,1,6,7,2,2,3965,0,5.617283,6.397456,61.40796,-1
18,F,0,1,1,7,8,1,1,2176,0,8.088296,12.23861,41.35509,-1
18,F,0,1,1,8,6,4,4,1465,0,4.879152,12.3562,22.98852,-1
18,F,0,1,1,9,6,2,2,2009,0,2.305646,12.44889,10.65205,-1
18,F,0,1,1,10,5,3,3,1331,0,5.623373,6.454293,60.58047,-1
18,F,0,1,1,11,7,1,1,1087,0,2.248443,6.142081,21.05514,-1
18,F,0,1,1,12,8,4,4,1776,0,3.258439,12.38259,15.01505,-1
18,F,0,1,1,13,5,2,2,1387,0,5.849531,6.377382,66.52454,-1
18,F,0,1,1,14,8,3,3,2087,0,3.573162,12.16331,17.08353,-1
18,F,0,1,1,15,7,4,4,2509,0,1.770439,6.541547,15.34209,-1
18,F,0,1,1,16,6,1,1,1453,0,7.426125,12.27717,37.21878,-1
18,F,0,1,2,1,6,4,4,2065,0,5.956397,12.32204,28.52144,-1
18,F,0,1,2,2,7,2,2,1476,0,0.9013341,6.377365,7.822778,-1
18,F,0,1,2,3,8,1,1,1765,0,0.9543909,12.22051,4.345777,-1
18,F,0,1,2,4,6,2,2,1520,0,4.400983,12.44947,20.70201,-1
18,F,0,1,2,5,7,1,1,3564,0,0.5195339,6.132369,4.62241,-1
18,F,0,1,2,6,8,3,3,2331,0,0.3337885,12.15856,1.53697,-1
18,F,0,1,2,7,5,4,4,3165,0,4.698624,6.558668,45.75798,-1
18,F,0,1,2,8,6,1,1,1898,0,7.133645,12.26365,35.56892,-1
18,F,0,1,2,9,8,2,2,1298,0,6.487422,12.41289,31.50922,-1
18,F,0,1,2,10,7,3,3,1053,0,5.52992,6.45324,58.94705,-1
18,F,0,1,2,11,5,2,2,4320,0,5.555982,6.393226,60.34751,-1
18,F,0,1,2,12,5,1,1,2831,0,2.468422,6.055892,23.49337,-1
18,F,0,1,2,13,7,4,4,1287,0,1.60461,6.512499,13.64474,-1
18,F,0,1,2,14,6,3,3,4153,0,2.842213,12.10235,13.54201,-1
18,F,0,1,2,15,8,4,4,1387,0,4.74288,12.37546,22.42117,-1
18,F,0,1,2,16,5,3,3,1120,0,5.802577,6.518154,62.77993,-1
