Age, Gender, Awareness Type, Session, Block, Trial, Set, Pattern, Quadrant, Response Time, Num Mistakes, Distance From Target, Camera Distance From Target, Angle Error (Degrees), FC Response
18,F,0,1,1,1,1,2,2,9999,2,-1,-1,-1,-1
18,F,0,1,1,2,1,1,1,9999,4,-1,-1,-1,-1
18,F,0,1,1,3,2,4,4,9999,3,-1,-1,-1,-1
18,F,0,1,1,4,2,3,3,2664,0,2.315475E-07,11.99247,0,-1
18,F,0,1,1,5,2,1,1,3475,0,1.028998,12.05187,4.805463,-1
18,F,0,1,1,6,1,4,4,5142,0,0.2126238,6.358603,1.802331,-1
18,F,0,1,1,7,1,3,3,6076,1,0.1158673,6.076918,1.04155,-1
18,F,0,1,1,8,2,2,2,3576,1,0.9036392,12.26395,4.21087,-1
18,F,0,1,2,1,2,7,3,7320,3,0.7697251,11.93618,3.610319,-1
18,F,0,1,2,2,2,8,4,3587,2,0.3759858,12.23247,1.740913,-1
18,F,0,1,2,3,1,5,1,9453,1,0.5019909,6.031036,4.529262,-1
18,F,0,1,2,4,1,6,2,4120,1,0.3180118,6.404603,2.717069,-1
18,F,0,1,2,5,1,8,4,4553,0,0.461099,6.359867,3.877776,-1
18,F,0,1,2,6,2,6,2,4709,0,0.2923173,12.29488,1.341443,-1
18,F,0,1,2,7,1,7,3,7020,0,0.423343,6.081335,3.833438,-1
18,F,0,1,2,8,2,5,1,3176,1,0.02417096,12.08733,0.1136409,-1
18,F,0,1,3,1,2,12,4,2242,1,0.6138449,12.22735,2.848332,-1
18,F,0,1,3,2,2,11,3,4553,2,0.9261616,12.02323,4.312933,-1
18,F,0,1,3,3,1,12,4,5531,2,0.217269,6.379585,1.846632,-1
18,F,0,1,3,4,1,11,3,4809,0,0.3949852,6.08161,3.550713,-1
18,F,0,1,3,5,1,9,1,6142,2,0.2067148,6.020769,1.872208,-1
18,F,0,1,3,6,2,10,2,2942,0,0.662527,12.29326,3.015582,-1
18,F,0,1,3,7,2,9,1,2843,0,0.5724161,12.09068,2.654022,-1
18,F,0,1,3,8,1,10,2,3031,1,0.05661262,6.397093,0.4792896,-1
18,F,0,1,4,1,2,13,1,2798,1,0.9546162,12.09658,4.435927,-1
18,F,0,1,4,2,2,15,3,4487,2,0.6823241,12.00275,3.208454,-1
18,F,0,1,4,3,1,16,4,3920,1,0.5320936,6.388939,4.519997,-1
18,F,0,1,4,4,1,13,1,9999,1,-1,-1,-1,-1
18,F,0,1,4,5,2,14,2,4231,0,0.4394379,12.27659,2.002325,-1
18,F,0,1,4,6,1,15,3,5087,1,0.2546324,6.081307,2.312153,-1
18,F,0,1,4,7,1,14,2,2731,0,0.5202066,6.372859,4.438708,-1
18,F,0,1,4,8,2,16,4,2220,2,9.32789E-08,12.21483,0,-1
18,F,0,1,5,1,1,19,3,9999,2,-1,-1,-1,-1
18,F,0,1,5,2,2,20,4,1120,0,0.7971951,12.14731,3.640455,-1
18,F,0,1,5,3,1,18,2,2798,0,0.3251363,6.316762,2.796874,-1
18,F,0,1,5,4,2,17,1,1842,0,1.123795E-07,11.98975,0,-1
18,F,0,1,5,5,2,18,2,1998,0,0.2876559,12.20771,1.329427,-1
18,F,0,1,5,6,2,19,3,1631,0,0.617936,11.91713,2.935717,-1
18,F,0,1,5,7,1,17,1,1742,0,0.3086377,5.91467,2.840142,-1
18,F,0,1,5,8,1,20,4,4042,1,7.106969E-08,6.335521,0,-1
18,F,0,1,6,1,1,23,3,5009,0,0.1278777,6.024567,1.154536,-1
18,F,0,1,6,2,1,22,2,2409,1,0.04799962,6.315115,0.4121198,-1
18,F,0,1,6,3,2,23,3,1731,0,0.176879,11.93011,0.8308656,-1
18,F,0,1,6,4,1,21,1,7754,0,0.02416446,5.915568,0.2229358,-1
18,F,0,1,6,5,1,24,4,4109,1,0.2035743,6.334102,1.756357,-1
18,F,0,1,6,6,2,22,2,3586,1,0.7688928,12.1935,3.528365,-1
18,F,0,1,6,7,2,21,1,1553,0,0.6490055,11.98782,3.030217,-1
18,F,0,1,6,8,2,24,4,1209,0,0.6909136,12.1412,3.159201,-1
18,F,0,1,7,1,1,27,3,2453,1,0.3246788,6.027937,2.984719,-1
18,F,0,1,7,2,1,28,4,2409,1,0.2309378,6.330116,1.964434,-1
18,F,0,1,7,3,2,25,1,1498,0,0.02365994,11.99543,0.1101434,-1
18,F,0,1,7,4,2,27,3,1187,0,0.4627254,11.92652,2.192763,-1
18,F,0,1,7,5,2,26,2,1642,0,0.7976708,12.20117,3.658376,-1
18,F,0,1,7,6,2,28,4,1687,1,1.733716E-07,12.14387,0,-1
18,F,0,1,7,7,1,25,1,1420,0,3.995047E-08,5.917876,0,-1
18,F,0,1,7,8,1,26,2,4265,0,0.02454819,6.325104,0.2102893,-1
18,F,0,1,8,1,1,29,1,2287,1,0.4040753,5.917914,3.76416,-1
18,F,0,1,8,2,1,30,2,1687,0,0.4349148,6.313069,3.744497,-1
18,F,0,1,8,3,2,29,1,1787,0,0.2692026,11.98611,1.258966,-1
18,F,0,1,8,4,2,30,2,1898,1,0.5566276,12.20051,2.557266,-1
18,F,0,1,8,5,1,32,4,3809,1,0.09804134,6.335396,0.840466,-1
18,F,0,1,8,6,2,31,3,1765,0,0.170945,11.93229,0.8045425,-1
18,F,0,1,8,7,2,32,4,1931,1,0.06145338,12.14702,0.2839303,-1
18,F,0,1,8,8,1,31,3,3009,0,1.461843E-07,6.03005,0,-1
18,F,0,1,9,1,1,36,4,4042,2,9.371813E-08,6.340096,0,-1
18,F,0,1,9,2,1,33,1,1520,0,8.23574E-09,5.920595,0,-1
18,F,0,1,9,3,2,34,2,1709,0,0.261454,12.20229,1.201871,-1
18,F,0,1,9,4,2,35,3,1142,1,0.9815262,11.92857,4.703779,-1
18,F,0,1,9,5,2,36,4,1065,0,0.8868594,12.14538,4.046995,-1
18,F,0,1,9,6,1,34,2,2820,2,0.04538301,6.321799,0.3901695,-1
18,F,0,1,9,7,2,33,1,1787,0,0.2561668,11.98934,1.199752,-1
18,F,0,1,9,8,1,35,3,1876,0,1.070778E-07,6.039753,0,-1
18,F,0,1,10,1,2,40,4,1208,0,0.02200818,12.14975,0.1008706,-1
18,F,0,1,10,2,2,38,2,1854,0,0.3962288,12.20437,1.819945,-1
18,F,0,1,10,3,2,37,1,1687,0,0.6011353,11.99703,2.795684,-1
18,F,0,1,10,4,2,39,3,1098,0,0.7344536,11.93243,3.494744,-1
18,F,0,1,10,5,1,37,1,1531,0,0.001937682,5.926381,0,-1
18,F,0,1,10,6,1,39,3,2609,0,0.2399469,6.026359,2.197489,-1
18,F,0,1,10,7,1,38,2,2898,0,0.2836205,6.323362,2.420912,-1
18,F,0,1,10,8,1,40,4,3142,1,0.08052696,6.351123,0.6884183,-1
18,F,0,1,11,1,2,41,1,5587,3,0.2692236,11.97871,1.262536,-1
18,F,0,1,11,2,2,43,3,4853,2,0.4089854,11.93152,1.932696,-1
18,F,0,1,11,3,1,42,2,2498,0,0.2960469,6.315107,2.546989,-1
18,F,0,1,11,4,1,41,1,2398,0,0.2264152,5.929774,2.080743,-1
18,F,0,1,11,5,2,42,2,2098,0,0.2802217,12.21677,1.293012,-1
18,F,0,1,11,6,1,44,4,3531,0,0.4759975,6.331148,4.026912,-1
18,F,0,1,11,7,1,43,3,7198,0,0.1676257,6.036923,1.517493,-1
18,F,0,1,11,8,2,44,4,1787,1,0.6581727,12.14958,3.002701,-1
18,F,0,1,12,1,2,45,1,8087,5,0.9516184,11.97881,4.50337,-1
18,F,0,1,12,2,1,46,2,2365,0,0.2958003,6.332555,2.538522,-1
18,F,0,1,12,3,2,48,4,1420,0,0.6130811,12.13981,2.798553,-1
18,F,0,1,12,4,1,47,3,3098,0,0.2576384,6.025404,2.334059,-1
18,F,0,1,12,5,2,46,2,1631,0,0.8274778,12.21347,3.791527,-1
18,F,0,1,12,6,1,48,4,6409,2,0.449443,6.321592,3.817929,-1
18,F,0,1,12,7,2,47,3,1620,0,0.3619248,11.93261,1.693966,-1
18,F,0,1,12,8,1,45,1,1509,0,0.4966089,5.92908,4.550489,-1
18,F,0,1,13,1,2,51,3,1453,0,0.5001844,11.92587,2.35443,-1
18,F,0,1,13,2,1,49,1,1565,0,0.04083007,5.915481,0.3774237,-1
18,F,0,1,13,3,1,50,2,3076,0,0.1665701,6.32322,1.431081,-1
18,F,0,1,13,4,2,52,4,2654,0,0.7637025,12.14329,3.511177,-1
18,F,0,1,13,5,2,49,1,3542,1,0.7557576,11.98477,3.570893,-1
18,F,0,1,13,6,1,51,3,2642,0,0.3513819,6.03034,3.185367,-1
18,F,0,1,13,7,2,50,2,4831,0,0.8998993,12.20076,4.128108,-1
18,F,0,1,13,8,1,52,4,2553,0,0.1702453,6.328167,1.451852,-1
18,F,0,1,14,1,2,54,2,1664,0,0.3786744,12.2143,1.738213,-1
18,F,0,1,14,2,1,53,1,1709,0,0.1951604,5.930191,1.797874,-1
18,F,0,1,14,3,2,56,4,3965,1,0.5169747,12.14774,2.375699,-1
18,F,0,1,14,4,2,55,3,1575,0,0.5121885,11.92932,2.425677,-1
18,F,0,1,14,5,2,53,1,2531,1,0.9903008,11.97034,4.707484,-1
18,F,0,1,14,6,1,54,2,4731,0,0.3947214,6.323439,3.364529,-1
18,F,0,1,14,7,1,55,3,3198,0,1.412524E-07,6.026678,0,-1
18,F,0,1,14,8,1,56,4,3720,1,0.14237,6.335288,1.214343,-1
18,F,0,1,15,1,1,57,1,2909,0,0.1016289,5.914157,0.9448116,-1
18,F,0,1,15,2,1,60,4,4409,1,0.01573215,6.353191,0.1341704,-1
18,F,0,1,15,3,2,57,1,1365,0,0.9979543,11.99446,4.698612,-1
18,F,0,1,15,4,1,59,3,3387,0,0.4150539,6.03581,3.745334,-1
18,F,0,1,15,5,2,58,2,4887,1,0.3215129,12.21667,1.485694,-1
18,F,0,1,15,6,2,59,3,1620,0,0.4036089,11.93709,1.913053,-1
18,F,0,1,15,7,1,58,2,4120,2,0.2053006,6.321681,1.764362,-1
18,F,0,1,15,8,2,60,4,1865,1,0.6813067,12.14768,3.111749,-1
18,F,0,1,16,1,1,63,3,3676,0,0.0262611,6.03851,0.2373883,-1
18,F,0,1,16,2,2,61,1,1287,0,0.7123343,12.00986,3.293961,-1
18,F,0,1,16,3,2,62,2,1865,0,0.8804608,12.21556,4.034006,-1
18,F,0,1,16,4,1,61,1,2498,1,0.2350075,5.922897,2.176098,-1
18,F,0,1,16,5,1,62,2,3798,1,0.4273078,6.338825,3.676049,-1
18,F,0,1,16,6,1,64,4,3665,1,7.426966E-08,6.353544,0,-1
18,F,0,1,16,7,2,63,3,1353,0,0.6590365,11.94231,3.120419,-1
18,F,0,1,16,8,2,64,4,3187,0,0.8786312,12.15549,4.018977,-1
18,F,0,1,17,1,3,67,3,2842,0,0.3754291,6.227137,3.264048,-1
18,F,0,1,17,2,3,65,1,2376,0,0.2920724,6.108094,2.648337,-1
18,F,0,1,17,3,3,66,2,2509,0,0.03154916,6.347399,0.2697954,-1
18,F,0,1,17,4,4,67,3,1942,0,0.01583593,12.15441,0.07132626,-1
18,F,0,1,17,5,4,68,4,1475,0,0.7444941,12.29797,3.415066,-1
18,F,0,1,17,6,4,66,2,1498,0,0.5873846,12.29803,2.671371,-1
18,F,0,1,17,7,3,68,4,3453,1,3.269954E-08,6.533089,0,-1
18,F,0,1,17,8,4,65,1,1565,0,0.6470217,12.10998,2.980846,-1
18,F,0,1,18,1,3,70,2,2365,0,0.2445939,6.368137,2.119233,-1
18,F,0,1,18,2,4,69,1,4009,0,9.427377E-08,12.10574,0,-1
18,F,0,1,18,3,4,72,4,1198,0,0.221212,12.30206,1.012204,-1
18,F,0,1,18,4,3,69,1,2209,0,0.3815002,6.055323,3.43091,-1
18,F,0,1,18,5,3,72,4,3231,0,0.5119098,6.495506,4.257908,-1
18,F,0,1,18,6,4,71,3,3953,0,0.2325722,12.15372,1.08137,-1
18,F,0,1,18,7,4,70,2,1664,0,0.390733,12.24284,1.798527,-1
18,F,0,1,18,8,3,71,3,3376,0,0.1740508,6.209258,1.52007,-1
18,F,0,1,19,1,3,73,1,6164,1,0.08607942,6.040949,0.7815963,-1
18,F,0,1,19,2,4,76,4,2776,0,1.007096,12.3586,4.571319,-1
18,F,0,1,19,3,3,74,2,1787,0,0.1301054,6.33852,1.112939,-1
18,F,0,1,19,4,3,76,4,3665,1,0.2596863,6.516428,2.20948,-1
18,F,0,1,19,5,3,75,3,1709,0,0.3371683,6.202711,2.947429,-1
18,F,0,1,19,6,4,73,1,2009,0,0.5042522,12.09946,2.328433,-1
18,F,0,1,19,7,4,74,2,1598,0,0.4252665,12.23861,1.930467,-1
18,F,0,1,19,8,4,75,3,1531,0,0.3214284,12.08189,1.494493,-1
18,F,0,1,20,1,4,77,1,2776,1,0.2152462,12.15787,0.9985801,-1
18,F,0,1,20,2,3,78,2,2898,0,2.884107E-08,6.374784,0,-1
18,F,0,1,20,3,3,77,1,1853,0,0.4693413,6.03997,4.226932,-1
18,F,0,1,20,4,3,80,4,1965,0,0.333157,6.499398,2.793442,-1
18,F,0,1,20,5,3,79,3,1909,0,0.08113467,6.231725,0.7168246,-1
18,F,0,1,20,6,4,80,4,9999,0,-1,-1,-1,-1
18,F,0,1,20,7,4,79,3,2864,0,0.3857624,12.1536,1.78586,-1
18,F,0,1,20,8,4,78,2,1676,0,0.02800012,12.24754,0.1251145,-1
18,F,0,1,20,1,2,80,4,1109,0,0.8609419,12.29386,3.892192,-1
18,F,0,1,20,2,1,79,3,4120,0,0.09041542,6.228913,0.7930291,-1
18,F,0,1,20,3,2,77,1,1365,0,0.8392523,12.09846,3.873936,-1
18,F,0,1,20,4,1,80,4,2887,1,0.1182584,6.506489,0.9993636,-1
18,F,0,1,20,5,2,78,2,2098,1,0.3758157,12.2916,1.726691,-1
18,F,0,1,20,6,2,79,3,1309,0,0.9371151,12.08302,4.409666,-1
18,F,0,1,20,7,1,78,2,3576,0,0.1613207,6.34798,1.366017,-1
18,F,0,1,20,8,1,77,1,5331,1,0.09138472,6.033668,0.8327476,-1
18,F,0,1,21,1,2,82,2,1520,0,0.4140849,12.27216,1.893826,-1
18,F,0,1,21,2,1,84,4,3076,1,2.428323E-07,6.511967,0,-1
18,F,0,1,21,3,2,83,3,1420,0,0.5996402,12.09333,2.774881,-1
18,F,0,1,21,4,2,81,1,1642,0,8.690226E-08,12.09227,0,-1
18,F,0,1,21,5,1,82,2,3698,0,0.2165734,6.32723,1.857094,-1
18,F,0,1,21,6,1,83,3,1987,0,0.2706903,6.236883,2.384991,-1
18,F,0,1,21,7,1,81,1,2209,0,0.3956342,6.042824,3.567382,-1
18,F,0,1,21,8,2,84,4,887,0,0.1599351,12.30039,0.7298098,-1
18,F,0,1,22,1,1,86,2,1942,0,0.2966933,6.332207,2.535513,-1
18,F,0,1,22,2,1,85,1,1631,0,0.3530253,6.028201,3.200818,-1
18,F,0,1,22,3,1,88,4,1398,0,0.3514369,6.506441,2.922685,-1
18,F,0,1,22,4,2,85,1,1298,0,0.3660634,12.08856,1.711436,-1
18,F,0,1,22,5,1,87,3,2753,0,0.4615632,6.238771,4.079383,-1
18,F,0,1,22,6,2,86,2,1809,0,0.3577753,12.28788,1.643301,-1
18,F,0,1,22,7,2,87,3,1408,0,0.4981312,12.08844,2.300867,-1
18,F,0,1,22,8,2,88,4,1231,0,0.1209999,12.29578,0.5517841,-1
18,F,0,1,23,1,1,89,1,1475,0,0.2090334,6.035703,1.889895,-1
18,F,0,1,23,2,2,91,3,1187,0,0.1941138,12.09668,0.8983104,-1
18,F,0,1,23,3,2,90,2,2620,1,0.5029876,12.29114,2.289013,-1
18,F,0,1,23,4,2,89,1,1387,0,0.1849812,12.09549,0.8556943,-1
18,F,0,1,23,5,1,90,2,1820,0,0.203834,6.326493,1.743272,-1
18,F,0,1,23,6,1,92,4,2987,0,0.5034151,6.508683,4.153883,-1
18,F,0,1,23,7,1,91,3,3576,0,0.1071133,6.240121,0.9387863,-1
18,F,0,1,23,8,2,92,4,1087,0,6.601832E-08,12.29714,0,-1
18,F,0,1,24,1,1,94,2,2053,0,0.2863044,6.328202,2.455112,-1
18,F,0,1,24,2,1,96,4,2187,0,0.3074696,6.504789,2.543144,-1
18,F,0,1,24,3,1,93,1,1753,0,0.1508789,6.038016,1.365014,-1
18,F,0,1,24,4,1,95,3,4765,0,1.428834E-07,6.235735,0,-1
18,F,0,1,24,5,2,94,2,5242,0,0.3936133,12.29856,1.8097,-1
18,F,0,1,24,6,2,95,3,2642,1,0.2166299,12.09703,1.008136,-1
18,F,0,1,24,7,2,96,4,1354,0,0.3434398,12.3016,1.57259,-1
18,F,0,1,24,8,2,93,1,1676,0,0.3329579,12.0977,1.540531,-1
18,F,0,1,25,1,1,99,3,1631,0,2.802434E-08,6.216707,0,-1
18,F,0,1,25,2,1,97,1,1276,0,0.3396678,5.973426,3.09813,-1
18,F,0,1,25,3,2,100,4,1565,1,0.5060405,12.22715,2.317311,-1
18,F,0,1,25,4,2,97,1,1565,0,0.4400804,12.00816,2.059091,-1
18,F,0,1,25,5,1,100,4,4287,2,0.557141,6.527205,4.660478,-1
18,F,0,1,25,6,2,98,2,2398,1,0.2607521,12.1912,1.199752,-1
18,F,0,1,25,7,2,99,3,9498,0,0.6384498,12.05097,3.000679,-1
18,F,0,1,25,8,1,98,2,3698,1,0.4444844,6.251856,3.815774,-1
18,F,0,1,26,1,1,101,1,2242,0,0.1728659,5.975696,1.578924,-1
18,F,0,1,26,2,2,104,4,9999,0,-1,-1,-1,-1
18,F,0,1,26,3,1,102,2,2620,0,0.3412648,6.244895,2.960021,-1
18,F,0,1,26,4,1,103,3,2998,0,5.803142E-08,6.227801,0,-1
18,F,0,1,26,5,2,102,2,2087,0,0.1017838,12.22246,0.4668813,-1
18,F,0,1,26,6,2,101,1,1942,0,6.35371E-08,12.02765,0,-1
18,F,0,1,26,7,2,103,3,1576,0,0.4129506,12.04385,1.933202,-1
18,F,0,1,26,8,1,104,4,2798,1,0.1389372,6.509878,1.15606,-1
18,F,0,1,27,1,2,107,3,3398,2,0.2154688,12.04609,1.002296,-1
18,F,0,1,27,2,2,105,1,3176,1,0.5828563,12.01499,2.71,-1
18,F,0,1,27,3,2,106,2,4787,1,0.429499,12.20549,1.967719,-1
18,F,0,1,27,4,1,107,3,1698,0,6.399203E-08,6.219355,0,-1
18,F,0,1,27,5,1,108,4,4387,1,0.083069,6.513124,0.6991359,-1
18,F,0,1,27,6,1,106,2,2398,1,0.3451115,6.260956,2.982422,-1
18,F,0,1,27,7,1,105,1,4287,0,0.236927,5.972038,2.209569,-1
18,F,0,1,27,8,2,108,4,1165,0,0.368162,12.24837,1.686904,-1
18,F,0,1,28,1,2,109,1,1398,0,0.1161657,12.0187,0.5403171,-1
18,F,0,1,28,2,1,110,2,1865,0,0.4908403,6.25361,4.25915,-1
18,F,0,1,28,3,2,112,4,1187,0,0.9201597,12.24416,4.180764,-1
18,F,0,1,28,4,2,110,2,1643,0,0.4463974,12.2142,2.049373,-1
18,F,0,1,28,5,1,111,3,7275,2,0.1235664,6.238727,1.087865,-1
18,F,0,1,28,6,1,109,1,1731,0,0.181201,5.966732,1.679813,-1
18,F,0,1,28,7,2,111,3,1320,0,0.2308557,12.04326,1.077563,-1
18,F,0,1,28,8,1,112,4,3031,0,0.3422148,6.507195,2.837522,-1
18,F,0,1,29,1,2,115,3,1376,0,0.3483571,12.03779,1.629668,-1
18,F,0,1,29,2,1,114,2,3409,1,0.5225083,6.253806,4.494967,-1
18,F,0,1,29,3,2,116,4,876,0,0.949111,12.243,4.296554,-1
18,F,0,1,29,4,1,115,3,3353,0,0.01464832,6.227149,0.1282043,-1
18,F,0,1,29,5,1,113,1,1742,0,0.02537608,5.980161,0.2332305,-1
18,F,0,1,29,6,1,116,4,3798,1,0.5476086,6.509695,4.64802,-1
18,F,0,1,29,7,2,114,2,2120,1,0.2760339,12.21511,1.275028,-1
18,F,0,1,29,8,2,113,1,1987,0,0.408443,12.01102,1.913973,-1
18,F,0,1,30,1,1,120,4,2465,0,0.335618,6.510336,2.794003,-1
18,F,0,1,30,2,1,118,2,2465,1,0.4432311,6.256869,3.800349,-1
18,F,0,1,30,3,2,117,1,2565,0,0.635308,12.01843,2.986882,-1
18,F,0,1,30,4,2,119,3,1753,0,0.1378131,12.04518,0.6428534,-1
18,F,0,1,30,5,1,117,1,1753,0,0.1997717,5.9789,1.823382,-1
18,F,0,1,30,6,1,119,3,2687,0,0.07194922,6.230505,0.6361217,-1
18,F,0,1,30,7,2,118,2,2531,0,0.2982377,12.22977,1.369022,-1
18,F,0,1,30,8,2,120,4,953,0,0.718352,12.25562,3.27393,-1
18,F,0,1,31,1,2,123,3,1365,0,0.2214652,12.04405,1.03344,-1
18,F,0,1,31,2,1,124,4,2764,1,3.074519E-07,6.516102,0,-1
18,F,0,1,31,3,1,122,2,1909,0,0.1485849,6.259595,1.279013,-1
18,F,0,1,31,4,2,124,4,887,0,0.4385841,12.25192,1.990857,-1
18,F,0,1,31,5,2,121,1,1754,0,0.2978593,12.02099,1.38748,-1
18,F,0,1,31,6,2,122,2,1654,0,0.1438493,12.21509,0.6596788,-1
18,F,0,1,31,7,1,121,1,1620,0,0.06854975,5.970109,0.63025,-1
18,F,0,1,31,8,1,123,3,3598,0,0.04751756,6.22023,0.416371,-1
18,F,0,1,32,1,1,125,1,1509,0,0.2143385,5.973268,1.988693,-1
18,F,0,1,32,2,2,127,3,2342,1,0.2809183,12.0439,1.306711,-1
18,F,0,1,32,3,2,125,1,1620,0,0.1262832,12.03043,0.5875081,-1
18,F,0,1,32,4,2,126,2,1920,0,0.8893158,12.21432,4.074484,-1
18,F,0,1,32,5,2,128,4,2676,2,0.4276855,12.26656,1.97457,-1
18,F,0,1,32,6,1,126,2,2276,0,0.4239768,6.249452,3.680414,-1
18,F,0,1,32,7,1,128,4,3331,0,0.5356466,6.504346,4.404377,-1
18,F,0,1,32,8,1,127,3,3565,0,0.1110182,6.211451,0.9819816,-1
18,F,0,1,33,1,2,132,4,997,0,0.01706813,12.31289,0.07912937,-1
18,F,0,1,33,2,2,131,3,1565,0,0.0146001,12.09906,0.0656106,-1
18,F,0,1,33,3,1,132,4,2976,0,0.2551261,6.523478,2.108029,-1
18,F,0,1,33,4,1,131,3,2976,0,1.446714E-07,6.231668,0,-1
18,F,0,1,33,5,2,129,1,1598,0,0.5928229,12.10139,2.741954,-1
18,F,0,1,33,6,1,130,2,2198,0,0.5074274,6.351601,4.339237,-1
18,F,0,1,33,7,1,129,1,1598,0,0.1631113,6.040452,1.478564,-1
18,F,0,1,33,8,2,130,2,2054,0,0.2681181,12.30924,1.229397,-1
18,F,0,1,34,1,2,133,1,1309,0,0.4037435,12.10445,1.858885,-1
18,F,0,1,34,2,2,135,3,1331,0,0.4470886,12.09308,2.086097,-1
18,F,0,1,34,3,1,134,2,1664,0,0.05635224,6.353092,0.4809199,-1
18,F,0,1,34,4,1,136,4,1309,0,0.2229541,6.525041,1.864561,-1
18,F,0,1,34,5,1,133,1,1598,0,0.4784077,6.047298,4.31048,-1
18,F,0,1,34,6,2,134,2,2653,0,0.592572,12.30091,2.701029,-1
18,F,0,1,34,7,1,135,3,2598,0,0.357154,6.229337,3.184445,-1
18,F,0,1,34,8,2,136,4,765,0,0.4142644,12.31939,1.871058,-1
18,F,0,1,35,1,2,137,1,1687,0,0.3043717,12.10518,1.413332,-1
18,F,0,1,35,2,2,138,2,1509,0,0.6144446,12.30412,2.790427,-1
18,F,0,1,35,3,2,139,3,1298,0,0.2207274,12.10749,1.01914,-1
18,F,0,1,35,4,2,140,4,765,0,0.8652332,12.32003,3.885797,-1
18,F,0,1,35,5,1,139,3,2853,0,0.5154153,6.242176,4.535614,-1
18,F,0,1,35,6,1,137,1,1431,0,0.466981,6.055904,4.202443,-1
18,F,0,1,35,7,1,138,2,5398,3,0.01562724,6.327826,0.132704,-1
18,F,0,1,35,8,1,140,4,1242,0,1.296155E-07,6.513313,0,-1
18,F,0,1,37,1,3,147,3,2453,0,0.2026342,6.20774,1.798201,-1
18,F,0,1,37,2,4,146,2,1309,0,0.1400793,12.24888,0.6422443,-1
18,F,0,1,37,3,4,148,4,1420,1,0.3150226,12.30547,1.432448,-1
18,F,0,1,37,4,4,145,1,8742,4,0.6647999,12.04852,3.119289,-1
18,F,0,1,37,5,4,147,3,1098,0,0.5892385,12.09125,2.763076,-1
18,F,0,1,37,6,3,148,4,2042,0,0.4715717,6.540958,4.014931,-1
18,F,0,1,37,7,3,146,2,1853,0,1.842811E-07,6.37591,0,-1
18,F,0,1,37,8,3,145,1,1553,0,0.1247433,6.034797,1.128826,-1
18,F,0,1,38,1,4,150,2,1243,0,0.1162927,12.24638,0.5326577,-1
18,F,0,1,38,2,4,149,1,2109,0,0.4124108,12.15612,1.900531,-1
18,F,0,1,38,3,4,152,4,865,0,0.5931718,12.31632,2.679565,-1
18,F,0,1,38,4,3,150,2,2720,0,0.008028232,6.370019,0.0656106,-1
18,F,0,1,38,5,3,152,4,2431,1,9.995615E-08,6.539106,0,-1
18,F,0,1,38,6,4,151,3,2031,1,0.8821627,12.03668,4.173872,-1
18,F,0,1,38,7,3,149,1,1498,0,0.4291218,6.002085,3.910412,-1
18,F,0,1,38,8,3,151,3,2342,0,0.1451096,6.203182,1.286031,-1
18,F,0,1,39,1,4,153,1,1376,0,0.04226114,12.08156,0.1958353,-1
18,F,0,1,39,2,3,156,4,1854,0,0.1808352,6.505852,1.502069,-1
18,F,0,1,39,3,3,153,1,2120,0,0.1454869,6.07548,1.325446,-1
18,F,0,1,39,4,3,155,3,3098,0,0.01784667,6.21289,0.1570175,-1
18,F,0,1,39,5,4,154,2,2808,0,0.5140662,12.22622,2.353848,-1
18,F,0,1,39,6,4,155,3,1109,0,0.04608348,12.0834,0.2139789,-1
18,F,0,1,39,7,3,154,2,2142,0,0.2169095,6.340559,1.835897,-1
18,F,0,1,39,8,4,156,4,9999,0,-1,-1,-1,-1
18,F,0,1,40,1,3,159,3,2553,0,0.2270901,6.206326,1.983569,-1
18,F,0,1,40,2,4,158,2,2265,0,0.8167229,12.28451,3.720628,-1
18,F,0,1,40,3,3,160,4,3798,0,0.5196,6.532605,4.296007,-1
18,F,0,1,40,4,4,159,3,3320,0,0.7015183,12.13922,3.281098,-1
18,F,0,1,40,5,4,160,4,1476,1,0.2291701,12.30874,1.043052,-1
18,F,0,1,40,6,3,157,1,1720,0,0.505962,6.012904,4.608277,-1
18,F,0,1,40,7,3,158,2,4298,0,0.092467,6.330492,0.7930291,-1
18,F,0,1,40,8,4,157,1,1642,0,0.6368255,12.14563,2.932114,-1
18,F,0,1,41,1,2,162,2,1387,0,0.3050342,12.2815,1.395636,-1
18,F,0,1,41,2,2,163,3,1498,0,0.2901193,12.07734,1.351471,-1
18,F,0,1,41,3,2,161,1,3676,2,0.3293145,12.08888,1.519297,-1
18,F,0,1,41,4,1,163,3,2809,0,0.2839669,6.213543,2.506787,-1
18,F,0,1,41,5,1,162,2,2042,0,1.197249E-07,6.336928,0,-1
18,F,0,1,41,6,2,164,4,1076,0,0.8823967,12.28592,3.981822,-1
18,F,0,1,41,7,1,161,1,1587,0,1.774584E-08,6.011664,0,-1
18,F,0,1,41,8,1,164,4,2509,0,0.2137963,6.516799,1.789363,-1
18,F,0,1,42,1,1,167,3,2864,0,0.02339225,6.216503,0.2046302,-1
18,F,0,1,42,2,1,168,4,3120,0,0.3208729,6.514166,2.649076,-1
18,F,0,1,42,3,2,166,2,1509,0,0.7934866,12.27318,3.617904,-1
18,F,0,1,42,4,2,165,1,1587,0,0.519635,12.07775,2.395145,-1
18,F,0,1,42,5,1,166,2,3287,0,0.1106323,6.33256,0.9468806,-1
18,F,0,1,42,6,2,167,3,1242,0,0.03743518,12.07497,0.1735894,-1
18,F,0,1,42,7,2,168,4,931,0,0.304767,12.30413,1.397318,-1
18,F,0,1,42,8,1,165,1,1409,0,0.2229069,6.016734,2.021488,-1
18,F,0,1,43,1,2,172,4,1142,0,0.3946277,12.30242,1.814236,-1
18,F,0,1,43,2,1,169,1,4898,0,0.2617062,6.035703,2.364964,-1
18,F,0,1,43,3,1,171,3,2409,0,0.09942366,6.224803,0.8749159,-1
18,F,0,1,43,4,2,170,2,1142,0,0.3688775,12.2858,1.67923,-1
18,F,0,1,43,5,2,169,1,2319,0,0.4286851,12.09157,1.975759,-1
18,F,0,1,43,6,1,172,4,2265,1,0.03952326,6.531353,0.3286494,-1
18,F,0,1,43,7,2,171,3,976,0,1.316621E-07,12.091,0.01978234,-1
18,F,0,1,43,8,1,170,2,3176,0,0.3797592,6.331964,3.25576,-1
18,F,0,1,44,1,1,173,1,6164,0,0.1868457,6.030584,1.691423,-1
18,F,0,1,44,2,2,176,4,1031,0,0.6568158,12.29824,2.978415,-1
18,F,0,1,44,3,1,175,3,3787,0,0.0865761,6.228043,0.7602757,-1
18,F,0,1,44,4,1,176,4,2753,1,0.04642029,6.527421,0.3856296,-1
18,F,0,1,44,5,2,174,2,1398,0,1.020976,12.27314,4.714595,-1
18,F,0,1,44,6,2,173,1,1365,0,0.361319,12.0766,1.692232,-1
18,F,0,1,44,7,1,174,2,3043,1,0.4918414,6.330266,4.188205,-1
18,F,0,1,44,8,2,175,3,1431,0,1.11925E-08,12.07041,0.01978234,-1
18,F,0,1,45,1,2,178,2,1631,0,0.1222745,12.28302,0.55778,-1
18,F,0,1,45,2,2,177,1,1353,0,0.8049127,12.07893,3.703009,-1
18,F,0,1,45,3,2,180,4,1831,1,0.4410605,12.29765,2.024584,-1
18,F,0,1,45,4,1,178,2,2376,1,0.2794774,6.33024,2.37784,-1
18,F,0,1,45,5,1,180,4,5075,0,0.426982,6.53469,3.532414,-1
18,F,0,1,45,6,2,179,3,1176,0,2.917617E-08,12.08457,0.01978234,-1
18,F,0,1,45,7,1,177,1,9999,1,-1,-1,-1,-1
18,F,0,1,45,8,1,179,3,2598,0,0.2928098,6.23895,2.559179,-1
18,F,0,1,46,1,1,181,1,1131,0,5.66904E-08,6.014337,0,-1
18,F,0,1,46,2,1,184,4,2464,0,0.2575463,6.537532,2.127713,-1
18,F,0,1,46,3,1,182,2,3265,0,0.1956404,6.322373,1.678764,-1
18,F,0,1,46,4,1,183,3,3131,1,0.145701,6.241182,1.284356,-1
18,F,0,1,46,5,2,182,2,1530,0,8.11961E-08,12.2671,0,-1
18,F,0,1,46,6,2,181,1,1187,0,0.4493199,12.07938,2.081401,-1
18,F,0,1,46,7,2,183,3,1498,0,0.4577016,12.0822,2.143932,-1
18,F,0,1,46,8,2,184,4,998,0,0.2065908,12.30125,0.9369085,-1
18,F,0,1,47,1,1,187,3,2542,0,0.001582803,6.242972,0,-1
18,F,0,1,47,2,1,186,2,1598,0,0.1007641,6.318815,0.8650193,-1
18,F,0,1,47,3,1,188,4,2276,0,0.367204,6.534076,3.018242,-1
18,F,0,1,47,4,1,185,1,1376,0,7.004633E-08,6.012592,0,-1
18,F,0,1,47,5,2,186,2,1598,0,0.3532193,12.27267,1.609733,-1
18,F,0,1,47,6,2,188,4,854,0,0.3811482,12.30357,1.746413,-1
18,F,0,1,47,7,2,187,3,1253,0,0.01822517,12.08498,0.08392937,-1
18,F,0,1,47,8,2,185,1,1220,0,0.3688384,12.07081,1.703643,-1
18,F,0,1,48,1,1,192,4,1698,0,0.1793661,6.537668,1.483189,-1
18,F,0,1,48,2,2,191,3,1542,0,0.2809488,12.08608,1.299353,-1
18,F,0,1,48,3,2,192,4,776,0,0.1818645,12.30454,0.8244823,-1
18,F,0,1,48,4,1,189,1,4876,1,0.2502474,6.003994,2.297888,-1
18,F,0,1,48,5,1,190,2,1387,0,0.1906757,6.311514,1.638769,-1
18,F,0,1,48,6,2,189,1,1598,0,0.08523148,12.07496,0.3961419,-1
18,F,0,1,48,7,1,191,3,1920,0,0.3978369,6.240094,3.483071,-1
18,F,0,1,48,8,2,190,2,1787,0,0.6237199,12.28659,2.847232,-1
18,F,0,1,49,1,1,196,4,1765,0,0.4781256,6.520937,4.003355,-1
18,F,0,1,49,2,1,195,3,2576,0,0.3236565,6.224934,2.864642,-1
18,F,0,1,49,3,1,194,2,3964,0,0.1027474,6.379774,0.8891146,-1
18,F,0,1,49,4,1,193,1,1242,0,0.174964,6.040654,1.600711,-1
18,F,0,1,49,5,2,196,4,764,0,0.428879,12.31605,1.94883,-1
18,F,0,1,49,6,2,194,2,3431,0,0.4642625,12.31895,2.118864,-1
18,F,0,1,49,7,2,193,1,2398,1,0.6480224,12.10824,2.989896,-1
18,F,0,1,49,8,2,195,3,1342,0,0.4038318,12.08919,1.882528,-1
18,F,0,1,50,1,1,198,2,3575,0,0.4363821,6.372109,3.71947,-1
18,F,0,1,50,2,1,199,3,2487,0,0.4151126,6.229804,3.655217,-1
18,F,0,1,50,3,2,198,2,1398,0,0.1616782,12.32464,0.7391344,-1
18,F,0,1,50,4,2,197,1,4387,2,0.4622341,12.11952,2.163289,-1
18,F,0,1,50,5,2,200,4,1420,0,0.5690733,12.3253,2.565138,-1
18,F,0,1,50,6,1,197,1,1720,0,0.2149065,6.057904,1.936338,-1
18,F,0,1,50,7,1,200,4,2387,0,0.5072213,6.524647,4.244963,-1
18,F,0,1,50,8,2,199,3,1286,0,0.4500512,12.1105,2.079708,-1
18,F,0,1,51,1,1,202,2,1431,0,0.03646372,6.370589,0.3102743,-1
18,F,0,1,51,2,1,203,3,4176,0,0.01919101,6.232116,0.1690205,-1
18,F,0,1,51,3,1,204,4,2131,1,9.611138E-08,6.531476,0,-1
18,F,0,1,51,4,2,203,3,1242,0,0.1136964,12.10613,0.5267473,-1
18,F,0,1,51,5,2,204,4,1297,0,0.0814846,12.32812,0.3690354,-1
18,F,0,1,51,6,2,201,1,1531,0,0.6730918,12.11801,3.111372,-1
18,F,0,1,51,7,2,202,2,1698,0,0.5199138,12.32109,2.36604,-1
18,F,0,1,51,8,1,201,1,1409,0,0.06955578,6.047714,0.63025,-1
18,F,0,1,52,1,1,208,4,1842,0,0.3269406,6.532361,2.731583,-1
18,F,0,1,52,2,2,207,3,1008,0,0.09391275,12.10763,0.4343124,-1
18,F,0,1,52,3,1,206,2,2676,0,4.923084E-08,6.37873,0,-1
18,F,0,1,52,4,2,208,4,1087,0,0.409631,12.3177,1.858253,-1
18,F,0,1,52,5,1,207,3,3698,0,0.1374409,6.233981,1.209984,-1
18,F,0,1,52,6,1,205,1,1786,0,0.2060187,6.049169,1.864876,-1
18,F,0,1,52,7,2,206,2,1554,0,0.2673195,12.32285,1.213214,-1
18,F,0,1,52,8,2,205,1,2742,0,0.4513401,12.11859,2.112944,-1
18,F,0,1,53,1,1,212,4,2141,1,0.2005387,6.533974,1.658002,-1
18,F,0,1,53,2,1,209,1,1442,0,0.1551316,6.05671,1.399836,-1
18,F,0,1,53,3,1,210,2,1842,0,0.02742173,6.376935,0.23239,-1
18,F,0,1,53,4,2,212,4,931,0,0.2205731,12.32526,1.005415,-1
18,F,0,1,53,5,2,210,2,1365,0,0.06294675,12.31884,0.2866737,-1
18,F,0,1,53,6,1,211,3,1920,0,0.001638002,6.229468,0,-1
18,F,0,1,53,7,2,209,1,1798,0,0.3945248,12.11643,1.832162,-1
18,F,0,1,53,8,2,211,3,1431,0,0.304967,12.1037,1.4201,-1
18,F,0,1,54,1,1,216,4,2287,0,0.2209507,6.533251,1.845466,-1
18,F,0,1,54,2,1,213,1,1187,0,0.1310745,6.057486,1.182833,-1
18,F,0,1,54,3,1,215,3,3276,0,0.2391285,6.238656,2.096112,-1
18,F,0,1,54,4,1,214,2,2076,0,1.649825E-07,6.376348,0,-1
18,F,0,1,54,5,2,216,4,931,0,0.8255747,12.32495,3.803335,-1
18,F,0,1,54,6,2,214,2,4975,0,0.7249975,12.32182,3.300077,-1
18,F,0,1,54,7,2,213,1,1409,0,0.19963,12.12153,0.9200482,-1
18,F,0,1,54,8,2,215,3,1231,0,0.275076,12.10812,1.278094,-1
18,F,0,1,55,1,1,217,1,3698,0,0.04407752,6.049773,0.3990945,-1
18,F,0,1,55,2,1,218,2,2009,0,0.5076411,6.374816,4.326037,-1
18,F,0,1,55,3,1,220,4,3031,0,0.1197286,6.532001,0.9932752,-1
18,F,0,1,55,4,1,219,3,2120,0,0.3527578,6.243144,3.103812,-1
18,F,0,1,55,5,2,218,2,1476,0,0.8608087,12.32291,3.909861,-1
18,F,0,1,55,6,2,219,3,953,0,0.08234579,12.1139,0.3810355,-1
18,F,0,1,55,7,2,220,4,976,0,0.5498514,12.32719,2.481281,-1
18,F,0,1,55,8,2,217,1,1420,0,0.2025714,12.12453,0.9333511,-1
18,F,0,1,56,1,1,223,3,2642,1,0.2463457,6.228203,2.151769,-1
18,F,0,1,56,2,2,221,1,1087,0,0.6029243,12.12254,2.787409,-1
18,F,0,1,56,3,1,224,4,2409,1,1.318145E-07,6.542303,0,-1
18,F,0,1,56,4,2,223,3,1053,0,0.5154681,12.10627,2.416299,-1
18,F,0,1,56,5,2,224,4,953,0,0.934845,12.32745,4.196661,-1
18,F,0,1,56,6,1,222,2,1887,0,0.5400509,6.368014,4.607682,-1
18,F,0,1,56,7,1,221,1,2542,1,0.4460547,6.037853,4.16156,-1
18,F,0,1,56,8,2,222,2,1409,0,0.5761373,12.36439,2.612994,-1
18,F,0,1,57,1,4,228,4,965,0,0.5761847,12.45217,2.588685,-1
18,F,0,1,57,2,3,226,2,6231,0,0.5102341,6.398208,4.336122,-1
18,F,0,1,57,3,3,225,1,1709,0,0.1233348,6.06707,1.114169,-1
18,F,0,1,57,4,4,227,3,1653,0,0.2058207,12.14153,0.949151,-1
18,F,0,1,57,5,4,225,1,1265,0,0.6506327,12.14727,3.006936,-1
18,F,0,1,57,6,3,227,3,2587,0,6.371295E-08,6.225737,0,-1
18,F,0,1,57,7,4,226,2,1187,0,0.8975207,12.29793,4.105273,-1
18,F,0,1,57,8,3,228,4,2887,1,0.0440433,6.578368,0.365305,-1
18,F,0,1,58,1,4,230,2,1142,0,0.9317332,12.29164,4.215611,-1
18,F,0,1,58,2,4,232,4,942,0,0.7601622,12.34342,3.417129,-1
18,F,0,1,58,3,3,229,1,1253,0,4.019105E-08,6.066165,0,-1
18,F,0,1,58,4,3,232,4,1887,0,0.1787737,6.557656,1.478035,-1
18,F,0,1,58,5,3,231,3,5298,0,0.2892177,6.257692,2.521501,-1
18,F,0,1,58,6,3,230,2,1776,0,1.672117E-07,6.36999,0,-1
18,F,0,1,58,7,4,231,3,1309,0,0.2307552,12.10873,1.072649,-1
18,F,0,1,58,8,4,229,1,1309,0,0.2259014,12.12819,1.046237,-1
18,F,0,1,59,1,3,234,2,1931,0,0.02259145,6.374546,0.1928145,-1
18,F,0,1,59,2,4,233,1,1298,0,0.7870248,12.11832,3.638088,-1
18,F,0,1,59,3,3,235,3,8520,0,0.2075537,6.242059,1.83088,-1
18,F,0,1,59,4,4,234,2,964,0,4.551182E-07,12.28786,0,-1
18,F,0,1,59,5,3,236,4,3431,0,0.2923673,6.578951,2.406721,-1
18,F,0,1,59,6,4,235,3,1053,0,0.02287992,12.13089,0.1065312,-1
18,F,0,1,59,7,4,236,4,887,0,0.2103593,12.34434,0.9557254,-1
18,F,0,1,59,8,3,233,1,1409,0,0.5120018,6.066159,4.595465,-1
18,F,0,1,60,1,4,239,3,898,0,0.1530996,12.12129,0.709416,-1
18,F,0,1,60,2,4,237,1,1298,0,0.5097179,12.12956,2.356176,-1
18,F,0,1,60,3,4,238,2,2542,0,0.4860835,12.28429,2.249859,-1
18,F,0,1,60,4,3,240,4,3731,1,2.087921E-07,6.568814,0,-1
18,F,0,1,60,5,3,239,3,1865,0,0.1731738,6.253315,1.526109,-1
18,F,0,1,60,6,3,237,1,1309,0,0.4061792,6.060965,3.666609,-1
18,F,0,1,60,7,3,238,2,2409,0,0.1689516,6.37863,1.423953,-1
18,F,0,1,60,8,4,240,4,765,0,0.7578685,12.33701,3.451676,-1
18,F,0,1,61,1,2,242,2,2031,0,9.722971E-08,12.31469,0,-1
18,F,0,1,61,2,2,243,3,1909,0,1.0282,12.1472,4.817963,-1
18,F,0,1,61,3,2,241,1,4198,0,0.4491011,12.10572,2.077165,-1
18,F,0,1,61,4,2,244,4,1064,0,0.7096015,12.33969,3.191385,-1
18,F,0,1,61,5,1,242,2,1765,0,1.038981E-07,6.363551,0,-1
18,F,0,1,61,6,1,241,1,3787,0,1.286766E-07,6.061813,0,-1
18,F,0,1,61,7,1,243,3,4798,0,0.3785069,6.265915,3.330019,-1
18,F,0,1,61,8,1,244,4,1920,0,0.5145431,6.557013,4.286423,-1
18,F,0,1,62,1,1,245,1,2931,1,0.1984426,6.074322,1.784106,-1
18,F,0,1,62,2,2,246,2,2842,1,0.1389021,12.33947,0.6305605,-1
18,F,0,1,62,3,1,247,3,1220,0,0.3969806,6.262778,3.485656,-1
18,F,0,1,62,4,2,245,1,2020,0,0.4206356,12.12766,1.964932,-1
18,F,0,1,62,5,2,248,4,1431,1,0.381287,12.33976,1.741812,-1
18,F,0,1,62,6,2,247,3,1709,0,0.2757101,12.12893,1.272571,-1
18,F,0,1,62,7,1,248,4,2654,1,0.08806329,6.555113,0.7292733,-1
18,F,0,1,62,8,1,246,2,1898,0,0.2098866,6.370625,1.769567,-1
18,F,0,1,1,1,5,2,2,2563,0,5.743652,6.383993,64.11813,-1
18,F,0,1,1,2,5,1,1,2398,0,1.20782,6.069059,11.00477,-1
18,F,0,1,1,3,5,3,3,3964,0,5.89369,6.324963,68.7194,-1
18,F,0,1,1,4,8,1,1,2176,0,9.58483,12.14167,52.13097,-1
18,F,0,1,1,5,5,4,4,1165,0,4.494853,6.553471,41.25309,-1
18,F,0,1,1,6,6,1,1,709,0,5.625958,12.15104,27.58101,-1
18,F,0,1,1,7,7,2,2,1098,0,2.610583,6.392869,23.15346,-1
18,F,0,1,1,8,8,3,3,2853,0,8.750237,12.21378,45.75998,-1
18,F,0,1,1,9,8,4,4,1053,0,4.703101,12.34002,22.13005,-1
18,F,0,1,1,10,7,1,1,1053,0,4.330728,6.074202,45.47714,-1
18,F,0,1,1,11,6,2,2,1453,0,9.933294,12.33192,53.65804,-1
18,F,0,1,1,12,7,4,4,1687,0,4.797354,6.57978,46.81146,-1
18,F,0,1,1,13,8,2,2,2020,0,0.1599635,12.26434,0.7335538,-1
18,F,0,1,1,14,6,3,3,1653,0,4.283379,12.13616,20.54518,-1
18,F,0,1,1,15,6,4,4,987,0,4.141432,12.32775,19.61342,-1
18,F,0,1,1,16,7,3,3,720,0,4.364131,6.280042,44.02089,-1
18,F,0,1,2,1,5,2,2,942,0,5.146107,6.364272,53.95871,-1
18,F,0,1,2,2,5,1,1,898,0,2.057138,6.068562,19.81491,-1
18,F,0,1,2,3,7,2,2,2553,0,5.954443,6.416969,68.11308,-1
18,F,0,1,2,4,6,4,4,1787,0,6.952991,12.34447,34.28067,-1
18,F,0,1,2,5,8,3,3,987,0,1.716652,12.1728,8.051667,-1
18,F,0,1,2,6,6,1,1,1565,0,3.895821,12.14349,18.71226,-1
18,F,0,1,2,7,8,2,2,976,0,2.58023,12.25388,11.7706,-1
18,F,0,1,2,8,5,4,4,1131,0,3.929443,6.542207,34.90282,-1
18,F,0,1,2,9,7,3,3,2920,0,2.656026,6.270669,23.61717,-1
18,F,0,1,2,10,8,1,1,3764,0,8.516896,12.13307,44.52728,-1
18,F,0,1,2,11,6,2,2,2276,0,1.074356,12.31651,4.882066,-1
18,F,0,1,2,12,5,3,3,1920,0,5.476322,6.312765,60.16938,-1
18,F,0,1,2,13,8,4,4,842,0,5.967866,12.34867,28.89986,-1
18,F,0,1,2,14,6,3,3,731,0,3.2016,12.13794,15.29376,-1
18,F,0,1,2,15,7,4,4,1009,0,4.279099,6.573862,38.97522,-1
18,F,0,1,2,16,7,1,1,1453,0,0.1405665,6.025372,1.284509,-1
