Age, Gender, Awareness Type, Session, Block, Trial, Set, Pattern, Quadrant, Response Time, Num Mistakes, Distance From Target, Camera Distance From Target, Angle Error (Degrees), FC Response
21,F,0,1,1,1,2,2,2,5998,1,1.010717,12.52118,4.485021,-1
21,F,0,1,1,2,1,4,4,2953,0,0.3088871,6.504247,2.573138,-1
21,F,0,1,1,3,1,2,2,5420,2,0.485365,6.522271,4.038518,-1
21,F,0,1,1,4,1,3,3,3587,0,0.3625754,6.279053,3.153308,-1
21,F,0,1,1,5,2,1,1,3398,1,0.9811342,12.22304,4.477634,-1
21,F,0,1,1,6,2,4,4,2720,0,1.00453,12.48315,4.505153,-1
21,F,0,1,1,7,2,3,3,3231,1,0.1895152,12.22384,0.867504,-1
21,F,0,1,1,8,1,1,1,2731,1,0.5117137,6.384584,4.38079,-1
21,F,0,1,2,1,1,8,4,3431,0,0.1954447,6.564584,1.629909,-1
21,F,0,1,2,2,1,7,3,4153,1,0.2709142,6.332876,2.335065,-1
21,F,0,1,2,3,2,5,1,2054,0,0.9388432,12.26324,4.27906,-1
21,F,0,1,2,4,2,7,3,2031,0,0.1376394,12.27724,0.6299395,-1
21,F,0,1,2,5,2,6,2,1476,0,0.7641336,12.56667,3.397362,-1
21,F,0,1,2,6,2,8,4,1542,0,1.022766,12.53927,4.508064,-1
21,F,0,1,2,7,1,6,2,3420,1,0.2542489,6.537642,2.108586,-1
21,F,0,1,2,8,1,5,1,1676,0,0.2272209,6.391879,1.955747,-1
21,F,0,1,3,1,2,11,3,2176,0,0.753906,12.28049,3.483577,-1
21,F,0,1,3,2,2,12,4,2031,0,0.4416723,12.54192,1.989775,-1
21,F,0,1,3,3,1,10,2,4342,0,0.2625206,6.544054,2.173398,-1
21,F,0,1,3,4,1,12,4,2942,0,0.04581372,6.565178,0.3820612,-1
21,F,0,1,3,5,2,9,1,2676,1,0.413769,12.268,1.886267,-1
21,F,0,1,3,6,1,11,3,3909,0,0.4579572,6.336603,3.95156,-1
21,F,0,1,3,7,1,9,1,2687,0,0.1256635,6.396021,1.073014,-1
21,F,0,1,3,8,2,10,2,2098,1,0.5616159,12.56749,2.534586,-1
21,F,0,1,4,1,1,15,3,2731,0,0.09173271,6.352141,0.7890712,-1
21,F,0,1,4,2,1,13,1,1709,0,0.06252345,6.399971,0.533392,-1
21,F,0,1,4,3,1,14,2,2287,1,0.1875503,6.540886,1.591024,-1
21,F,0,1,4,4,2,13,1,1487,0,0.5904204,12.25587,2.725988,-1
21,F,0,1,4,5,2,16,4,3809,1,0.6957455,12.5468,3.144854,-1
21,F,0,1,4,6,2,15,3,1709,0,0.3748919,12.28577,1.717258,-1
21,F,0,1,4,7,2,14,2,1109,0,0.6984661,12.56914,3.123554,-1
21,F,0,1,4,8,1,16,4,2242,0,0.2568738,6.568387,2.13625,-1
21,F,0,1,5,1,1,18,2,2487,0,4.587332E-07,6.542293,0,-1
21,F,0,1,5,2,2,19,3,1342,0,0.03759221,12.27952,0.1701742,-1
21,F,0,1,5,3,1,17,1,1620,0,0.3996726,6.406416,3.430681,-1
21,F,0,1,5,4,1,20,4,2520,0,0.08463297,6.567964,0.7044336,-1
21,F,0,1,5,5,1,19,3,2542,1,0.3127654,6.35227,2.689627,-1
21,F,0,1,5,6,2,20,4,3509,0,0.9331153,12.54605,4.205192,-1
21,F,0,1,5,7,2,18,2,1120,0,0.628991,12.57467,2.806376,-1
21,F,0,1,5,8,2,17,1,3054,3,0.8147639,12.27122,3.710193,-1
21,F,0,1,6,1,1,23,3,2576,0,0.1398844,6.333888,1.213537,-1
21,F,0,1,6,2,1,21,1,1554,0,0.1193376,6.397256,1.024502,-1
21,F,0,1,6,3,1,24,4,2831,0,0.3629245,6.563525,3.027826,-1
21,F,0,1,6,4,2,21,1,1365,0,0.6394355,12.26631,2.923288,-1
21,F,0,1,6,5,1,22,2,2709,0,0.3725109,6.549653,3.05454,-1
21,F,0,1,6,6,2,23,3,2898,0,0.07636717,12.28331,0.3488659,-1
21,F,0,1,6,7,2,22,2,2531,1,0.2610785,12.56135,1.164661,-1
21,F,0,1,6,8,2,24,4,6698,2,0.4320268,12.52615,1.923561,-1
21,F,0,1,7,1,2,26,2,2353,1,0.8429295,12.58768,3.815005,-1
21,F,0,1,7,2,1,25,1,2309,0,6.234769E-08,6.463964,0,-1
21,F,0,1,7,3,2,28,4,5842,4,0.4138201,12.44836,1.875967,-1
21,F,0,1,7,4,1,27,3,3220,0,0.06291533,6.236715,0.5507192,-1
21,F,0,1,7,5,1,26,2,2353,0,0.2196658,6.515628,1.864351,-1
21,F,0,1,7,6,1,28,4,2064,0,2.680052E-07,6.488559,0,-1
21,F,0,1,7,7,2,25,1,1476,0,0.4913118,12.19846,2.274344,-1
21,F,0,1,7,8,2,27,3,1798,0,0.9148904,12.18452,4.261678,-1
21,F,0,1,8,1,1,32,4,2987,0,0.1552085,6.493606,1.315369,-1
21,F,0,1,8,2,1,29,1,1687,0,0.05907674,6.354417,0.5101407,-1
21,F,0,1,8,3,1,30,2,4153,0,0.3065532,6.521061,2.571692,-1
21,F,0,1,8,4,2,31,3,2131,0,0.4707413,12.19639,2.160483,-1
21,F,0,1,8,5,2,29,1,1353,0,9.569015E-08,12.18674,0,-1
21,F,0,1,8,6,1,31,3,3498,0,1.540296E-07,6.25243,0,-1
21,F,0,1,8,7,2,32,4,2531,0,0.4571812,12.45878,2.030472,-1
21,F,0,1,8,8,2,30,2,1009,0,0.9251751,12.49002,4.145718,-1
21,F,0,1,9,1,1,35,3,2565,0,0.08812165,6.294386,0.7597608,-1
21,F,0,1,9,2,1,36,4,3798,1,6.51779E-08,6.533477,0,-1
21,F,0,1,9,3,1,33,1,1387,0,0.5108078,6.433994,4.370764,-1
21,F,0,1,9,4,2,34,2,1087,0,0.2756653,12.55787,1.225571,-1
21,F,0,1,9,5,2,33,1,2309,1,0.9118281,12.25569,4.24201,-1
21,F,0,1,9,6,2,36,4,4498,1,0.515487,12.51207,2.327761,-1
21,F,0,1,9,7,2,35,3,2864,1,0.09714743,12.13468,0.4484978,-1
21,F,0,1,9,8,1,34,2,2265,0,0.1948885,6.561141,1.627506,-1
21,F,0,1,10,1,2,37,1,3031,1,5.431108E-08,12.2389,0,-1
21,F,0,1,10,2,2,38,2,1520,0,0.09693625,12.54017,0.4334104,-1
21,F,0,1,10,3,2,39,3,5120,3,0.7266369,12.19783,3.364703,-1
21,F,0,1,10,4,1,37,1,1842,0,1.92068E-08,6.318205,0.01978234,-1
21,F,0,1,10,5,1,40,4,5031,3,1.386466E-07,6.537161,0.01978234,-1
21,F,0,1,10,6,1,39,3,3131,0,0.05828099,6.308167,0.5024107,-1
21,F,0,1,10,7,2,40,4,3187,1,1.061025,12.51471,4.794485,-1
21,F,0,1,10,8,1,38,2,2165,0,0.3470206,6.540385,2.914771,-1
21,F,0,1,11,1,1,44,4,2720,0,0.387221,6.549487,3.263988,-1
21,F,0,1,11,2,2,41,1,1776,0,0.7430182,12.21558,3.453661,-1
21,F,0,1,11,3,2,42,2,1176,0,0.63243,12.52927,2.8495,-1
21,F,0,1,11,4,2,43,3,1676,0,0.3414543,12.23069,1.571345,-1
21,F,0,1,11,5,1,41,1,1342,0,0.417476,6.358113,3.609939,-1
21,F,0,1,11,6,1,42,2,1598,0,0.4546947,6.517679,3.893701,-1
21,F,0,1,11,7,1,43,3,2665,0,4.560079E-08,6.297616,0,-1
21,F,0,1,11,8,2,44,4,1653,0,0.3564385,12.51367,1.603643,-1
21,F,0,1,12,1,2,46,2,1065,0,0.8475946,12.53794,3.851224,-1
21,F,0,1,12,2,1,45,1,1231,0,0.4910242,6.368031,4.240531,-1
21,F,0,1,12,3,2,48,4,1964,0,0.5370007,12.50862,2.425515,-1
21,F,0,1,12,4,1,47,3,4753,3,0.2089027,6.297008,1.813157,-1
21,F,0,1,12,5,2,45,1,1120,0,0.8008669,12.2099,3.658643,-1
21,F,0,1,12,6,1,46,2,2876,0,0.4447479,6.498986,3.764888,-1
21,F,0,1,12,7,1,48,4,2609,0,0.07208948,6.51468,0.6065179,-1
21,F,0,1,12,8,2,47,3,1687,0,0.2554068,12.20806,1.178856,-1
21,F,0,1,13,1,2,52,4,2809,1,0.8065393,12.47505,3.65436,-1
21,F,0,1,13,2,2,51,3,1420,0,0.09587104,12.20774,0.4405747,-1
21,F,0,1,13,3,2,49,1,1253,0,0.07174023,12.20608,0.3292442,-1
21,F,0,1,13,4,1,50,2,1942,0,0.1177489,6.529065,0.9757847,-1
21,F,0,1,13,5,1,51,3,2120,0,0.09619542,6.266073,0.8336869,-1
21,F,0,1,13,6,1,52,4,3375,1,0.2617826,6.506316,2.186327,-1
21,F,0,1,13,7,2,50,2,1864,1,0.9139671,12.52479,4.15077,-1
21,F,0,1,13,8,1,49,1,3608,2,2.739699E-08,6.36352,0,-1
21,F,0,1,14,1,1,54,2,2609,0,0.005997437,6.513775,0.04845664,-1
21,F,0,1,14,2,2,55,3,2287,1,0.4228892,12.21993,1.927829,-1
21,F,0,1,14,3,1,53,1,1198,0,0.2971499,6.370975,2.564375,-1
21,F,0,1,14,4,1,56,4,2365,0,0.3165238,6.490018,2.709494,-1
21,F,0,1,14,5,2,53,1,1287,0,0.8563253,12.21193,3.989929,-1
21,F,0,1,14,6,2,54,2,1209,0,0.4676121,12.51849,2.119141,-1
21,F,0,1,14,7,1,55,3,2009,0,9.196612E-08,6.268135,0,-1
21,F,0,1,14,8,2,56,4,2765,0,0.3189917,12.48386,1.425327,-1
21,F,0,1,15,1,1,57,1,1131,0,0.2549322,6.37138,2.185253,-1
21,F,0,1,15,2,1,60,4,3087,0,0.5316699,6.523561,4.42306,-1
21,F,0,1,15,3,2,59,3,1087,0,0.5401102,12.2055,2.462912,-1
21,F,0,1,15,4,1,58,2,2454,1,0.003324417,6.456021,0.03426402,-1
21,F,0,1,15,5,1,59,3,1698,0,0.5062507,6.283647,4.414239,-1
21,F,0,1,15,6,2,58,2,1453,0,0.9870387,12.49631,4.491698,-1
21,F,0,1,15,7,2,57,1,4798,3,0.4397263,12.17656,2.022843,-1
21,F,0,1,15,8,2,60,4,2376,0,0.6902295,12.47008,3.121799,-1
21,F,0,1,16,1,2,61,1,6276,3,0.9832391,12.1956,4.604067,-1
21,F,0,1,16,2,2,63,3,3109,1,0.8527215,12.17798,3.938853,-1
21,F,0,1,16,3,2,64,4,2464,0,0.2922543,12.45444,1.301911,-1
21,F,0,1,16,4,1,61,1,2009,0,0.513099,6.367294,4.466247,-1
21,F,0,1,16,5,1,63,3,2776,0,0.3731142,6.24419,3.315525,-1
21,F,0,1,16,6,2,62,2,1287,0,0.6195985,12.51816,2.764563,-1
21,F,0,1,16,7,1,64,4,3409,1,0.2406978,6.524374,2.020036,-1
21,F,0,1,16,8,1,62,2,1365,0,0.3802072,6.504036,3.162174,-1
21,F,0,1,17,1,3,65,1,1531,0,0.1696104,6.390611,1.446992,-1
21,F,0,1,17,2,4,67,3,2831,1,0.1167544,12.16295,0.5388666,-1
21,F,0,1,17,3,4,66,2,1309,0,0.1491341,12.52351,0.6691033,-1
21,F,0,1,17,4,3,68,4,2642,0,2.095086E-07,6.516038,0,-1
21,F,0,1,17,5,4,65,1,4453,0,0.3612751,12.24669,1.664364,-1
21,F,0,1,17,6,4,68,4,4831,0,0.3686063,12.51543,1.659654,-1
21,F,0,1,17,7,3,67,3,2265,0,0.1134378,6.290594,0.9753835,-1
21,F,0,1,17,8,3,66,2,2776,0,0.3235535,6.532918,2.676641,-1
21,F,0,1,18,1,4,69,1,1420,0,0.05488002,12.27146,0.25101,-1
21,F,0,1,18,2,3,70,2,1987,0,0.1272796,6.53229,1.057769,-1
21,F,0,1,18,3,3,72,4,2176,0,0.2005606,6.559,1.668474,-1
21,F,0,1,18,4,4,71,3,2676,0,0.3241969,12.28304,1.494231,-1
21,F,0,1,18,5,4,72,4,1764,0,0.5434765,12.51731,2.400696,-1
21,F,0,1,18,6,3,69,1,1598,0,0.02371788,6.391949,0.2046302,-1
21,F,0,1,18,7,4,70,2,1965,0,0.3647785,12.58548,1.62293,-1
21,F,0,1,18,8,3,71,3,2309,0,0.1937551,6.279834,1.695237,-1
21,F,0,1,19,1,3,76,4,3087,1,5.80579E-08,6.511446,0,-1
21,F,0,1,19,2,3,73,1,1742,0,0.4059446,6.397486,3.429711,-1
21,F,0,1,19,3,4,76,4,1676,0,0.6469073,12.50127,2.884934,-1
21,F,0,1,19,4,4,73,1,1698,0,0.510579,12.24115,2.362812,-1
21,F,0,1,19,5,4,74,2,6831,1,1.02007,12.59345,4.601386,-1
21,F,0,1,19,6,3,75,3,3509,1,0.4334176,6.233625,3.825001,-1
21,F,0,1,19,7,3,74,2,2687,0,1.482205E-07,6.560813,0,-1
21,F,0,1,19,8,4,75,3,1287,0,0.3678541,12.24127,1.673744,-1
21,F,0,1,20,1,3,77,1,2698,0,9.248595E-08,6.422515,0.01978234,-1
21,F,0,1,20,2,3,79,3,2298,0,0.1669187,6.294396,1.451313,-1
21,F,0,1,20,3,4,77,1,1731,0,0.1343513,12.24809,0.6161205,-1
21,F,0,1,20,4,3,78,2,2109,0,0.1620814,6.576055,1.358979,-1
21,F,0,1,20,5,3,80,4,3353,0,0.1987944,6.547081,1.669764,-1
21,F,0,1,20,6,4,78,2,954,0,0.8020156,12.60691,3.611675,-1
21,F,0,1,20,7,4,80,4,1565,0,0.2234467,12.55223,1.003077,-1
21,F,0,1,20,8,4,79,3,1476,0,0.3082699,12.26381,1.41347,-1
21,F,0,1,20,1,2,80,4,1409,0,0.870105,12.5324,3.83211,-1
21,F,0,1,20,2,1,79,3,2020,0,0.3606768,6.313124,3.168174,-1
21,F,0,1,20,3,1,78,2,1842,0,0.3689852,6.554796,3.011684,-1
21,F,0,1,20,4,1,77,1,2698,0,0.3085571,6.406313,2.658885,-1
21,F,0,1,20,5,2,78,2,976,0,9.847566E-08,12.56876,0,-1
21,F,0,1,20,6,2,79,3,1254,0,0.4810428,12.26699,2.195618,-1
21,F,0,1,20,7,2,77,1,1187,0,0.5393231,12.26211,2.486088,-1
21,F,0,1,20,8,1,80,4,1653,0,0.4911727,6.548141,4.109802,-1
21,F,0,1,21,1,1,81,1,2753,0,0.2167791,6.401166,1.848962,-1
21,F,0,1,21,2,1,82,2,2476,1,0.1249176,6.544442,1.053134,-1
21,F,0,1,21,3,2,83,3,1331,0,0.5230124,12.25731,2.408591,-1
21,F,0,1,21,4,2,84,4,3720,1,0.5360493,12.53193,2.395227,-1
21,F,0,1,21,5,2,81,1,1475,0,0.08318008,12.25595,0.3810355,-1
21,F,0,1,21,6,1,83,3,2253,0,0.5053798,6.319145,4.363767,-1
21,F,0,1,21,7,1,84,4,2076,0,0.2112842,6.555911,1.754351,-1
21,F,0,1,21,8,2,82,2,1020,0,0.6188139,12.57974,2.779392,-1
21,F,0,1,22,1,1,87,3,2665,0,0.1756266,6.306296,1.519297,-1
21,F,0,1,22,2,2,85,1,1453,0,0.9860748,12.25222,4.581206,-1
21,F,0,1,22,3,1,86,2,2842,0,0.3132222,6.547387,2.636336,-1
21,F,0,1,22,4,1,85,1,1609,0,0.09177804,6.403586,0.7818466,-1
21,F,0,1,22,5,2,88,4,1920,0,0.3623374,12.5289,1.620999,-1
21,F,0,1,22,6,2,87,3,1309,0,0.7083319,12.26835,3.208576,-1
21,F,0,1,22,7,1,88,4,3020,0,0.2119149,6.548008,1.75223,-1
21,F,0,1,22,8,2,86,2,5587,3,0.4613307,12.52126,2.090034,-1
21,F,0,1,23,1,1,92,4,3831,1,0.2249289,6.469103,1.910903,-1
21,F,0,1,23,2,1,91,3,2353,0,0.515848,6.315698,4.554448,-1
21,F,0,1,23,3,2,90,2,2809,3,0.7564639,12.5493,3.43051,-1
21,F,0,1,23,4,2,92,4,2520,0,0.1684996,12.53288,0.7566639,-1
21,F,0,1,23,5,1,89,1,1520,0,0.4766208,6.379895,4.110374,-1
21,F,0,1,23,6,2,91,3,1565,0,0.9485202,12.2552,4.412996,-1
21,F,0,1,23,7,1,90,2,1809,0,1.367861E-07,6.526297,0,-1
21,F,0,1,23,8,2,89,1,1220,0,0.7491429,12.24157,3.432507,-1
21,F,0,1,24,1,1,94,2,3098,1,0.1921335,6.515657,1.622447,-1
21,F,0,1,24,2,1,96,4,2198,0,0.1908407,6.572277,1.583379,-1
21,F,0,1,24,3,2,93,1,1553,0,0.6325861,12.26061,2.927838,-1
21,F,0,1,24,4,1,95,3,2542,0,1.626167E-07,6.321106,0,-1
21,F,0,1,24,5,2,96,4,1887,0,0.5306182,12.55654,2.388353,-1
21,F,0,1,24,6,1,93,1,1776,0,0.1787343,6.394518,1.537606,-1
21,F,0,1,24,7,2,94,2,1187,0,0.660933,12.58124,2.987079,-1
21,F,0,1,24,8,2,95,3,1131,0,0.2023253,12.28077,0.9247154,-1
21,F,0,1,25,1,2,100,4,2321,0,0.7589636,12.49498,3.433135,-1
21,F,0,1,25,2,1,98,2,1898,0,0.2340615,6.550065,1.938358,-1
21,F,0,1,25,3,1,99,3,2287,0,0.03595072,6.28521,0.3121605,-1
21,F,0,1,25,4,2,98,2,942,0,0.9009761,12.56592,4.085188,-1
21,F,0,1,25,5,2,99,3,1309,0,0.1916514,12.25306,0.873349,-1
21,F,0,1,25,6,1,97,1,1231,0,0.0209791,6.413055,0.1802258,-1
21,F,0,1,25,7,1,100,4,1787,0,0.3811376,6.526402,3.161679,-1
21,F,0,1,25,8,2,97,1,1064,0,0.1400214,12.25978,0.6419396,-1
21,F,0,1,26,1,1,103,3,2698,0,0.01633129,6.28466,0.1398823,-1
21,F,0,1,26,2,1,101,1,1520,0,0.1006572,6.413102,0.8625273,-1
21,F,0,1,26,3,1,104,4,2765,0,1.840725E-07,6.519853,0,-1
21,F,0,1,26,4,1,102,2,1631,0,0.1899315,6.562928,1.59961,-1
21,F,0,1,26,5,2,101,1,1509,0,3.919916E-08,12.25618,0,-1
21,F,0,1,26,6,2,102,2,931,0,0.8018903,12.56168,3.604294,-1
21,F,0,1,26,7,2,103,3,1354,0,0.2574306,12.25042,1.182337,-1
21,F,0,1,26,8,2,104,4,2742,0,0.5852778,12.51361,2.64301,-1
21,F,0,1,27,1,2,107,3,1220,0,0.4158536,12.25422,1.88948,-1
21,F,0,1,27,2,1,105,1,1497,0,0.307303,6.414742,2.633588,-1
21,F,0,1,27,3,1,107,3,1765,0,0.07931649,6.288152,0.6867107,-1
21,F,0,1,27,4,1,108,4,2909,0,0.2056237,6.527965,1.71646,-1
21,F,0,1,27,5,2,105,1,1220,0,0.1424863,12.26265,0.6513204,-1
21,F,0,1,27,6,1,106,2,1865,0,0.08420015,6.550741,0.697174,-1
21,F,0,1,27,7,2,108,4,1876,0,0.649352,12.50432,2.934583,-1
21,F,0,1,27,8,2,106,2,2498,1,0.4182152,12.5529,1.867498,-1
21,F,0,1,28,1,2,109,1,1453,0,0.2530332,12.25543,1.155891,-1
21,F,0,1,28,2,2,110,2,1220,0,0.1519585,12.55245,0.6781085,-1
21,F,0,1,28,3,1,112,4,2142,0,0.4901327,6.528038,4.112279,-1
21,F,0,1,28,4,1,109,1,1787,0,0.06774874,6.411057,0.5801346,-1
21,F,0,1,28,5,2,112,4,3498,1,0.2662921,12.50938,1.20301,-1
21,F,0,1,28,6,1,111,3,2198,0,0.05536286,6.298993,0.4801054,-1
21,F,0,1,28,7,1,110,2,1865,0,3.386499E-08,6.564694,0,-1
21,F,0,1,28,8,2,111,3,1120,0,0.3382215,12.25166,1.543576,-1
21,F,0,1,29,1,1,113,1,1353,0,0.3118631,6.393359,2.692682,-1
21,F,0,1,29,2,1,116,4,2809,1,0.1349659,6.543043,1.12187,-1
21,F,0,1,29,3,1,114,2,1765,0,6.98104E-08,6.539923,0,-1
21,F,0,1,29,4,2,115,3,1398,0,1.138954E-07,12.24709,0,-1
21,F,0,1,29,5,2,116,4,1465,0,1.497419E-07,12.51424,0,-1
21,F,0,1,29,6,2,114,2,965,0,0.5342433,12.5573,2.417594,-1
21,F,0,1,29,7,2,113,1,3420,0,0.4572962,12.25455,2.08666,-1
21,F,0,1,29,8,1,115,3,1709,0,0.3065024,6.303849,2.652989,-1
21,F,0,1,30,1,1,117,1,1531,0,0.04833509,6.406063,0.4140146,-1
21,F,0,1,30,2,1,119,3,2776,0,0.1000968,6.276093,0.8742447,-1
21,F,0,1,30,3,2,120,4,1420,0,0.6417281,12.50065,2.843242,-1
21,F,0,1,30,4,1,118,2,2498,0,0.09193968,6.584681,0.7671934,-1
21,F,0,1,30,5,2,119,3,1509,0,0.2698889,12.23848,1.239226,-1
21,F,0,1,30,6,2,117,1,1431,0,0.3162757,12.26354,1.443065,-1
21,F,0,1,30,7,2,118,2,987,0,5.971098E-08,12.56471,0,-1
21,F,0,1,30,8,1,120,4,1887,0,0.3464314,6.478646,2.925631,-1
21,F,0,1,31,1,2,123,3,1642,0,3.155517E-08,12.22245,0,-1
21,F,0,1,31,2,2,121,1,1120,0,0.163616,12.25094,0.749649,-1
21,F,0,1,31,3,1,124,4,2020,0,0.04384672,6.47298,0.3695653,-1
21,F,0,1,31,4,2,122,2,1086,0,0.9486583,12.56651,4.291902,-1
21,F,0,1,31,5,2,124,4,4176,2,0.3031207,12.49818,1.345376,-1
21,F,0,1,31,6,1,122,2,2075,0,1.284625E-07,6.57856,0,-1
21,F,0,1,31,7,1,123,3,1887,0,0.4803185,6.25752,4.165276,-1
21,F,0,1,31,8,1,121,1,2976,0,0.2035182,6.425364,1.730427,-1
21,F,0,1,32,1,1,126,2,2487,0,1.862766E-07,6.58324,0,-1
21,F,0,1,32,2,1,128,4,3120,1,0.1730479,6.489182,1.454142,-1
21,F,0,1,32,3,2,127,3,2553,1,0.9257526,12.24207,4.29245,-1
21,F,0,1,32,4,2,128,4,2387,1,0.8766395,12.52027,3.989978,-1
21,F,0,1,32,5,1,127,3,2220,0,1.27864E-07,6.284925,0,-1
21,F,0,1,32,6,1,125,1,1787,0,0.2180846,6.401808,1.873984,-1
21,F,0,1,32,7,2,126,2,1309,0,0.3674887,12.56363,1.651142,-1
21,F,0,1,32,8,2,125,1,2320,0,0.8948708,12.24686,4.16396,-1
21,F,0,1,33,1,1,130,2,2553,0,3.40018E-07,6.557736,0,-1
21,F,0,1,33,2,1,132,4,1720,0,9.59577E-08,6.52781,0,-1
21,F,0,1,33,3,2,129,1,2798,1,0.3332863,12.25332,1.520456,-1
21,F,0,1,33,4,1,131,3,1642,0,3.505114E-08,6.290503,0,-1
21,F,0,1,33,5,2,130,2,954,0,0.2539018,12.56922,1.139523,-1
21,F,0,1,33,6,2,131,3,1409,0,0.5717453,12.24342,2.638563,-1
21,F,0,1,33,7,2,132,4,1576,0,0.2892934,12.5132,1.307759,-1
21,F,0,1,33,8,1,129,1,1687,0,0.408666,6.401886,3.526589,-1
21,F,0,1,34,1,2,134,2,1020,0,0.6026349,12.56106,2.719878,-1
21,F,0,1,34,2,1,136,4,1898,0,0.5505063,6.529839,4.619273,-1
21,F,0,1,34,3,1,134,2,1287,0,0.1056124,6.569272,0.8838168,-1
21,F,0,1,34,4,2,133,1,2665,1,0.6100457,12.24745,2.819181,-1
21,F,0,1,34,5,2,135,3,1320,0,0.4497781,12.24592,2.045358,-1
21,F,0,1,34,6,2,136,4,1253,0,0.9839709,12.50233,4.386017,-1
21,F,0,1,34,7,1,133,1,2542,1,0.3618807,6.393106,3.093008,-1
21,F,0,1,34,8,1,135,3,3109,1,0.3064023,6.236571,2.680807,-1
21,F,0,1,35,1,1,138,2,2965,0,0.1721387,6.591342,1.442115,-1
21,F,0,1,35,2,2,139,3,1753,0,0.03606758,12.22651,0.1643245,-1
21,F,0,1,35,3,2,137,1,2331,0,0.09763735,12.26624,0.4454334,-1
21,F,0,1,35,4,2,140,4,2820,0,0.7313965,12.49246,3.30926,-1
21,F,0,1,35,5,2,138,2,998,0,0.5503634,12.5709,2.487427,-1
21,F,0,1,35,6,1,139,3,2465,0,0.4624859,6.255252,4.041329,-1
21,F,0,1,35,7,1,137,1,1287,0,0.2258247,6.395906,1.941889,-1
21,F,0,1,35,8,1,140,4,2154,0,0.3222451,6.522363,2.674666,-1
21,F,0,1,37,1,3,146,2,1942,0,1.359426E-07,6.529152,0,-1
21,F,0,1,37,2,4,147,3,1442,0,0.7004833,12.27015,3.201612,-1
21,F,0,1,37,3,3,145,1,1809,0,0.3698524,6.385637,3.20705,-1
21,F,0,1,37,4,4,148,4,1620,0,0.3322982,12.48732,1.483981,-1
21,F,0,1,37,5,4,145,1,6031,2,0.1622354,12.25834,0.7449358,-1
21,F,0,1,37,6,4,146,2,1131,0,0.05759355,12.53898,0.2564087,-1
21,F,0,1,37,7,3,148,4,3576,0,0.3805077,6.530767,3.176936,-1
21,F,0,1,37,8,3,147,3,2542,1,0.1428643,6.286507,1.244112,-1
21,F,0,1,38,1,3,149,1,2520,0,0.4193003,6.408718,3.631624,-1
21,F,0,1,38,2,3,152,4,2898,0,0.006041988,6.525769,0.04845664,-1
21,F,0,1,38,3,4,151,3,1653,0,0.5042518,12.25947,2.331625,-1
21,F,0,1,38,4,4,149,1,1698,0,0.2610677,12.23564,1.200078,-1
21,F,0,1,38,5,3,150,2,2520,0,0.4369427,6.514551,3.615793,-1
21,F,0,1,38,6,3,151,3,1909,0,0.09880137,6.267614,0.8632076,-1
21,F,0,1,38,7,4,152,4,3309,1,0.6116158,12.50412,2.759247,-1
21,F,0,1,38,8,4,150,2,1620,0,0.7190633,12.56232,3.253775,-1
21,F,0,1,39,1,4,156,4,2420,0,1.006887,12.52961,4.582788,-1
21,F,0,1,39,2,3,153,1,1531,0,0.5247664,6.399425,4.566774,-1
21,F,0,1,39,3,4,155,3,1431,0,0.3729725,12.22792,1.724309,-1
21,F,0,1,39,4,3,154,2,1842,0,0.1595311,6.51704,1.344066,-1
21,F,0,1,39,5,4,153,1,5042,0,0.8915701,12.0801,4.126114,-1
21,F,0,1,39,6,4,154,2,898,0,0.9917684,12.49971,4.510974,-1
21,F,0,1,39,7,3,155,3,1665,0,0.2274966,6.222408,1.976947,-1
21,F,0,1,39,8,3,156,4,3787,0,7.053803E-08,6.497053,0,-1
21,F,0,1,40,1,3,158,2,3853,1,0.1064971,6.571667,0.8778186,-1
21,F,0,1,40,2,3,157,1,1631,0,0.2305548,6.430439,1.974768,-1
21,F,0,1,40,3,4,160,4,1176,0,0.8547367,12.47994,3.871914,-1
21,F,0,1,40,4,4,157,1,3598,2,0.9232286,12.27101,4.278144,-1
21,F,0,1,40,5,4,159,3,1420,0,1.052447E-07,12.26497,0,-1
21,F,0,1,40,6,3,160,4,6564,3,0.1869576,6.498817,1.564105,-1
21,F,0,1,40,7,3,159,3,2154,0,0.01535608,6.26035,0.1356209,-1
21,F,0,1,40,8,4,158,2,4420,0,0.4134734,12.57049,1.857937,-1
21,F,0,1,41,1,1,163,3,3042,1,0.04324608,6.278097,0.3753442,-1
21,F,0,1,41,2,2,164,4,4831,2,0.7252089,12.51365,3.275245,-1
21,F,0,1,41,3,1,162,2,2087,0,0.0695417,6.50989,0.5878411,-1
21,F,0,1,41,4,2,161,1,1931,0,0.2332676,12.22613,1.066979,-1
21,F,0,1,41,5,1,164,4,2620,0,2.204254E-07,6.588813,0.01978234,-1
21,F,0,1,41,6,2,162,2,5687,3,0.8646446,12.53922,3.88373,-1
21,F,0,1,41,7,2,163,3,1386,0,0.5021403,12.27122,2.31579,-1
21,F,0,1,41,8,1,161,1,1842,0,0.1736424,6.354034,1.501938,-1
21,F,0,1,42,1,1,166,2,2064,0,0.3495297,6.519029,2.898878,-1
21,F,0,1,42,2,1,168,4,2042,0,0.1417437,6.605383,1.18068,-1
21,F,0,1,42,3,2,167,3,1220,0,1.333771E-07,12.30188,0,-1
21,F,0,1,42,4,2,168,4,2831,1,0.1623905,12.57085,0.7273927,-1
21,F,0,1,42,5,2,165,1,1409,0,0.8841692,12.27032,4.021511,-1
21,F,0,1,42,6,2,166,2,5742,3,0.5510269,12.39251,2.530026,-1
21,F,0,1,42,7,1,167,3,1953,0,2.691391E-08,6.216666,0,-1
21,F,0,1,42,8,1,165,1,1442,0,0.2217661,6.389411,1.907315,-1
21,F,0,1,43,1,1,172,4,2052,0,0.3578925,6.511541,2.989634,-1
21,F,0,1,43,2,2,170,2,3375,2,0.9113506,12.54165,4.135786,-1
21,F,0,1,43,3,2,169,1,1720,0,0.1037583,12.23061,0.4751895,-1
21,F,0,1,43,4,2,171,3,1242,0,0.1122918,12.23092,0.5128186,-1
21,F,0,1,43,5,2,172,4,3987,2,1.556241E-07,12.49008,0,-1
21,F,0,1,43,6,1,171,3,2098,0,0.3661614,6.283142,3.181862,-1
21,F,0,1,43,7,1,170,2,1631,0,0.1954633,6.533475,1.654576,-1
21,F,0,1,43,8,1,169,1,2431,0,0.2232231,6.39747,1.918161,-1
21,F,0,1,44,1,1,176,4,2287,0,0.253517,6.518561,2.152223,-1
21,F,0,1,44,2,1,173,1,1398,0,0.331942,6.404881,2.848951,-1
21,F,0,1,44,3,2,174,2,3109,2,0.7148914,12.53701,3.227738,-1
21,F,0,1,44,4,2,175,3,1253,0,0.4419301,12.22721,2.037016,-1
21,F,0,1,44,5,2,176,4,1220,0,0.5766246,12.49083,2.60842,-1
21,F,0,1,44,6,1,174,2,1687,0,0.1740361,6.545138,1.468071,-1
21,F,0,1,44,7,2,173,1,1465,0,0.3612072,12.23393,1.663423,-1
21,F,0,1,44,8,1,175,3,2254,0,0.1972038,6.266505,1.727031,-1
21,F,0,1,45,1,1,177,1,1265,0,0.2809781,6.473016,2.394818,-1
21,F,0,1,45,2,1,180,4,1698,0,0.001904174,6.558618,0.01978234,-1
21,F,0,1,45,3,2,177,1,976,0,0.283132,12.28322,1.293466,-1
21,F,0,1,45,4,2,180,4,1209,0,0.3441498,12.54154,1.550281,-1
21,F,0,1,45,5,1,179,3,2598,0,0.2877117,6.312045,2.519094,-1
21,F,0,1,45,6,2,178,2,1253,0,0.4912507,12.58434,2.21523,-1
21,F,0,1,45,7,2,179,3,1076,0,0.7777143,12.26527,3.599402,-1
21,F,0,1,45,8,1,178,2,1720,0,0.0777549,6.558885,0.6507192,-1
21,F,0,1,46,1,1,181,1,1109,0,1.172709E-07,6.413385,0,-1
21,F,0,1,46,2,1,182,2,2020,0,0.3138427,6.568637,2.62525,-1
21,F,0,1,46,3,1,184,4,1665,0,1.56967E-08,6.543395,0,-1
21,F,0,1,46,4,2,181,1,1520,0,0.1794879,12.2946,0.8206762,-1
21,F,0,1,46,5,2,184,4,1453,0,0.461459,12.54972,2.0589,-1
21,F,0,1,46,6,2,183,3,1109,0,0.5332049,12.29107,2.412813,-1
21,F,0,1,46,7,2,182,2,887,0,0.8040712,12.5912,3.632594,-1
21,F,0,1,46,8,1,183,3,2865,1,0.5230812,6.317494,4.567546,-1
21,F,0,1,47,1,2,188,4,3076,1,0.3727489,12.53876,1.674095,-1
21,F,0,1,47,2,2,186,2,1109,0,0.8209571,12.58741,3.707554,-1
21,F,0,1,47,3,2,185,1,1153,0,0.4110197,12.27433,1.883775,-1
21,F,0,1,47,4,2,187,3,1076,0,0.7835742,12.27764,3.601577,-1
21,F,0,1,47,5,1,188,4,1676,0,0.08123825,6.548754,0.680413,-1
21,F,0,1,47,6,1,186,2,1376,0,0.2064974,6.569566,1.739563,-1
21,F,0,1,47,7,1,187,3,1831,0,0.213255,6.327063,1.84005,-1
21,F,0,1,47,8,1,185,1,2387,0,0.3677796,6.436229,3.16044,-1
21,F,0,1,48,1,2,190,2,809,0,0.6548152,12.58635,2.959294,-1
21,F,0,1,48,2,1,191,3,3187,0,0.3988793,6.329483,3.446226,-1
21,F,0,1,48,3,1,189,1,1053,0,3.338555E-08,6.429975,0,-1
21,F,0,1,48,4,2,192,4,1153,0,0.2537685,12.54238,1.136944,-1
21,F,0,1,48,5,2,191,3,1053,0,0.6626439,12.2805,3.031186,-1
21,F,0,1,48,6,1,192,4,1798,0,0.1009634,6.549874,0.840466,-1
21,F,0,1,48,7,2,189,1,1065,0,0.8625252,12.295,3.931139,-1
21,F,0,1,48,8,1,190,2,1931,0,0.4652241,6.581332,3.813054,-1
21,F,0,1,49,1,1,195,3,2331,0,0.4665361,6.332853,4.030509,-1
21,F,0,1,49,2,2,196,4,1931,0,0.04918887,12.54044,0.2185032,-1
21,F,0,1,49,3,2,194,2,3031,2,0.4315545,12.581,1.9434,-1
21,F,0,1,49,4,2,195,3,1054,0,0.4907406,12.27749,2.22396,-1
21,F,0,1,49,5,1,193,1,2165,1,0.2380294,6.423786,2.024197,-1
21,F,0,1,49,6,1,194,2,3209,1,0.4933765,6.598625,4.111898,-1
21,F,0,1,49,7,2,193,1,1542,1,0.5001205,12.28808,2.29891,-1
21,F,0,1,49,8,1,196,4,1831,0,0.02024431,6.550109,0.1678588,-1
21,F,0,1,50,1,1,197,1,1209,0,0.05639949,6.449142,0.4805128,-1
21,F,0,1,50,2,2,199,3,1220,0,0.9147055,12.28273,4.222296,-1
21,F,0,1,50,3,2,200,4,1298,0,0.519169,12.54312,2.303673,-1
21,F,0,1,50,4,2,197,1,1064,0,0.009541906,12.29466,0.04423466,-1
21,F,0,1,50,5,2,198,2,820,0,0.3318159,12.5923,1.489378,-1
21,F,0,1,50,6,1,199,3,1731,0,0.1430346,6.315782,1.228601,-1
21,F,0,1,50,7,1,200,4,3331,1,0.03847551,6.538894,0.3195939,-1
21,F,0,1,50,8,1,198,2,3287,0,0.3134362,6.588018,2.587929,-1
21,F,0,1,51,1,1,201,1,3087,0,0.002436146,6.432558,0.01978234,-1
21,F,0,1,51,2,1,203,3,1931,0,0.3890809,6.28501,3.358938,-1
21,F,0,1,51,3,1,202,2,2887,1,0.1685597,6.598334,1.423266,-1
21,F,0,1,51,4,2,201,1,1520,0,0.2734181,12.28092,1.253826,-1
21,F,0,1,51,5,1,204,4,2053,0,0.2100565,6.511154,1.764805,-1
21,F,0,1,51,6,2,203,3,1309,0,1.00727,12.26599,4.627577,-1
21,F,0,1,51,7,2,204,4,1409,0,1.028261,12.52733,4.531293,-1
21,F,0,1,51,8,2,202,2,976,0,0.6993693,12.60149,3.14149,-1
21,F,0,1,52,1,2,205,1,1209,0,0.3158498,12.28801,1.4432,-1
21,F,0,1,52,2,1,208,4,2009,0,0.4214948,6.510194,3.503641,-1
21,F,0,1,52,3,1,206,2,1720,0,1.271156E-07,6.625669,0,-1
21,F,0,1,52,4,2,208,4,1931,0,0.4074092,12.52987,1.799724,-1
21,F,0,1,52,5,2,207,3,1221,0,1.049645,12.2735,4.793912,-1
21,F,0,1,52,6,2,206,2,853,0,0.31471,12.60526,1.410421,-1
21,F,0,1,52,7,1,205,1,2687,0,0.04142402,6.484114,0.3511023,-1
21,F,0,1,52,8,1,207,3,2165,0,0.04402342,6.264545,0.382573,-1
21,F,0,1,53,1,1,212,4,2131,0,0.5224686,6.494392,4.353522,-1
21,F,0,1,53,2,2,210,2,798,0,0.8374317,12.6039,3.692047,-1
21,F,0,1,53,3,2,211,3,1065,0,0.3536084,12.26099,1.623171,-1
21,F,0,1,53,4,1,210,2,1698,0,0.5010087,6.627397,4.105655,-1
21,F,0,1,53,5,2,209,1,1142,0,0.6026756,12.29602,2.773682,-1
21,F,0,1,53,6,1,211,3,1754,0,6.514966E-08,6.257048,0,-1
21,F,0,1,53,7,2,212,4,1164,0,0.324215,12.50913,1.449424,-1
21,F,0,1,53,8,1,209,1,1242,0,0.4136668,6.507714,3.521755,-1
21,F,0,1,54,1,2,214,2,831,0,0.5285346,12.59951,2.383102,-1
21,F,0,1,54,2,1,215,3,2620,0,0.1860584,6.251927,1.613012,-1
21,F,0,1,54,3,1,214,2,1342,0,0.2861818,6.683201,2.367115,-1
21,F,0,1,54,4,2,213,1,1064,0,0.2345791,12.33085,1.069543,-1
21,F,0,1,54,5,1,216,4,1587,0,0.3339685,6.509785,2.816263,-1
21,F,0,1,54,6,1,213,1,2442,0,0.2439359,6.524958,2.056808,-1
21,F,0,1,54,7,2,216,4,1853,0,0.8896346,12.55705,4.008927,-1
21,F,0,1,54,8,2,215,3,1387,0,0.7411976,12.30341,3.359054,-1
21,F,0,1,55,1,2,217,1,9999,0,-1,-1,-1,-1
21,F,0,1,55,2,2,218,2,2398,0,0.7787418,12.60549,3.5114,-1
21,F,0,1,55,3,2,220,4,2265,1,0.9262606,12.55167,4.183105,-1
21,F,0,1,55,4,1,218,2,1442,0,0.02756174,6.620094,0.2272819,-1
21,F,0,1,55,5,2,219,3,1320,0,1.192538E-07,12.29338,0,-1
21,F,0,1,55,6,1,217,1,1798,0,0.5447044,6.504902,4.649705,-1
21,F,0,1,55,7,1,220,4,2442,0,0.2991534,6.580944,2.523286,-1
21,F,0,1,55,8,1,219,3,2298,0,0.3382419,6.326285,2.915644,-1
21,F,0,1,56,1,2,221,1,3009,1,0.9612103,12.30699,4.445234,-1
21,F,0,1,56,2,1,224,4,2776,1,0.3974287,6.556005,3.361385,-1
21,F,0,1,56,3,1,223,3,3353,1,0.08626883,6.317069,0.7446731,-1
21,F,0,1,56,4,2,222,2,976,0,0.9167413,12.66453,4.114945,-1
21,F,0,1,56,5,2,223,3,1076,0,0.847632,12.28329,3.917617,-1
21,F,0,1,56,6,1,221,1,1831,0,0.3791855,6.505978,3.20766,-1
21,F,0,1,56,7,1,222,2,2064,0,1.549725E-07,6.654858,0,-1
21,F,0,1,56,8,2,224,4,1631,0,0.1512996,12.55907,0.6723125,-1
21,F,0,1,57,1,4,226,2,4031,0,0.6082994,12.58865,2.715124,-1
21,F,0,1,57,2,3,227,3,2153,0,0.3252758,6.344293,2.807631,-1
21,F,0,1,57,3,4,228,4,1020,0,0.3689838,12.55783,1.654576,-1
21,F,0,1,57,4,3,225,1,1987,0,0.07381454,6.449367,0.6345818,-1
21,F,0,1,57,5,4,227,3,3709,1,0.7679026,12.31864,3.543979,-1
21,F,0,1,57,6,3,228,4,2731,0,0.01823222,6.562513,0.1506579,-1
21,F,0,1,57,7,4,225,1,1654,0,0.8753144,12.30396,3.99503,-1
21,F,0,1,57,8,3,226,2,2898,1,0.3737544,6.571628,3.145476,-1
21,F,0,1,58,1,4,229,1,1698,0,0.1840217,12.3163,0.8418618,-1
21,F,0,1,58,2,4,230,2,1020,0,0.917633,12.60618,4.145529,-1
21,F,0,1,58,3,3,231,3,2065,0,0.06260983,6.329412,0.5403171,-1
21,F,0,1,58,4,3,229,1,1387,0,0.2042773,6.4642,1.753011,-1
21,F,0,1,58,5,3,232,4,2120,0,0.3264537,6.569914,2.690355,-1
21,F,0,1,58,6,4,231,3,1120,0,0.6855548,12.3053,3.095602,-1
21,F,0,1,58,7,3,230,2,2920,0,0.5448964,6.60719,4.587274,-1
21,F,0,1,58,8,4,232,4,3187,0,6.225705E-08,12.5738,0,-1
21,F,0,1,59,1,4,233,1,3787,0,0.3288445,12.2705,1.500244,-1
21,F,0,1,59,2,3,235,3,2376,0,0.5416338,6.34813,4.615964,-1
21,F,0,1,59,3,3,236,4,2020,1,0.2642987,6.577511,2.215672,-1
21,F,0,1,59,4,4,235,3,1076,0,0.4384151,12.29385,2.008668,-1
21,F,0,1,59,5,3,234,2,2809,0,0.01782912,6.556003,0.1493534,-1
21,F,0,1,59,6,3,233,1,3831,2,0.3620449,6.397783,3.134753,-1
21,F,0,1,59,7,4,236,4,1854,0,0.2976606,12.57331,1.316707,-1
21,F,0,1,59,8,4,234,2,1054,0,0.7375534,12.59835,3.327726,-1
21,F,0,1,60,1,3,239,3,1709,0,1.068487E-07,6.338406,0,-1
21,F,0,1,60,2,4,240,4,1564,0,0.5591539,12.56448,2.512403,-1
21,F,0,1,60,3,4,238,2,987,0,0.4827315,12.59367,2.177267,-1
21,F,0,1,60,4,4,237,1,4376,0,0.3007365,12.30665,1.379701,-1
21,F,0,1,60,5,3,238,2,1598,0,0.003118095,6.562851,0.02797646,-1
21,F,0,1,60,6,4,239,3,1342,0,3.876908E-08,12.28545,0,-1
21,F,0,1,60,7,3,237,1,3342,1,0.1948759,6.407644,1.660125,-1
21,F,0,1,60,8,3,240,4,2720,1,0.5285059,6.580404,4.365427,-1
21,F,0,1,61,1,1,243,3,1521,0,0.2951362,6.337617,2.545913,-1
21,F,0,1,61,2,1,244,4,1998,0,0.06255768,6.576814,0.5211454,-1
21,F,0,1,61,3,1,242,2,1375,0,0.28464,6.586413,2.381048,-1
21,F,0,1,61,4,2,243,3,1087,0,0.3204936,12.29539,1.466204,-1
21,F,0,1,61,5,1,241,1,1276,0,0.4115548,6.440389,3.539999,-1
21,F,0,1,61,6,2,242,2,1131,0,0.583382,12.60447,2.630241,-1
21,F,0,1,61,7,2,241,1,2276,0,0.4756445,12.29617,2.190531,-1
21,F,0,1,61,8,2,244,4,1420,0,0.7643468,12.55254,3.449577,-1
21,F,0,1,62,1,1,245,1,1342,0,0.07321557,6.428454,0.6258884,-1
21,F,0,1,62,2,1,247,3,1542,0,0.1569873,6.330481,1.354075,-1
21,F,0,1,62,3,2,246,2,842,0,0.9836017,12.6044,4.437473,-1
21,F,0,1,62,4,1,248,4,2531,1,0.1881301,6.556172,1.575698,-1
21,F,0,1,62,5,2,245,1,1176,0,0.3298605,12.28869,1.513619,-1
21,F,0,1,62,6,2,248,4,2564,1,0.954109,12.55733,4.194466,-1
21,F,0,1,62,7,2,247,3,1342,0,0.6733599,12.2975,3.040923,-1
21,F,0,1,62,8,1,246,2,2365,0,1.065411E-07,6.586047,0,-1
21,F,0,1,1,1,7,2,2,4497,0,4.808137,6.657289,46.23943,-1
21,F,0,1,1,2,8,1,1,4342,0,10.61042,12.39142,58.90052,-1
21,F,0,1,1,3,6,4,4,4831,0,10.76973,12.61961,58.58479,-1
21,F,0,1,1,4,5,2,2,2009,0,2.403276,6.659971,19.98668,-1
21,F,0,1,1,5,6,3,3,1241,0,2.397228,12.34753,10.87473,-1
21,F,0,1,1,6,7,4,4,3742,0,4.829319,6.610307,44.25864,-1
21,F,0,1,1,7,8,3,3,1676,0,4.566953,12.38937,21.63044,-1
21,F,0,1,1,8,6,1,1,3131,0,3.726143,12.36323,17.54106,-1
21,F,0,1,1,9,8,2,2,4676,0,5.91966,12.66377,27.86879,-1
21,F,0,1,1,10,7,3,3,4409,0,2.794797,6.397231,24.54974,-1
21,F,0,1,1,11,6,2,2,1520,0,4.124179,12.64867,18.98575,-1
21,F,0,1,1,12,7,1,1,1120,0,4.429885,6.528795,42.68143,-1
21,F,0,1,1,13,8,4,4,2276,0,7.618907,12.60386,37.19213,-1
21,F,0,1,1,14,5,3,3,1965,0,3.634851,6.381963,33.16966,-1
21,F,0,1,1,15,5,4,4,3720,0,1.731544,6.566461,14.58,-1
21,F,0,1,1,16,5,1,1,4209,0,3.760611,6.542777,34.02797,-1
21,F,0,1,2,1,7,2,2,2165,0,0.6755444,6.666922,5.545952,-1
21,F,0,1,2,2,5,4,4,2387,0,5.299868,6.593954,53.48938,-1
21,F,0,1,2,3,6,3,3,2131,0,1.272004,12.34998,5.72067,-1
21,F,0,1,2,4,8,2,2,1642,0,6.394913,12.68005,30.28682,-1
21,F,0,1,2,5,7,1,1,2942,0,4.51795E-08,6.46631,0,-1
21,F,0,1,2,6,7,3,3,1431,0,3.014227,6.386468,26.9322,-1
21,F,0,1,2,7,5,1,1,1242,0,1.970007,6.474514,16.85179,-1
21,F,0,1,2,8,7,4,4,1431,0,6.448265,6.636631,76.31651,-1
21,F,0,1,2,9,5,3,3,1642,0,4.386429,6.382268,43.41547,-1
21,F,0,1,2,10,5,2,2,1942,0,4.225828,6.610815,38.31329,-1
21,F,0,1,2,11,8,1,1,1553,0,2.775325,12.33746,12.94598,-1
21,F,0,1,2,12,6,4,4,1976,0,3.695127,12.56788,16.85238,-1
21,F,0,1,2,13,6,1,1,1920,0,2.688409,12.33498,12.58174,-1
21,F,0,1,2,14,6,2,2,1998,0,2.938868,12.61358,13.44323,-1
21,F,0,1,2,15,8,4,4,1520,0,1.236448,12.5694,5.621449,-1
21,F,0,1,2,16,8,3,3,1464,0,5.946963,12.34888,28.78858,-1
