Age, Gender, Awareness Type, Session, Block, Trial, Set, Pattern, Quadrant, Response Time, Num Mistakes, Distance From Target, Camera Distance From Target, Angle Error (Degrees), FC Response
20,M,0,1,1,1,1,2,2,1631,0,2.256404E-08,6.645281,0,-1
20,M,0,1,1,2,2,3,3,2609,1,0.2144333,12.32464,0.9841712,-1
20,M,0,1,1,3,2,4,4,3853,0,0.9107558,12.52299,4.028808,-1
20,M,0,1,1,4,2,1,1,2087,0,0.4750156,12.40312,2.169974,-1
20,M,0,1,1,5,2,2,2,3475,1,0.1801485,12.4708,0.806971,-1
20,M,0,1,1,6,1,1,1,2998,0,0.08914105,6.377587,0.758472,-1
20,M,0,1,1,7,1,3,3,3042,0,9.809838E-08,6.40214,0,-1
20,M,0,1,1,8,1,4,4,2686,0,0.1268043,6.678402,1.032493,-1
20,M,0,1,2,1,2,7,3,2220,0,0.9863226,12.35019,4.55591,-1
20,M,0,1,2,2,1,5,1,1842,0,0.2915002,6.360632,2.479703,-1
20,M,0,1,2,3,2,6,2,2876,0,0.1291661,12.46348,0.5784457,-1
20,M,0,1,2,4,2,8,4,1687,0,0.4936975,12.53909,2.223079,-1
20,M,0,1,2,5,1,6,2,1265,0,5.214625E-08,6.644254,0,-1
20,M,0,1,2,6,2,5,1,1676,0,0.2397322,12.42207,1.084262,-1
20,M,0,1,2,7,1,8,4,2276,0,0.4192479,6.674763,3.384255,-1
20,M,0,1,2,8,1,7,3,3320,0,0.237435,6.410832,2.035478,-1
20,M,0,1,3,1,2,9,1,2276,0,0.4273004,12.41887,1.935327,-1
20,M,0,1,3,2,1,12,4,1509,0,0.1116844,6.68066,0.9238687,-1
20,M,0,1,3,3,1,11,3,2276,0,0.5466112,6.400923,4.687217,-1
20,M,0,1,3,4,1,10,2,1187,0,0.05714712,6.652132,0.4689721,-1
20,M,0,1,3,5,2,12,4,1531,0,0.1280416,12.56152,0.5723243,-1
20,M,0,1,3,6,2,10,2,1031,0,0.2307345,12.47289,1.030216,-1
20,M,0,1,3,7,1,9,1,2364,0,0.348942,6.356431,2.974404,-1
20,M,0,1,3,8,2,11,3,1287,0,0.7735964,12.34243,3.570674,-1
20,M,0,1,4,1,2,16,4,1253,0,1.063656,12.54993,4.79714,-1
20,M,0,1,4,2,2,14,2,1531,0,0.3062604,12.46159,1.371735,-1
20,M,0,1,4,3,2,15,3,1965,0,0.5201951,12.33189,2.395227,-1
20,M,0,1,4,4,2,13,1,1909,0,0.01209856,12.41203,0.05595291,-1
20,M,0,1,4,5,1,14,2,1553,0,0.03518003,6.663229,0.2900664,-1
20,M,0,1,4,6,1,16,4,2465,0,0.1155189,6.669376,0.9419076,-1
20,M,0,1,4,7,1,15,3,3442,0,0.02552309,6.411334,0.2176059,-1
20,M,0,1,4,8,1,13,1,2809,1,0.4381459,6.349041,3.732765,-1
20,M,0,1,5,1,1,19,3,1809,0,2.734406E-08,6.41448,0,-1
20,M,0,1,5,2,1,17,1,1942,0,0.3485294,6.364998,2.969595,-1
20,M,0,1,5,3,1,18,2,1165,0,0.01610228,6.651613,0.132704,-1
20,M,0,1,5,4,2,20,4,1320,0,0.9676094,12.55083,4.287062,-1
20,M,0,1,5,5,2,17,1,1631,0,0.08617846,12.41353,0.3906707,-1
20,M,0,1,5,6,2,19,3,1131,0,0.3040405,12.35605,1.384374,-1
20,M,0,1,5,7,1,20,4,2598,0,0.1400622,6.678809,1.138836,-1
20,M,0,1,5,8,2,18,2,965,0,1.048144E-07,12.47566,0,-1
20,M,0,1,6,1,2,21,1,2098,0,0.4678895,12.42813,2.114518,-1
20,M,0,1,6,2,1,23,3,2653,0,4.560173E-07,6.421717,0,-1
20,M,0,1,6,3,1,24,4,2209,0,0.0807043,6.681125,0.6578966,-1
20,M,0,1,6,4,1,21,1,3087,0,0.3425458,6.358832,2.913831,-1
20,M,0,1,6,5,1,22,2,1053,0,0.19551,6.648187,1.605716,-1
20,M,0,1,6,6,2,24,4,1209,0,0.1236098,12.55761,0.5503638,-1
20,M,0,1,6,7,2,23,3,1376,0,0.5326342,12.36342,2.41897,-1
20,M,0,1,6,8,2,22,2,1853,0,0.262634,12.47311,1.179022,-1
20,M,0,1,7,1,2,27,3,1298,0,0.4704156,12.36715,2.134692,-1
20,M,0,1,7,2,1,28,4,3198,0,0.457227,6.677752,3.711987,-1
20,M,0,1,7,3,2,25,1,6731,0,0.6072934,12.44082,2.753566,-1
20,M,0,1,7,4,2,28,4,1876,1,1.007697,12.57734,4.565959,-1
20,M,0,1,7,5,2,26,2,1465,0,0.07842921,12.48205,0.3527702,-1
20,M,0,1,7,6,1,27,3,2576,0,0.2982689,6.43911,2.544221,-1
20,M,0,1,7,7,1,26,2,1342,0,1.237978E-07,6.664684,0,-1
20,M,0,1,7,8,1,25,1,2853,1,0.5361962,6.348285,4.569861,-1
20,M,0,1,8,1,1,32,4,1376,0,0.115351,6.69297,0.9404523,-1
20,M,0,1,8,2,2,31,3,1553,0,0.2391163,12.37226,1.086605,-1
20,M,0,1,8,3,1,29,1,1653,0,0.06734657,6.357208,0.5794597,-1
20,M,0,1,8,4,1,30,2,1031,0,0.1021047,6.652481,0.8481144,-1
20,M,0,1,8,5,2,32,4,1065,0,0.5448815,12.55759,2.461243,-1
20,M,0,1,8,6,2,30,2,887,0,0.7825945,12.46882,3.481666,-1
20,M,0,1,8,7,1,31,3,3053,0,0.228966,6.434602,1.956047,-1
20,M,0,1,8,8,2,29,1,4153,0,0.3373492,12.42959,1.524698,-1
20,M,0,1,9,1,2,34,2,965,0,0.3411522,12.47885,1.547122,-1
20,M,0,1,9,2,2,33,1,1653,0,1.184722E-07,12.434,0,-1
20,M,0,1,9,3,1,35,3,2098,0,0.3708407,6.423013,3.143795,-1
20,M,0,1,9,4,1,36,4,2265,0,0.2638414,6.685365,2.138722,-1
20,M,0,1,9,5,2,35,3,5320,0,1.646467E-07,12.36997,0,-1
20,M,0,1,9,6,1,33,1,2498,0,0.01323462,6.349731,0.1119058,-1
20,M,0,1,9,7,2,36,4,1020,0,0.8069162,12.55058,3.61162,-1
20,M,0,1,9,8,1,34,2,1398,0,2.221458E-08,6.649259,0,-1
20,M,0,1,10,1,2,39,3,1976,1,3.635214E-08,12.35174,0,-1
20,M,0,1,10,2,2,38,2,1175,0,2.397665E-07,12.46385,0,-1
20,M,0,1,10,3,2,40,4,798,0,0.1848388,12.554,0.8247196,-1
20,M,0,1,10,4,1,38,2,1320,0,1.245315E-07,6.645998,0,-1
20,M,0,1,10,5,1,40,4,2176,0,0.08809941,6.67614,0.7181882,-1
20,M,0,1,10,6,2,37,1,1442,0,0.0256965,12.43067,0.1136409,-1
20,M,0,1,10,7,1,39,3,2709,0,0.2773541,6.429964,2.369512,-1
20,M,0,1,10,8,1,37,1,2742,0,0.4700835,6.361346,4.008731,-1
20,M,0,1,11,1,1,42,2,953,0,0.09152229,6.638874,0.7545922,-1
20,M,0,1,11,2,1,43,3,1620,0,2.083585E-07,6.42003,0,-1
20,M,0,1,11,3,2,44,4,1720,0,0.7121465,12.54689,3.157218,-1
20,M,0,1,11,4,1,41,1,2064,1,0.1031868,6.345174,0.8864697,-1
20,M,0,1,11,5,2,42,2,1420,0,1.546359E-07,12.4668,0,-1
20,M,0,1,11,6,2,43,3,4353,0,0.263939,12.37053,1.205447,-1
20,M,0,1,11,7,1,44,4,1175,0,0.3430442,6.68915,2.874397,-1
20,M,0,1,11,8,2,41,1,1364,0,0.8469524,12.42909,3.831854,-1
20,M,0,1,12,1,2,46,2,1076,0,2.069596E-07,12.47032,0,-1
20,M,0,1,12,2,2,45,1,1320,0,0.1867193,12.42196,0.847191,-1
20,M,0,1,12,3,2,48,4,709,0,0.1789662,12.55622,0.7959845,-1
20,M,0,1,12,4,1,47,3,2464,1,0.1823109,6.428755,1.556077,-1
20,M,0,1,12,5,1,46,2,820,0,0.5269818,6.650777,4.262689,-1
20,M,0,1,12,6,1,48,4,2031,1,0.3602709,6.693894,2.894959,-1
20,M,0,1,12,7,1,45,1,2065,1,2.77763E-08,6.351694,0,-1
20,M,0,1,12,8,2,47,3,1787,0,3.359402E-08,12.35416,0,-1
20,M,0,1,13,1,2,50,2,1342,0,5.238904E-08,12.47168,0,-1
20,M,0,1,13,2,2,51,3,1431,0,0.4704749,12.36368,2.1357,-1
20,M,0,1,13,3,2,52,4,1131,0,0.2052488,12.55987,0.9183452,-1
20,M,0,1,13,4,2,49,1,2509,0,0.2453583,12.43363,1.108888,-1
20,M,0,1,13,5,1,52,4,2731,0,0.1069731,6.683908,0.8737969,-1
20,M,0,1,13,6,1,49,1,3742,1,0.1534605,6.354746,1.324856,-1
20,M,0,1,13,7,1,51,3,1609,0,2.034997E-08,6.426618,0,-1
20,M,0,1,13,8,1,50,2,1031,0,0.3743406,6.67239,3.119101,-1
20,M,0,1,14,1,2,56,4,1065,0,0.2788683,12.56223,1.241277,-1
20,M,0,1,14,2,2,54,2,1142,0,0.1185332,12.47103,0.5315546,-1
20,M,0,1,14,3,1,56,4,2742,0,0.03345551,6.69318,0.2733977,-1
20,M,0,1,14,4,1,55,3,1409,0,0.1369664,6.436728,1.167849,-1
20,M,0,1,14,5,2,53,1,1653,0,0.1058145,12.42492,0.4796977,-1
20,M,0,1,14,6,2,55,3,2131,0,3.937466E-08,12.3655,0,-1
20,M,0,1,14,7,1,53,1,2687,1,0.1774482,6.350684,1.512585,-1
20,M,0,1,14,8,1,54,2,1131,0,0.200068,6.64553,1.631589,-1
20,M,0,1,15,1,2,60,4,1176,0,0.6475117,12.55078,2.858691,-1
20,M,0,1,15,2,2,58,2,953,0,1.137905E-08,12.4699,0,-1
20,M,0,1,15,3,1,60,4,1331,0,1.866039E-07,6.687871,0.01978234,-1
20,M,0,1,15,4,1,57,1,2842,0,0.4836002,6.358307,4.126304,-1
20,M,0,1,15,5,1,59,3,3164,0,0.1455265,6.431077,1.242696,-1
20,M,0,1,15,6,2,57,1,1420,0,0.6101637,12.42823,2.759034,-1
20,M,0,1,15,7,1,58,2,909,0,0.008529037,6.657559,0.06852804,-1
20,M,0,1,15,8,2,59,3,1553,0,1.063981E-08,12.35641,0,-1
20,M,0,1,16,1,1,64,4,2254,0,0.319458,6.687283,2.603688,-1
20,M,0,1,16,2,1,62,2,965,0,0.2949883,6.661078,2.396044,-1
20,M,0,1,16,3,2,63,3,1820,0,0.1102507,12.35815,0.5028,-1
20,M,0,1,16,4,2,62,2,2020,0,0.05402987,12.47642,0.2422834,-1
20,M,0,1,16,5,1,61,1,2520,0,0.4449217,6.364366,3.791992,-1
20,M,0,1,16,6,2,64,4,820,0,0.4517534,12.56133,2.002911,-1
20,M,0,1,16,7,2,61,1,1820,0,0.5827368,12.43339,2.633216,-1
20,M,0,1,16,8,1,63,3,2831,1,0.320525,6.429847,2.739312,-1
20,M,0,1,17,1,4,66,2,1365,0,0.2398686,12.48369,1.073925,-1
20,M,0,1,17,2,3,68,4,4209,1,0.001168004,6.714137,0,-1
20,M,0,1,17,3,3,65,1,1998,0,0.04697398,6.364654,0.4039677,-1
20,M,0,1,17,4,3,67,3,2587,0,0.2994715,6.443333,2.554509,-1
20,M,0,1,17,5,4,68,4,1920,0,0.2427987,12.62022,1.072467,-1
20,M,0,1,17,6,4,65,1,1520,0,0.5488824,12.46035,2.485065,-1
20,M,0,1,17,7,4,67,3,1498,0,0.3963333,12.35641,1.799071,-1
20,M,0,1,17,8,3,66,2,1153,0,0.2915922,6.691483,2.432687,-1
20,M,0,1,18,1,4,71,3,1042,0,0.702259,12.34074,3.235554,-1
20,M,0,1,18,2,3,69,1,3098,1,3.520833E-08,6.41571,0,-1
20,M,0,1,18,3,3,71,3,3587,0,0.1803055,6.507499,1.534166,-1
20,M,0,1,18,4,4,72,4,2754,0,0.9736659,12.65235,4.348795,-1
20,M,0,1,18,5,3,70,2,1754,0,0.05604725,6.732795,0.4588492,-1
20,M,0,1,18,6,3,72,4,9999,0,-1,-1,-1,-1
20,M,0,1,18,7,4,70,2,1487,0,0.07455041,12.49268,0.3339648,-1
20,M,0,1,18,8,4,69,1,9386,0,0.5537976,12.49308,2.497008,-1
20,M,0,1,19,1,3,74,2,1176,0,4.603152E-08,6.717886,0,-1
20,M,0,1,19,2,4,75,3,2254,0,6.11243E-08,12.4074,0,-1
20,M,0,1,19,3,3,76,4,1976,0,4.483343E-08,6.741069,0,-1
20,M,0,1,19,4,3,73,1,1387,0,0.2693898,6.387221,2.335986,-1
20,M,0,1,19,5,4,76,4,6176,0,0.8889433,12.66552,3.951262,-1
20,M,0,1,19,6,4,74,2,4176,1,0.1655286,12.48753,0.7457234,-1
20,M,0,1,19,7,4,73,1,1142,0,0.9344559,12.49774,4.219512,-1
20,M,0,1,19,8,3,75,3,3909,0,0.05918676,6.526294,0.5000685,-1
20,M,0,1,20,1,3,78,2,3165,0,0.5300508,6.685477,4.264572,-1
20,M,0,1,20,2,3,80,4,1376,0,0.2279685,6.750742,1.874819,-1
20,M,0,1,20,3,4,77,1,1631,0,0.5569627,12.45775,2.513727,-1
20,M,0,1,20,4,4,78,2,942,0,0.07838703,12.50447,0.3505445,-1
20,M,0,1,20,5,4,79,3,1520,0,0.382454,12.38504,1.734719,-1
20,M,0,1,20,6,3,77,1,2065,1,0.2648588,6.368082,2.244633,-1
20,M,0,1,20,7,4,80,4,1120,0,0.7630226,12.60847,3.358938,-1
20,M,0,1,20,8,3,79,3,2109,1,7.80819E-08,6.496786,0,-1
20,M,0,1,20,1,1,78,2,1487,0,0.03774524,6.689288,0.309643,-1
20,M,0,1,20,2,2,80,4,953,0,0.4199025,12.60843,1.855513,-1
20,M,0,1,20,3,1,77,1,2598,0,0.09227118,6.343166,0.7895671,-1
20,M,0,1,20,4,2,78,2,998,0,0.009497253,12.48321,0.03426402,-1
20,M,0,1,20,5,2,79,3,1565,0,0.5829899,12.39064,2.641232,-1
20,M,0,1,20,6,1,80,4,2020,0,0.3007025,6.727726,2.423416,-1
20,M,0,1,20,7,2,77,1,3276,0,0.06735806,12.45842,0.3039024,-1
20,M,0,1,20,8,1,79,3,2531,0,0.1436344,6.493324,1.214987,-1
20,M,0,1,21,1,1,81,1,1909,1,0.4513469,6.355442,3.848376,-1
20,M,0,1,21,2,2,84,4,1387,1,0.5883919,12.60877,2.612319,-1
20,M,0,1,21,3,2,81,1,1809,0,0.2541344,12.45651,1.147395,-1
20,M,0,1,21,4,1,82,2,1476,0,0.3483502,6.682853,2.808537,-1
20,M,0,1,21,5,1,83,3,2198,0,0.1462264,6.501511,1.235272,-1
20,M,0,1,21,6,2,82,2,1020,0,0.57554,12.49958,2.55198,-1
20,M,0,1,21,7,1,84,4,2676,0,0.2364494,6.742074,1.958847,-1
20,M,0,1,21,8,2,83,3,3176,1,1.579671E-07,12.39892,0,-1
20,M,0,1,22,1,1,85,1,3631,1,0.1441348,6.339994,1.23067,-1
20,M,0,1,22,2,2,86,2,1464,0,0.1171045,12.48525,0.5233933,-1
20,M,0,1,22,3,2,85,1,1776,0,0.6063251,12.45399,2.743025,-1
20,M,0,1,22,4,2,88,4,1376,0,0.5410733,12.60239,2.390319,-1
20,M,0,1,22,5,1,87,3,2686,0,0.09493775,6.487691,0.8038125,-1
20,M,0,1,22,6,1,88,4,2176,0,0.1934947,6.740315,1.563354,-1
20,M,0,1,22,7,2,87,3,1565,0,0.02240929,12.39719,0.1008706,-1
20,M,0,1,22,8,1,86,2,1076,0,0.2597837,6.693023,2.113685,-1
20,M,0,1,23,1,2,91,3,1309,0,0.2013598,12.40763,0.912574,-1
20,M,0,1,23,2,1,92,4,1587,0,0.338808,6.73383,2.70935,-1
20,M,0,1,23,3,2,89,1,1564,0,0.4764818,12.45113,2.162475,-1
20,M,0,1,23,4,1,90,2,1042,0,0.2390977,6.676702,1.958447,-1
20,M,0,1,23,5,1,89,1,2453,1,0.2482554,6.34199,2.115444,-1
20,M,0,1,23,6,1,91,3,1520,0,8.060613E-08,6.48371,0,-1
20,M,0,1,23,7,2,92,4,1298,0,0.4577039,12.61186,2.060706,-1
20,M,0,1,23,8,2,90,2,1231,0,0.1259992,12.48605,0.5650989,-1
20,M,0,1,24,1,2,95,3,1287,0,0.1265164,12.39385,0.5760729,-1
20,M,0,1,24,2,2,96,4,920,0,0.7979295,12.6097,3.600326,-1
20,M,0,1,24,3,2,94,2,776,0,0.1533978,12.48428,0.6852845,-1
20,M,0,1,24,4,1,95,3,1709,0,0.01626313,6.485328,0.1370561,-1
20,M,0,1,24,5,1,93,1,1376,0,0.1188088,6.352651,1.012591,-1
20,M,0,1,24,6,1,94,2,931,0,0.1627024,6.682779,1.332074,-1
20,M,0,1,24,7,2,93,1,809,0,0.2743315,12.44567,1.243325,-1
20,M,0,1,24,8,1,96,4,2353,0,1.015228E-07,6.734293,0,-1
20,M,0,1,25,1,2,98,2,1909,1,0.7199419,12.47401,3.217107,-1
20,M,0,1,25,2,1,100,4,3831,1,0.4335903,6.739771,3.489474,-1
20,M,0,1,25,3,1,98,2,1065,0,0.0006186682,6.688487,0,-1
20,M,0,1,25,4,2,99,3,2242,0,9.482987E-08,12.40347,0,-1
20,M,0,1,25,5,2,100,4,964,0,0.5590732,12.62207,2.486088,-1
20,M,0,1,25,6,2,97,1,1076,0,0.02013507,12.44948,0.09278741,-1
20,M,0,1,25,7,1,99,3,2087,0,1.970381E-07,6.496047,0,-1
20,M,0,1,25,8,1,97,1,1242,0,0.1541554,6.351756,1.311644,-1
20,M,0,1,26,1,2,102,2,2765,0,0.531691,12.50032,2.376605,-1
20,M,0,1,26,2,2,103,3,1276,0,2.525521E-08,12.40563,0,-1
20,M,0,1,26,3,1,101,1,2653,0,0.1148082,6.351842,0.9787881,-1
20,M,0,1,26,4,1,102,2,887,0,0.05148787,6.684724,0.4210443,-1
20,M,0,1,26,5,1,104,4,2909,0,0.1211443,6.742518,0.9899204,-1
20,M,0,1,26,6,1,103,3,1787,0,0.1655345,6.486756,1.400815,-1
20,M,0,1,26,7,2,101,1,1975,0,0.4994238,12.45486,2.258021,-1
20,M,0,1,26,8,2,104,4,1065,0,0.1240525,12.61234,0.5510744,-1
20,M,0,1,27,1,2,106,2,1586,0,0.3498325,12.48758,1.563354,-1
20,M,0,1,27,2,1,105,1,2509,0,0.3743567,6.342931,3.193654,-1
20,M,0,1,27,3,1,107,3,1442,0,1.872232E-07,6.485522,0,-1
20,M,0,1,27,4,2,105,1,1287,0,0.152015,12.45247,0.688134,-1
20,M,0,1,27,5,1,106,2,964,0,0.2888064,6.692107,2.361072,-1
20,M,0,1,27,6,2,108,4,953,0,1.001102,12.61481,4.502891,-1
20,M,0,1,27,7,2,107,3,6808,0,0.2358654,12.40915,1.074472,-1
20,M,0,1,27,8,1,108,4,2409,0,7.774739E-08,6.752987,0,-1
20,M,0,1,28,1,1,111,3,2331,0,0.01235788,6.494998,0.1027921,-1
20,M,0,1,28,2,2,112,4,1065,0,0.09950238,12.62396,0.4419051,-1
20,M,0,1,28,3,1,109,1,1220,0,0.3851321,6.358227,3.281694,-1
20,M,0,1,28,4,2,110,2,1765,0,0.4860671,12.49496,2.158489,-1
20,M,0,1,28,5,2,111,3,1076,0,0.2896489,12.4053,1.323526,-1
20,M,0,1,28,6,2,109,1,1920,0,1.984302E-08,12.4594,0,-1
20,M,0,1,28,7,1,112,4,2142,0,0.427384,6.750283,3.405478,-1
20,M,0,1,28,8,1,110,2,1820,0,0.08571858,6.683581,0.6996954,-1
20,M,0,1,29,1,1,115,3,2753,1,0.4331615,6.489818,3.670398,-1
20,M,0,1,29,2,1,114,2,1042,1,0.1422985,6.693733,1.15606,-1
20,M,0,1,29,3,2,116,4,1942,1,0.420367,12.61779,1.846208,-1
20,M,0,1,29,4,2,114,2,2054,0,0.2370671,12.5016,1.058509,-1
20,M,0,1,29,5,1,113,1,1620,0,0.5386097,6.353351,4.596658,-1
20,M,0,1,29,6,2,115,3,1664,0,0.0727115,12.3986,0.3310224,-1
20,M,0,1,29,7,1,116,4,1909,0,7.148025E-08,6.749319,0,-1
20,M,0,1,29,8,2,113,1,1776,0,0.08997588,12.4573,0.4059006,-1
20,M,0,1,30,1,1,118,2,1365,0,0.05271276,6.694808,0.4306931,-1
20,M,0,1,30,2,2,120,4,1264,0,0.1769273,12.6132,0.7878303,-1
20,M,0,1,30,3,1,117,1,1309,0,0.04870192,6.353903,0.4168407,-1
20,M,0,1,30,4,1,119,3,2776,0,0.4665644,6.488699,3.954681,-1
20,M,0,1,30,5,1,120,4,1942,0,0.09421495,6.753844,0.7699938,-1
20,M,0,1,30,6,2,118,2,1109,0,0.9745198,12.50159,4.325766,-1
20,M,0,1,30,7,2,117,1,1142,0,0.05320987,12.46192,0.2398483,-1
20,M,0,1,30,8,2,119,3,2553,0,0.4202703,12.40577,1.920302,-1
20,M,0,1,31,1,2,122,2,1109,0,0.1120323,12.49865,0.5024107,-1
20,M,0,1,31,2,2,124,4,1042,0,0.6091936,12.61573,2.746662,-1
20,M,0,1,31,3,2,121,1,1687,0,0.1063921,12.45693,0.4805128,-1
20,M,0,1,31,4,1,124,4,1554,0,0.1727815,6.745326,1.423266,-1
20,M,0,1,31,5,1,121,1,4487,1,0.4258192,6.345563,3.638196,-1
20,M,0,1,31,6,1,123,3,1387,0,0.4687602,6.493317,3.97084,-1
20,M,0,1,31,7,1,122,2,1120,0,0.1359002,6.69276,1.117676,-1
20,M,0,1,31,8,2,123,3,1709,0,0.7586329,12.40316,3.480203,-1
20,M,0,1,32,1,2,125,1,1865,0,0.03911301,12.44488,0.1758294,-1
20,M,0,1,32,2,2,126,2,1898,0,0.1223249,12.50314,0.5464389,-1
20,M,0,1,32,3,1,127,3,2342,0,0.3776062,6.496225,3.196105,-1
20,M,0,1,32,4,2,128,4,1831,0,0.9722856,12.61846,4.283406,-1
20,M,0,1,32,5,2,127,3,1587,0,0.1566059,12.40955,0.7127182,-1
20,M,0,1,32,6,1,125,1,2698,0,0.4157386,6.359458,3.543537,-1
20,M,0,1,32,7,1,128,4,2953,0,0.3726569,6.732129,2.983407,-1
20,M,0,1,32,8,1,126,2,1220,0,0.3909467,6.682375,3.152688,-1
20,M,0,1,33,1,1,131,3,2376,0,0.4600246,6.50458,3.888719,-1
20,M,0,1,33,2,1,130,2,1076,0,0.1691064,6.700935,1.380977,-1
20,M,0,1,33,3,1,132,4,2765,0,2.745072E-08,6.739718,0,-1
20,M,0,1,33,4,2,131,3,1531,0,0.4269923,12.41137,1.935529,-1
20,M,0,1,33,5,2,129,1,2276,0,4.616464E-08,12.46583,0,-1
20,M,0,1,33,6,2,130,2,1165,0,0.4671508,12.506,2.071316,-1
20,M,0,1,33,7,2,132,4,853,0,0.2371463,12.62047,1.058694,-1
20,M,0,1,33,8,1,129,1,1176,0,3.099004E-07,6.354156,0,-1
20,M,0,1,34,1,1,134,2,1176,0,0.118872,6.694851,0.9717657,-1
20,M,0,1,34,2,1,136,4,2353,0,0.1464812,6.752377,1.177195,-1
20,M,0,1,34,3,2,134,2,809,0,0.3862413,12.50677,1.723401,-1
20,M,0,1,34,4,1,133,1,1931,0,0.2350325,6.362238,1.997628,-1
20,M,0,1,34,5,2,135,3,2431,0,0.6434453,12.4122,2.907374,-1
20,M,0,1,34,6,2,133,1,2509,0,0.08014344,12.45516,0.3620769,-1
20,M,0,1,34,7,2,136,4,853,0,0.2313816,12.61788,1.023547,-1
20,M,0,1,34,8,1,135,3,1842,0,1.345052E-07,6.491782,0,-1
20,M,0,1,35,1,1,138,2,965,0,0.0489358,6.695517,0.3990945,-1
20,M,0,1,35,2,2,139,3,1231,0,0.3591104,12.41485,1.635901,-1
20,M,0,1,35,3,2,138,2,1309,0,0.4681039,12.4984,2.078767,-1
20,M,0,1,35,4,2,137,1,1309,0,0.2733166,12.46204,1.232735,-1
20,M,0,1,35,5,2,140,4,2476,0,0.6700644,12.619,3.005047,-1
20,M,0,1,35,6,1,139,3,2420,0,0.3070526,6.494934,2.598044,-1
20,M,0,1,35,7,1,137,1,1276,0,0.4515849,6.364721,3.847511,-1
20,M,0,1,35,8,1,140,4,1787,0,0.02588016,6.736871,0.2102893,-1
20,M,0,1,37,1,3,146,2,765,0,0.3327313,6.695149,2.686641,-1
20,M,0,1,37,2,3,145,1,1487,0,2.104905E-08,6.383883,0,-1
20,M,0,1,37,3,3,147,3,1909,0,0.1932092,6.520862,1.640798,-1
20,M,0,1,37,4,4,146,2,787,0,0.6385368,12.5027,2.826878,-1
20,M,0,1,37,5,3,148,4,2531,1,0.07466597,6.736285,0.6036074,-1
20,M,0,1,37,6,4,145,1,1142,0,0.5310515,12.44135,2.394165,-1
20,M,0,1,37,7,4,147,3,1365,0,0.4401898,12.35179,2.008668,-1
20,M,0,1,37,8,4,148,4,2164,0,2.294346E-07,12.67947,0,-1
20,M,0,1,38,1,3,151,3,2342,0,0.1082681,6.48945,0.9091367,-1
20,M,0,1,38,2,4,150,2,1265,0,0.519039,12.501,2.302738,-1
20,M,0,1,38,3,4,152,4,853,0,0.8115688,12.62922,3.643466,-1
20,M,0,1,38,4,3,149,1,3376,0,0.1603825,6.375157,1.378424,-1
20,M,0,1,38,5,3,150,2,1731,0,0.08980406,6.689891,0.7348864,-1
20,M,0,1,38,6,4,149,1,1709,0,0.5560743,12.4426,2.504756,-1
20,M,0,1,38,7,3,152,4,2154,0,0.003232209,6.735804,0.01978234,-1
20,M,0,1,38,8,4,151,3,2142,0,0.6275273,12.41106,2.871331,-1
20,M,0,1,39,1,4,154,2,898,0,0.1783124,12.50294,0.7952467,-1
20,M,0,1,39,2,3,156,4,2242,0,0.2027552,6.762126,1.631469,-1
20,M,0,1,39,3,3,155,3,1487,0,1.969114E-08,6.49695,0,-1
20,M,0,1,39,4,3,154,2,798,0,1.011729E-07,6.702625,0,-1
20,M,0,1,39,5,4,153,1,842,0,0.2543916,12.42447,1.152839,-1
20,M,0,1,39,6,4,156,4,842,0,0.8820097,12.61433,3.907707,-1
20,M,0,1,39,7,4,155,3,887,0,0.4071713,12.34795,1.846526,-1
20,M,0,1,39,8,3,153,1,2587,0,0.4508453,6.362432,3.842469,-1
20,M,0,1,40,1,4,160,4,754,0,0.837127,12.62775,3.690403,-1
20,M,0,1,40,2,3,158,2,753,0,0.2836768,6.676674,2.294478,-1
20,M,0,1,40,3,3,157,1,1797,0,0.1030517,6.360497,0.8816,-1
20,M,0,1,40,4,3,160,4,1298,0,0.5393041,6.726899,4.349786,-1
20,M,0,1,40,5,3,159,3,2153,0,0.02370567,6.517744,0.199792,-1
20,M,0,1,40,6,4,158,2,2287,0,0.6647763,12.50998,3.017399,-1
20,M,0,1,40,7,4,159,3,965,0,0.2949582,12.34487,1.344648,-1
20,M,0,1,40,8,4,157,1,2265,1,0.3991399,12.44057,1.808077,-1
20,M,0,1,41,1,2,163,3,1187,0,0.3985463,12.41225,1.803417,-1
20,M,0,1,41,2,2,162,2,1342,1,0.02757407,12.4946,0.1235407,-1
20,M,0,1,41,3,2,161,1,1787,0,0.08951546,12.46293,0.403483,-1
20,M,0,1,41,4,1,164,4,3576,0,0.08183178,6.743978,0.6611602,-1
20,M,0,1,41,5,1,161,1,1665,0,0.509559,6.362957,4.343478,-1
20,M,0,1,41,6,1,162,2,1754,0,0.1586566,6.676461,1.293768,-1
20,M,0,1,41,7,1,163,3,2298,0,0.3174361,6.493348,2.687224,-1
20,M,0,1,41,8,2,164,4,1320,0,0.06768572,12.61068,0.3000144,-1
20,M,0,1,42,1,1,166,2,1354,0,0.08300308,6.68569,0.6772422,-1
20,M,0,1,42,2,1,167,3,1787,0,0.217035,6.4873,1.839092,-1
20,M,0,1,42,3,2,168,4,1142,0,0.3343212,12.61243,1.480284,-1
20,M,0,1,42,4,2,167,3,1220,0,0.6887497,12.39517,3.155667,-1
20,M,0,1,42,5,1,165,1,1687,1,0.2219809,6.356287,1.889377,-1
20,M,0,1,42,6,2,166,2,1320,0,1.603886E-07,12.48762,0,-1
20,M,0,1,42,7,2,165,1,1776,0,0.6141182,12.45779,2.790358,-1
20,M,0,1,42,8,1,168,4,1209,0,0.07960802,6.731014,0.644677,-1
20,M,0,1,43,1,1,169,1,1509,0,0.3160429,6.348206,2.693191,-1
20,M,0,1,43,2,2,170,2,1053,0,0.3560601,12.49237,1.602788,-1
20,M,0,1,43,3,1,171,3,1687,0,1.99906E-08,6.494909,0,-1
20,M,0,1,43,4,1,170,2,1031,0,6.40191E-08,6.686056,0,-1
20,M,0,1,43,5,2,172,4,1742,0,0.4696908,12.60139,2.079143,-1
20,M,0,1,43,6,2,169,1,1842,0,0.4700269,12.46066,2.118956,-1
20,M,0,1,43,7,1,172,4,1165,0,4.167859E-08,6.741245,0,-1
20,M,0,1,43,8,2,171,3,7853,0,0.5340576,12.38968,2.454633,-1
20,M,0,1,44,1,2,173,1,3265,0,0.6758264,12.46031,3.049794,-1
20,M,0,1,44,2,2,174,2,1209,0,0.2550386,12.49149,1.136944,-1
20,M,0,1,44,3,1,173,1,3931,0,0.01360534,6.348896,0.1153499,-1
20,M,0,1,44,4,2,175,3,1664,0,0.1380214,12.41149,0.6274496,-1
20,M,0,1,44,5,2,176,4,1464,0,0.1684783,12.62048,0.745461,-1
20,M,0,1,44,6,1,174,2,876,0,0.2302752,6.690974,1.863616,-1
20,M,0,1,44,7,1,175,3,1676,0,0.3217862,6.496717,2.726203,-1
20,M,0,1,44,8,1,176,4,1665,0,0.3314585,6.742865,2.756124,-1
20,M,0,1,45,1,2,178,2,1042,0,0.6305147,12.49089,2.8302,-1
20,M,0,1,45,2,2,179,3,876,0,0.1078273,12.40199,0.4901886,-1
20,M,0,1,45,3,1,180,4,2087,1,0.179037,6.737051,1.441165,-1
20,M,0,1,45,4,2,177,1,1609,0,0.6575669,12.47018,2.984194,-1
20,M,0,1,45,5,1,178,2,842,0,0.1215156,6.696122,1.000342,-1
20,M,0,1,45,6,1,179,3,1142,0,0.1102063,6.512821,0.930201,-1
20,M,0,1,45,7,2,180,4,2331,0,0.002281239,12.6157,0.01978234,-1
20,M,0,1,45,8,1,177,1,2431,0,0.32138,6.363579,2.736666,-1
20,M,0,1,46,1,2,183,3,5253,0,0.3036334,12.40617,1.388044,-1
20,M,0,1,46,2,2,184,4,1476,0,0.5516508,12.63312,2.45551,-1
20,M,0,1,46,3,1,181,1,2987,1,0.09435588,6.353204,0.8137322,-1
20,M,0,1,46,4,1,182,2,898,0,0.2742213,6.688273,2.219379,-1
20,M,0,1,46,5,1,184,4,1576,0,0.446479,6.74701,3.572264,-1
20,M,0,1,46,6,2,182,2,3209,0,6.085751E-08,12.4976,0,-1
20,M,0,1,46,7,1,183,3,2298,0,1.320672E-07,6.502073,0,-1
20,M,0,1,46,8,2,181,1,1609,0,0.1425142,12.46719,0.6437659,-1
20,M,0,1,47,1,1,188,4,1098,0,0.0844072,6.748101,0.680988,-1
20,M,0,1,47,2,1,187,3,1931,0,0.4681129,6.494959,3.964226,-1
20,M,0,1,47,3,2,188,4,1131,0,0.03123766,12.62828,0.1370561,-1
20,M,0,1,47,4,1,186,2,709,0,0.2652537,6.691922,2.152041,-1
20,M,0,1,47,5,2,185,1,1042,0,0.3298061,12.46555,1.487932,-1
20,M,0,1,47,6,2,187,3,1054,0,0.1771633,12.40911,0.8060005,-1
20,M,0,1,47,7,1,185,1,1398,0,0.06025116,6.354791,0.5185105,-1
20,M,0,1,47,8,2,186,2,1820,0,0.4106208,12.51366,1.850761,-1
20,M,0,1,48,1,1,192,4,2620,0,0.322472,6.745097,2.579899,-1
20,M,0,1,48,2,1,191,3,2365,0,0.2084567,6.503997,1.761475,-1
20,M,0,1,48,3,2,190,2,965,0,8.762623E-08,12.50151,0,-1
20,M,0,1,48,4,2,192,4,1731,0,0.1628312,12.61976,0.7252374,-1
20,M,0,1,48,5,2,191,3,1820,0,0.1686023,12.41468,0.7641266,-1
20,M,0,1,48,6,2,189,1,1776,0,0.03926501,12.46338,0.1780411,-1
20,M,0,1,48,7,1,190,2,797,0,1.221267E-07,6.693747,0,-1
20,M,0,1,48,8,1,189,1,1765,0,0.3897413,6.35126,3.31765,-1
20,M,0,1,49,1,2,194,2,964,0,0.4518708,12.50608,2.042006,-1
20,M,0,1,49,2,2,196,4,1042,0,4.652119E-08,12.62591,0,-1
20,M,0,1,49,3,1,194,2,876,0,1.902132E-07,6.695836,0,-1
20,M,0,1,49,4,1,193,1,2898,0,0.06296106,6.355543,0.5410409,-1
20,M,0,1,49,5,2,195,3,2742,0,0.8240955,12.40444,3.773771,-1
20,M,0,1,49,6,2,193,1,1120,0,0.2227775,12.46052,1.008136,-1
20,M,0,1,49,7,1,195,3,1865,0,0.01432144,6.506041,0.1186941,-1
20,M,0,1,49,8,1,196,4,2042,0,1.330756E-07,6.744422,0,-1
20,M,0,1,50,1,2,199,3,1220,0,0.639766,12.40995,2.927503,-1
20,M,0,1,50,2,1,198,2,1076,0,2.178336E-07,6.705872,0,-1
20,M,0,1,50,3,1,199,3,1431,0,0.2361186,6.493278,1.99704,-1
20,M,0,1,50,4,2,200,4,965,0,0.442037,12.62699,1.967818,-1
20,M,0,1,50,5,1,197,1,1776,0,1.29239E-07,6.349371,0,-1
20,M,0,1,50,6,2,198,2,1553,0,0.1939916,12.49635,0.8717791,-1
20,M,0,1,50,7,1,200,4,1998,0,1.167551E-07,6.743783,0,-1
20,M,0,1,50,8,2,197,1,1776,0,1.873772E-08,12.46034,0,-1
20,M,0,1,51,1,1,204,4,2409,0,2.562761E-07,6.749786,0,-1
20,M,0,1,51,2,1,203,3,2731,1,0.314343,6.498724,2.636113,-1
20,M,0,1,51,3,1,201,1,1476,0,0.1705749,6.357437,1.456831,-1
20,M,0,1,51,4,2,202,2,1431,0,0.1443029,12.49014,0.644677,-1
20,M,0,1,51,5,2,204,4,909,0,0.8550557,12.61359,3.85727,-1
20,M,0,1,51,6,2,203,3,1653,0,0.2267164,12.40827,1.032493,-1
20,M,0,1,51,7,1,202,2,942,0,0.02636764,6.712141,0.2158,-1
20,M,0,1,51,8,2,201,1,2364,0,0.03654348,12.4601,0.1643245,-1
20,M,0,1,52,1,2,207,3,1776,0,0.823889,12.40677,3.772111,-1
20,M,0,1,52,2,2,208,4,1465,1,0.6219208,12.61794,2.73015,-1
20,M,0,1,52,3,2,206,2,787,0,0.3338931,12.49225,1.504802,-1
20,M,0,1,52,4,1,207,3,2420,0,2.277555E-07,6.497392,0,-1
20,M,0,1,52,5,2,205,1,2431,0,4.024973E-08,12.45577,0,-1
20,M,0,1,52,6,1,208,4,1276,0,0.12577,6.757756,1.029836,-1
20,M,0,1,52,7,1,206,2,931,0,0.05141785,6.696308,0.4191812,-1
20,M,0,1,52,8,1,205,1,4520,0,0.1268309,6.360047,1.088585,-1
20,M,0,1,53,1,2,210,2,1209,0,0.2894312,12.50791,1.286944,-1
20,M,0,1,53,2,1,211,3,2353,0,1.050745E-07,6.504234,0,-1
20,M,0,1,53,3,2,209,1,1520,0,0.09011155,12.46974,0.4059006,-1
20,M,0,1,53,4,2,212,4,1065,0,0.2244554,12.64735,0.9993636,-1
20,M,0,1,53,5,1,209,1,2131,0,0.2308276,6.358227,1.967022,-1
20,M,0,1,53,6,1,210,2,753,0,0.04133027,6.692366,0.3380413,-1
20,M,0,1,53,7,1,212,4,2776,0,0.2892869,6.728542,2.333052,-1
20,M,0,1,53,8,2,211,3,1842,0,0.79599,12.40029,3.645991,-1
20,M,0,1,54,1,1,213,1,1554,0,0.003338842,6.350031,0.02797646,-1
20,M,0,1,54,2,2,215,3,942,0,0.3255641,12.41647,1.485958,-1
20,M,0,1,54,3,1,214,2,853,0,0.1168247,6.699815,0.9544962,-1
20,M,0,1,54,4,1,215,3,2209,0,0.2567543,6.502641,2.170695,-1
20,M,0,1,54,5,2,213,1,2064,0,0.4883269,12.45041,2.222727,-1
20,M,0,1,54,6,1,216,4,2531,0,0.2396172,6.757746,1.917549,-1
20,M,0,1,54,7,2,214,2,909,0,0.4981775,12.50419,2.210808,-1
20,M,0,1,54,8,2,216,4,887,0,0.8902966,12.63751,3.985951,-1
20,M,0,1,55,1,2,217,1,742,0,0.4011852,12.46673,1.808077,-1
20,M,0,1,55,2,2,220,4,1031,0,0.8562527,12.63505,3.842826,-1
20,M,0,1,55,3,2,219,3,1865,0,0.337727,12.41116,1.542562,-1
20,M,0,1,55,4,1,220,4,2342,0,0.07768417,6.777153,0.6305605,-1
20,M,0,1,55,5,2,218,2,831,0,0.2481184,12.50157,1.10553,-1
20,M,0,1,55,6,1,219,3,1709,0,0.2623221,6.498474,2.211162,-1
20,M,0,1,55,7,1,217,1,1509,0,0.06292769,6.349307,0.5388666,-1
20,M,0,1,55,8,1,218,2,1031,0,0.4697702,6.707495,3.835838,-1
20,M,0,1,56,1,1,224,4,1776,0,0.3225957,6.747437,2.586643,-1
20,M,0,1,56,2,2,223,3,1298,0,0.609002,12.41309,2.785864,-1
20,M,0,1,56,3,1,221,1,3031,0,0.4441034,6.355509,3.788686,-1
20,M,0,1,56,4,2,222,2,987,0,0.1806858,12.49918,0.8086666,-1
20,M,0,1,56,5,2,224,4,1065,0,0.3588348,12.63505,1.607543,-1
20,M,0,1,56,6,2,221,1,1709,0,0.02898168,12.47139,0.1297215,-1
20,M,0,1,56,7,1,222,2,1065,0,0.3007733,6.695811,2.449764,-1
20,M,0,1,56,8,1,223,3,2165,0,5.73482E-08,6.507146,0,-1
20,M,0,1,57,1,3,226,2,1253,0,0.1910851,6.702111,1.546743,-1
20,M,0,1,57,2,3,227,3,2875,0,8.987382E-08,6.530145,0,-1
20,M,0,1,57,3,3,225,1,3420,0,0.09418785,6.349597,0.8134917,-1
20,M,0,1,57,4,4,228,4,1731,0,0.8539475,12.63533,3.764004,-1
20,M,0,1,57,5,4,226,2,820,0,0.07840254,12.49902,0.3511023,-1
20,M,0,1,57,6,4,225,1,2554,0,9.24279E-09,12.46282,0,-1
20,M,0,1,57,7,4,227,3,1131,0,0.1902508,12.36168,0.8656976,-1
20,M,0,1,57,8,3,228,4,2609,0,1.298562E-07,6.784043,0,-1
20,M,0,1,58,1,4,231,3,1165,0,0.36619,12.35478,1.670818,-1
20,M,0,1,58,2,4,232,4,942,0,0.3741537,12.63462,1.650668,-1
20,M,0,1,58,3,4,230,2,1242,1,2.035198E-07,12.51374,0,-1
20,M,0,1,58,4,3,229,1,4176,1,0.3448051,6.345742,2.954858,-1
20,M,0,1,58,5,3,230,2,1076,0,0.2561012,6.725297,2.090877,-1
20,M,0,1,58,6,4,229,1,1831,0,0.5111807,12.4842,2.317227,-1
20,M,0,1,58,7,3,232,4,2398,0,0.4343621,6.746965,3.455814,-1
20,M,0,1,58,8,3,231,3,1476,0,0.1807033,6.533905,1.525083,-1
20,M,0,1,59,1,3,233,1,1464,0,0.1701734,6.360113,1.44618,-1
20,M,0,1,59,2,3,234,2,876,0,4.361747E-08,6.715891,0,-1
20,M,0,1,59,3,4,236,4,1665,0,0.3381488,12.64259,1.510772,-1
20,M,0,1,59,4,3,235,3,2320,0,1.004876E-07,6.540565,0,-1
20,M,0,1,59,5,4,234,2,1398,0,0.05233161,12.51141,0.2349025,-1
20,M,0,1,59,6,3,236,4,2465,0,0.1519147,6.755354,1.220932,-1
20,M,0,1,59,7,4,235,3,1065,0,0.3368683,12.42263,1.531485,-1
20,M,0,1,59,8,4,233,1,1342,0,0.933409,12.44256,4.228182,-1
20,M,0,1,60,1,3,240,4,3086,0,0.01303907,6.755327,0.1065312,-1
20,M,0,1,60,2,4,238,2,1053,0,0.1129221,12.5059,0.5055169,-1
20,M,0,1,60,3,3,237,1,1654,0,0.01704845,6.365151,0.1467098,-1
20,M,0,1,60,4,3,238,2,3298,0,0.06977841,6.713569,0.5719823,-1
20,M,0,1,60,5,4,237,1,965,0,0.6680436,12.48241,3.053386,-1
20,M,0,1,60,6,3,239,3,2053,0,1.521818E-07,6.510694,0,-1
20,M,0,1,60,7,4,240,4,8020,0,0.8480451,12.67182,3.744602,-1
20,M,0,1,60,8,4,239,3,1309,0,9.579347E-08,12.35559,0.01978234,-1
20,M,0,1,61,1,2,244,4,1064,0,0.7867454,12.62853,3.507103,-1
20,M,0,1,61,2,1,242,2,1253,0,0.3285489,6.695907,2.651439,-1
20,M,0,1,61,3,2,241,1,1154,0,0.4119928,12.4477,1.867708,-1
20,M,0,1,61,4,1,244,4,1987,0,0.1782449,6.753268,1.431628,-1
20,M,0,1,61,5,2,243,3,1042,0,0.113078,12.41178,0.5128186,-1
20,M,0,1,61,6,2,242,2,1009,0,0.02360203,12.49343,0.1046783,-1
20,M,0,1,61,7,1,243,3,1576,0,5.820997E-08,6.508699,0,-1
20,M,0,1,61,8,1,241,1,1498,0,0.4498528,6.347949,3.841297,-1
20,M,0,1,62,1,2,246,2,954,0,0.3296549,12.49219,1.467004,-1
20,M,0,1,62,2,1,245,1,1520,0,0.38502,6.347507,3.287774,-1
20,M,0,1,62,3,1,247,3,2065,0,7.317065E-08,6.50145,0,-1
20,M,0,1,62,4,1,246,2,1109,0,1.418687E-08,6.691311,0,-1
20,M,0,1,62,5,2,248,4,3031,0,1.184901E-07,12.61877,0,-1
20,M,0,1,62,6,2,247,3,1198,0,0.3593796,12.40061,1.640918,-1
20,M,0,1,62,7,2,245,1,1120,0,0.2958038,12.45436,1.340859,-1
20,M,0,1,62,8,1,248,4,1831,0,0.5432553,6.746353,4.369778,-1
20,M,0,1,1,1,7,1,1,4730,0,2.204461,6.392923,19.27006,-1
20,M,0,1,1,2,7,4,4,2776,0,3.478422,6.739573,30.45666,-1
20,M,0,1,1,3,5,1,1,3731,0,1.541043,6.339596,13.28701,-1
20,M,0,1,1,4,8,3,3,6687,0,3.197546,12.35721,14.93411,-1
20,M,0,1,1,5,5,2,2,1942,0,1.747593,6.676849,14.34037,-1
20,M,0,1,1,6,8,4,4,2065,0,8.384776,12.67995,41.39622,-1
20,M,0,1,1,7,7,3,3,6208,0,3.422338,6.560667,30.29167,-1
20,M,0,1,1,8,7,2,2,9231,0,4.620751,6.701997,43.58729,-1
20,M,0,1,1,9,8,1,1,1809,0,1.949407,12.48567,8.952539,-1
20,M,0,1,1,10,6,3,3,5409,0,7.148523,12.41177,34.90983,-1
20,M,0,1,1,11,6,1,1,5675,0,5.969696,12.49134,28.54878,-1
20,M,0,1,1,12,6,4,4,2831,0,8.578153,12.64994,42.39142,-1
20,M,0,1,1,13,6,2,2,2342,0,7.211773,12.49814,35.24174,-1
20,M,0,1,1,14,5,3,3,3420,0,0.477257,6.519063,4.054006,-1
20,M,0,1,1,15,5,4,4,2809,0,4.780928,6.756985,45.0362,-1
20,M,0,1,1,16,8,2,2,5220,0,0.6191189,12.52498,2.767181,-1
20,M,0,1,2,1,7,3,3,1198,0,6.236681,6.613055,70.38503,-1
20,M,0,1,2,2,6,2,2,897,0,7.728042,12.49269,38.21436,-1
20,M,0,1,2,3,8,4,4,920,0,8.519105,12.68316,42.19737,-1
20,M,0,1,2,4,8,2,2,1253,0,7.941072,12.55185,39.24676,-1
20,M,0,1,2,5,7,1,1,2087,0,2.113774,6.373449,18.48637,-1
20,M,0,1,2,6,5,4,4,1587,0,1.694187,6.742692,13.9814,-1
20,M,0,1,2,7,6,3,3,1520,0,8.361413,12.41255,42.14977,-1
20,M,0,1,2,8,5,2,2,2053,0,5.264283,6.693137,51.86143,-1
20,M,0,1,2,9,6,4,4,809,0,6.992076,12.64074,33.58255,-1
20,M,0,1,2,10,5,1,1,1387,0,4.209632,6.356588,41.47149,-1
20,M,0,1,2,11,8,3,3,3242,0,1.370054,12.3432,6.215143,-1
20,M,0,1,2,12,7,2,2,1709,0,3.58271,6.704609,32.30088,-1
20,M,0,1,2,13,6,1,1,1576,0,3.651221,12.46139,16.99318,-1
20,M,0,1,2,14,7,4,4,1798,0,3.277749,6.735604,28.54549,-1
20,M,0,1,2,15,8,1,1,920,0,2.902509,12.50294,13.39076,-1
20,M,0,1,2,16,5,3,3,987,0,5.532876,6.575724,57.21638,-1
