Age, Gender, Awareness Type, Session, Block, Trial, Set, Pattern, Quadrant, Response Time, Num Mistakes, Distance From Target, Camera Distance From Target, Angle Error (Degrees), FC Response
19,F,0,1,1,1,2,1,1,9999,3,-1,-1,-1,-1
19,F,0,1,1,2,1,3,3,6020,1,0.2183499,6.271283,1.911005,-1
19,F,0,1,1,3,2,4,4,3320,1,0.7309923,12.37237,3.283185,-1
19,F,0,1,1,4,1,2,2,9999,4,-1,-1,-1,-1
19,F,0,1,1,5,2,3,3,3187,0,0.6817102,12.23018,3.130378,-1
19,F,0,1,1,6,1,4,4,5098,0,0.07479038,6.392428,0.6407191,-1
19,F,0,1,1,7,2,2,2,3998,0,0.322277,12.41037,1.467271,-1
19,F,0,1,1,8,1,1,1,2898,0,0.04278729,6.258523,0.3748225,-1
19,F,0,1,2,1,1,8,4,3898,1,0.1864966,6.389761,1.596059,-1
19,F,0,1,2,2,1,7,3,4853,0,0.5368759,6.294799,4.679563,-1
19,F,0,1,2,3,2,8,4,2464,1,0.4545083,12.378,2.039896,-1
19,F,0,1,2,4,2,7,3,2809,0,0.1364574,12.23575,0.6262009,-1
19,F,0,1,2,5,2,5,1,6364,0,0.2694143,12.3168,1.234163,-1
19,F,0,1,2,6,1,6,2,2242,0,0.489906,6.581717,4.006777,-1
19,F,0,1,2,7,1,5,1,2831,0,3.27603E-08,6.248582,0,-1
19,F,0,1,2,8,2,6,2,3287,0,0.9495574,12.40044,4.341133,-1
19,F,0,1,3,1,1,9,1,3942,0,3.83104E-08,6.246926,0,-1
19,F,0,1,3,2,1,10,2,1953,0,0.4919859,6.583162,4.003599,-1
19,F,0,1,3,3,2,11,3,2809,0,0.5380375,12.23924,2.464104,-1
19,F,0,1,3,4,2,10,2,1431,0,0.4638566,12.4247,2.084126,-1
19,F,0,1,3,5,2,9,1,9687,1,0.5932953,12.3501,2.727783,-1
19,F,0,1,3,6,2,12,4,1442,0,0.7721507,12.40044,3.460627,-1
19,F,0,1,3,7,1,11,3,4598,0,0.4072593,6.30789,3.540718,-1
19,F,0,1,3,8,1,12,4,3920,1,0.1587318,6.400625,1.357394,-1
19,F,0,1,4,1,1,14,2,1931,0,0.4791943,6.602736,3.909961,-1
19,F,0,1,4,2,1,16,4,4653,1,0.2532803,6.401853,2.160573,-1
19,F,0,1,4,3,1,15,3,3376,0,0.5366021,6.303271,4.671938,-1
19,F,0,1,4,4,2,13,1,2209,0,5.357742E-08,12.3414,0,-1
19,F,0,1,4,5,2,16,4,1653,0,1.001305,12.39797,4.49039,-1
19,F,0,1,4,6,1,13,1,2753,0,0.3655892,6.269716,3.207844,-1
19,F,0,1,4,7,2,15,3,3775,0,0.6036563,12.25728,2.775093,-1
19,F,0,1,4,8,2,14,2,3342,1,0.5451075,12.43105,2.469024,-1
19,F,0,1,5,1,1,20,4,2142,0,0.4341852,6.38556,3.738741,-1
19,F,0,1,5,2,1,18,2,1687,0,0.4064729,6.540401,3.3356,-1
19,F,0,1,5,3,1,17,1,4131,0,0.1602914,6.206686,1.408616,-1
19,F,0,1,5,4,2,19,3,5153,0,0.1423412,12.21465,0.6546168,-1
19,F,0,1,5,5,2,17,1,4987,0,3.702858E-08,12.31117,0,-1
19,F,0,1,5,6,2,18,2,1598,0,0.5329781,12.37993,2.439757,-1
19,F,0,1,5,7,1,19,3,3565,0,0.5170782,6.319875,4.489648,-1
19,F,0,1,5,8,2,20,4,1087,0,0.3345474,12.37681,1.507011,-1
19,F,0,1,6,1,1,21,1,3176,1,2.025536E-07,6.230651,0,-1
19,F,0,1,6,2,1,24,4,4042,1,0.1703082,6.427537,1.440078,-1
19,F,0,1,6,3,2,23,3,2198,0,0.3257023,12.23505,1.494362,-1
19,F,0,1,6,4,1,22,2,2409,0,0.1672244,6.570803,1.377998,-1
19,F,0,1,6,5,2,24,4,1875,0,0.4875134,12.38411,2.192317,-1
19,F,0,1,6,6,1,23,3,1987,0,0.3863163,6.334367,3.345154,-1
19,F,0,1,6,7,2,21,1,2842,0,0.7791793,12.3147,3.570345,-1
19,F,0,1,6,8,2,22,2,1453,0,0.2461451,12.38289,1.120998,-1
19,F,0,1,7,1,2,27,3,2264,0,0.778106,12.23704,3.572209,-1
19,F,0,1,7,2,1,25,1,3876,0,0.4030837,6.234782,3.518585,-1
19,F,0,1,7,3,1,28,4,5209,0,0.1697606,6.42381,1.441165,-1
19,F,0,1,7,4,1,26,2,1331,0,0.1368152,6.569825,1.129172,-1
19,F,0,1,7,5,2,25,1,1731,0,5.247473E-08,12.3173,0,-1
19,F,0,1,7,6,2,28,4,1087,0,0.9209217,12.38751,4.132754,-1
19,F,0,1,7,7,1,27,3,5064,2,0.06312504,6.330172,0.5467969,-1
19,F,0,1,7,8,2,26,2,1287,0,0.1792273,12.38034,0.8093922,-1
19,F,0,1,8,1,2,29,1,1687,0,0.4767165,12.3247,2.190352,-1
19,F,0,1,8,2,2,30,2,1353,0,0.2854845,12.38442,1.282527,-1
19,F,0,1,8,3,2,32,4,909,0,0.7120943,12.38511,3.195063,-1
19,F,0,1,8,4,1,30,2,2731,1,0.1397879,6.581135,1.170359,-1
19,F,0,1,8,5,1,31,3,4142,0,0.2518539,6.331041,2.181937,-1
19,F,0,1,8,6,1,29,1,6131,0,0.1808788,6.224178,1.593359,-1
19,F,0,1,8,7,1,32,4,7398,2,0.3406296,6.431202,2.91168,-1
19,F,0,1,8,8,2,31,3,2864,0,0.551192,12.24586,2.526774,-1
19,F,0,1,9,1,2,36,4,1364,0,0.8544199,12.37726,3.836961,-1
19,F,0,1,9,2,2,34,2,1109,0,0.1711564,12.38111,0.7793398,-1
19,F,0,1,9,3,2,35,3,1854,0,0.8002731,12.2268,3.677806,-1
19,F,0,1,9,4,1,34,2,2098,0,0.5457238,6.567458,4.507891,-1
19,F,0,1,9,5,1,33,1,1976,0,0.06270886,6.224762,0.5503638,-1
19,F,0,1,9,6,1,35,3,3409,0,0.2963922,6.325949,2.570398,-1
19,F,0,1,9,7,1,36,4,3876,1,9.053034E-08,6.428873,0,-1
19,F,0,1,9,8,2,33,1,4386,0,0.580157,12.32319,2.663887,-1
19,F,0,1,10,1,1,40,4,3553,0,0.5389228,6.418818,4.61868,-1
19,F,0,1,10,2,1,38,2,3787,0,0.3494438,6.573761,2.855813,-1
19,F,0,1,10,3,2,37,1,6842,0,0.2319352,12.31861,1.061647,-1
19,F,0,1,10,4,2,40,4,1076,0,0.4085867,12.39422,1.835684,-1
19,F,0,1,10,5,2,39,3,1798,0,0.7049663,12.24038,3.229133,-1
19,F,0,1,10,6,1,37,1,3531,1,0.1520931,6.236604,1.349877,-1
19,F,0,1,10,7,2,38,2,1431,0,0.3156263,12.386,1.438719,-1
19,F,0,1,10,8,1,39,3,4431,0,0.3491239,6.347267,3.016685,-1
19,F,0,1,11,1,1,41,1,2131,0,0.3105865,6.240271,2.724192,-1
19,F,0,1,11,2,2,42,2,1898,0,0.1804917,12.3883,0.8127698,-1
19,F,0,1,11,3,2,43,3,1576,0,0.732964,12.24291,3.35468,-1
19,F,0,1,11,4,2,44,4,1642,1,0.5120998,12.40189,2.345018,-1
19,F,0,1,11,5,2,41,1,2142,0,4.736814E-08,12.32582,0,-1
19,F,0,1,11,6,1,43,3,3342,0,0.1861389,6.349264,1.608152,-1
19,F,0,1,11,7,1,42,2,4753,0,0.5140961,6.571873,4.213613,-1
19,F,0,1,11,8,1,44,4,3165,1,0.093297,6.441727,0.7885751,-1
19,F,0,1,12,1,1,46,2,1420,0,0.06708761,6.575839,0.555319,-1
19,F,0,1,12,2,1,45,1,2520,0,0.02146638,6.233291,0.1887116,-1
19,F,0,1,12,3,2,48,4,2176,0,0.8431751,12.39947,3.779734,-1
19,F,0,1,12,4,1,47,3,3109,0,0.4378022,6.349289,3.7831,-1
19,F,0,1,12,5,2,46,2,2242,0,0.9284469,12.38533,4.168284,-1
19,F,0,1,12,6,2,47,3,1620,0,1.603642E-07,12.24404,0,-1
19,F,0,1,12,7,1,48,4,2709,1,0.1122351,6.439548,0.9577706,-1
19,F,0,1,12,8,2,45,1,2175,0,0.8693671,12.32652,4.010344,-1
19,F,0,1,13,1,1,52,4,2642,0,0.2419847,6.434826,2.067249,-1
19,F,0,1,13,2,2,51,3,1109,0,0.9480381,12.2455,4.332823,-1
19,F,0,1,13,3,2,52,4,1598,1,0.5947428,12.39754,2.669392,-1
19,F,0,1,13,4,2,50,2,1287,0,0.7006982,12.3787,3.208515,-1
19,F,0,1,13,5,2,49,1,1898,0,0.0366872,12.32528,0.166689,-1
19,F,0,1,13,6,1,51,3,3475,1,0.1498985,6.349319,1.295129,-1
19,F,0,1,13,7,1,49,1,2531,0,0.4499556,6.237823,3.897119,-1
19,F,0,1,13,8,1,50,2,2809,0,0.5485915,6.571279,4.522511,-1
19,F,0,1,14,1,1,56,4,2542,0,0.317183,6.434901,2.709422,-1
19,F,0,1,14,2,2,55,3,2542,0,0.4907224,12.26616,2.242627,-1
19,F,0,1,14,3,2,54,2,2153,0,0.2867789,12.41817,1.286336,-1
19,F,0,1,14,4,1,55,3,3731,1,0.4369978,6.341457,3.780977,-1
19,F,0,1,14,5,2,53,1,1843,0,0.2661559,12.34752,1.216275,-1
19,F,0,1,14,6,2,56,4,1920,1,0.1988789,12.4151,0.8945997,-1
19,F,0,1,14,7,1,53,1,2720,0,0.03661637,6.258609,0.3195939,-1
19,F,0,1,14,8,1,54,2,3364,0,0.4840552,6.594109,3.936416,-1
19,F,0,1,15,1,2,59,3,1809,0,0.2623795,12.24842,1.201871,-1
19,F,0,1,15,2,2,58,2,1542,0,0.2946811,12.39529,1.327954,-1
19,F,0,1,15,3,1,60,4,4076,0,0.3908946,6.437348,3.338885,-1
19,F,0,1,15,4,1,57,1,2420,0,1.210914E-07,6.262425,0,-1
19,F,0,1,15,5,2,60,4,931,0,1.001983,12.41028,4.489168,-1
19,F,0,1,15,6,1,59,3,4076,1,0.2905772,6.351864,2.509675,-1
19,F,0,1,15,7,2,57,1,2953,0,0.2825634,12.34689,1.291498,-1
19,F,0,1,15,8,1,58,2,5587,0,0.5153679,6.590583,4.222388,-1
19,F,0,1,16,1,2,63,3,2487,1,0.2962727,12.25248,1.357106,-1
19,F,0,1,16,2,2,62,2,4654,2,0.05059249,12.41233,0.2272819,-1
19,F,0,1,16,3,2,64,4,1287,0,0.6693295,12.41805,2.99526,-1
19,F,0,1,16,4,1,61,1,2398,0,0.1667276,6.269352,1.451448,-1
19,F,0,1,16,5,1,62,2,2120,1,0.1685415,6.608366,1.382252,-1
19,F,0,1,16,6,2,61,1,2053,0,0.4262755,12.3525,1.950637,-1
19,F,0,1,16,7,1,64,4,2798,0,0.4757115,6.439585,4.062016,-1
19,F,0,1,16,8,1,63,3,3220,0,0.3795901,6.364186,3.272255,-1
19,F,0,1,17,1,3,68,4,2842,0,0.3779898,6.452123,3.233617,-1
19,F,0,1,17,2,4,67,3,1931,0,0.458633,12.26129,2.100496,-1
19,F,0,1,17,3,3,65,1,2587,0,0.39807,6.28735,3.447362,-1
19,F,0,1,17,4,4,68,4,2076,1,0.6996776,12.42852,3.131191,-1
19,F,0,1,17,5,3,66,2,1609,0,0.4108697,6.625387,3.334191,-1
19,F,0,1,17,6,4,65,1,2109,0,0.3362156,12.3496,1.537988,-1
19,F,0,1,17,7,3,67,3,1931,0,0.1207209,6.352539,1.043427,-1
19,F,0,1,17,8,4,66,2,2020,0,0.4477997,12.42813,2.018,-1
19,F,0,1,18,1,3,69,1,4542,0,0.000586463,6.265752,0,-1
19,F,0,1,18,2,3,70,2,2787,0,0.38853,6.639977,3.157775,-1
19,F,0,1,18,3,4,72,4,1776,0,0.8095419,12.44785,3.62023,-1
19,F,0,1,18,4,4,71,3,2276,1,6.547522E-08,12.26606,0,-1
19,F,0,1,18,5,4,69,1,4287,1,0.6607365,12.37928,3.034672,-1
19,F,0,1,18,6,4,70,2,2753,1,0.7226131,12.43696,3.28402,-1
19,F,0,1,18,7,3,71,3,2653,0,0.3000444,6.383377,2.588685,-1
19,F,0,1,18,8,3,72,4,3142,0,0.4607201,6.461366,3.921064,-1
19,F,0,1,19,1,3,75,3,1820,0,0.518212,6.401928,4.461903,-1
19,F,0,1,19,2,4,74,2,1931,0,0.2998943,12.448,1.346103,-1
19,F,0,1,19,3,4,73,1,3153,0,0.738621,12.37567,3.400876,-1
19,F,0,1,19,4,4,76,4,1242,0,0.378028,12.46477,1.692579,-1
19,F,0,1,19,5,3,74,2,1465,0,0.1786717,6.651686,1.4571,-1
19,F,0,1,19,6,4,75,3,2265,0,4.618353E-08,12.27455,0,-1
19,F,0,1,19,7,3,76,4,3942,1,0.2632557,6.490536,2.238434,-1
19,F,0,1,19,8,3,73,1,3698,0,0.3680698,6.307251,3.203752,-1
19,F,0,1,20,1,3,79,3,4420,1,0.1788353,6.398021,1.539387,-1
19,F,0,1,20,2,4,77,1,1587,0,0.8210905,12.39322,3.775795,-1
19,F,0,1,20,3,4,80,4,1076,0,0.6471508,12.46202,2.887172,-1
19,F,0,1,20,4,4,79,3,2020,0,0.5785301,12.29746,2.633513,-1
19,F,0,1,20,5,3,77,1,3387,0,0.01016077,6.303311,0.08846933,-1
19,F,0,1,20,6,4,78,2,6476,0,0.7635444,12.40475,3.495192,-1
19,F,0,1,20,7,3,80,4,2276,0,0.4560693,6.480108,3.861887,-1
19,F,0,1,20,8,3,78,2,4698,0,0.5683319,6.654792,4.638485,-1
19,F,0,1,20,1,2,77,1,7764,1,0.3784909,12.39277,1.728164,-1
19,F,0,1,20,2,1,79,3,6364,0,0.188572,6.395095,1.617253,-1
19,F,0,1,20,3,2,80,4,1653,1,0.4557005,12.46886,2.031918,-1
19,F,0,1,20,4,2,79,3,1998,0,6.039922E-08,12.31807,0,-1
19,F,0,1,20,5,1,78,2,2609,1,0.1929464,6.655411,1.570971,-1
19,F,0,1,20,6,1,77,1,2965,0,0.08049254,6.331702,0.6991359,-1
19,F,0,1,20,7,1,80,4,2509,1,0.1931781,6.509574,1.613861,-1
19,F,0,1,20,8,2,78,2,2875,2,0.04827764,12.48785,0.2167048,-1
19,F,0,1,21,1,2,83,3,2976,0,0.08426554,12.25884,0.3861367,-1
19,F,0,1,21,2,2,81,1,8664,0,0.01625475,12.34466,0.07401875,-1
19,F,0,1,21,3,2,84,4,1453,0,6.508107E-08,12.42026,0,-1
19,F,0,1,21,4,1,82,2,2587,0,0.06564585,6.624189,0.5399548,-1
19,F,0,1,21,5,1,83,3,3753,1,1.745623E-07,6.339441,0,-1
19,F,0,1,21,6,2,82,2,4220,1,0.0587716,12.42632,0.2639296,-1
19,F,0,1,21,7,1,84,4,3698,1,0.1410618,6.448138,1.188609,-1
19,F,0,1,21,8,1,81,1,3520,0,1.084839E-07,6.268112,0,-1
19,F,0,1,22,1,1,86,2,2387,0,0.01904268,6.624655,0.1570175,-1
19,F,0,1,22,2,2,87,3,1787,0,0.7495037,12.25896,3.43513,-1
19,F,0,1,22,3,1,88,4,3553,1,0.1205319,6.442453,1.021633,-1
19,F,0,1,22,4,1,87,3,3287,0,0.2153416,6.351807,1.858148,-1
19,F,0,1,22,5,2,85,1,4231,0,0.3108725,12.3512,1.422028,-1
19,F,0,1,22,6,2,88,4,1198,0,0.08958264,12.42472,0.4054182,-1
19,F,0,1,22,7,2,86,2,1309,0,0.6148226,12.42064,2.80533,-1
19,F,0,1,22,8,1,85,1,3287,1,0.03245579,6.282424,0.2825486,-1
19,F,0,1,23,1,2,90,2,1509,0,0.2736283,12.43677,1.229238,-1
19,F,0,1,23,2,1,91,3,3164,0,0.4698627,6.323009,4.076934,-1
19,F,0,1,23,3,2,92,4,1009,0,0.08746973,12.42532,0.393167,-1
19,F,0,1,23,4,2,89,1,1242,0,0.3851134,12.35602,1.749659,-1
19,F,0,1,23,5,2,91,3,1298,0,0.9644505,12.26405,4.424521,-1
19,F,0,1,23,6,1,90,2,2076,0,1.723923E-08,6.635507,0,-1
19,F,0,1,23,7,1,92,4,4476,1,0.2519301,6.429389,2.131205,-1
19,F,0,1,23,8,1,89,1,3365,0,9.605886E-08,6.273971,0,-1
19,F,0,1,24,1,1,95,3,3698,0,0.3536175,6.331563,3.061454,-1
19,F,0,1,24,2,1,93,1,1731,0,0.4761217,6.275568,4.130906,-1
19,F,0,1,24,3,1,96,4,4265,1,0.2077768,6.422573,1.777622,-1
19,F,0,1,24,4,2,93,1,4576,0,0.1344191,12.35847,0.6119779,-1
19,F,0,1,24,5,2,94,2,1520,0,0.6927107,12.4239,3.099394,-1
19,F,0,1,24,6,2,96,4,1120,0,0.8244508,12.43401,3.685837,-1
19,F,0,1,24,7,1,94,2,3309,0,2.937857E-07,6.66964,0,-1
19,F,0,1,24,8,2,95,3,6131,0,0.005958125,12.30511,0.02797646,-1
19,F,0,1,25,1,2,100,4,1076,0,0.4761313,12.46711,2.122002,-1
19,F,0,1,25,2,1,98,2,1653,0,0.000468238,6.664651,0,-1
19,F,0,1,25,3,2,97,1,1176,0,0.4283411,12.39063,1.940578,-1
19,F,0,1,25,4,1,99,3,3787,0,0.3316061,6.381467,2.848607,-1
19,F,0,1,25,5,1,97,1,2498,0,0.2726774,6.312956,2.355179,-1
19,F,0,1,25,6,2,98,2,1509,0,0.3175226,12.47713,1.421477,-1
19,F,0,1,25,7,2,99,3,1753,0,0.7312475,12.31385,3.325195,-1
19,F,0,1,25,8,1,100,4,3331,1,9.817073E-08,6.461756,0,-1
19,F,0,1,26,1,2,101,1,1909,0,0.4818861,12.39788,2.181937,-1
19,F,0,1,26,2,1,103,3,2476,0,0.5257666,6.384581,4.51744,-1
19,F,0,1,26,3,2,102,2,1331,0,0.2135685,12.47877,0.963068,-1
19,F,0,1,26,4,1,101,1,1942,0,0.2147696,6.309165,1.85741,-1
19,F,0,1,26,5,2,103,3,1876,0,0.4657402,12.29451,2.127253,-1
19,F,0,1,26,6,1,104,4,2276,0,0.2880062,6.458969,2.422932,-1
19,F,0,1,26,7,1,102,2,1831,0,2.630645E-08,6.670034,0,-1
19,F,0,1,26,8,2,104,4,1109,0,0.3970702,12.46063,1.772661,-1
19,F,0,1,27,1,1,107,3,2709,1,0.2939942,6.359133,2.533814,-1
19,F,0,1,27,2,1,108,4,2653,0,0.08453125,6.456098,0.7154584,-1
19,F,0,1,27,3,1,106,2,1409,0,0.1360759,6.671089,1.110651,-1
19,F,0,1,27,4,2,105,1,3753,0,0.5179929,12.39953,2.345185,-1
19,F,0,1,27,5,2,107,3,2231,0,0.7799147,12.29948,3.563648,-1
19,F,0,1,27,6,2,108,4,1076,0,0.2139459,12.46119,0.9589957,-1
19,F,0,1,27,7,2,106,2,1020,0,0.8407469,12.47191,3.744811,-1
19,F,0,1,27,8,1,105,1,2598,0,0.3668343,6.300132,3.172311,-1
19,F,0,1,28,1,2,110,2,1209,0,0.6920555,12.47131,3.114642,-1
19,F,0,1,28,2,2,111,3,2053,0,0.6445276,12.29284,2.945303,-1
19,F,0,1,28,3,1,109,1,2109,0,0.09801371,6.301596,0.8508785,-1
19,F,0,1,28,4,2,112,4,787,0,0.01574172,12.46368,0.07132626,-1
19,F,0,1,28,5,1,110,2,1420,0,0.4409863,6.663363,3.582717,-1
19,F,0,1,28,6,2,109,1,2331,0,0.1723955,12.39045,0.7838463,-1
19,F,0,1,28,7,1,112,4,3631,0,0.4539317,6.451175,3.858793,-1
19,F,0,1,28,8,1,111,3,3253,1,0.3990459,6.356835,3.443669,-1
19,F,0,1,29,1,1,116,4,2998,0,0.141067,6.456355,1.197793,-1
19,F,0,1,29,2,1,115,3,2398,0,0.2847019,6.371166,2.451522,-1
19,F,0,1,29,3,2,113,1,920,0,0.9143842,12.4039,4.143922,-1
19,F,0,1,29,4,2,114,2,1653,0,0.8060952,12.47905,3.591941,-1
19,F,0,1,29,5,2,115,3,1687,0,0.3257672,12.29602,1.4878,-1
19,F,0,1,29,6,1,113,1,2464,0,0.09071442,6.315798,0.7853427,-1
19,F,0,1,29,7,2,116,4,1720,1,0.5760201,12.46067,2.568874,-1
19,F,0,1,29,8,1,114,2,1465,0,0.5213364,6.661891,4.248146,-1
19,F,0,1,30,1,2,120,4,987,0,0.8517966,12.45699,3.806166,-1
19,F,0,1,30,2,2,119,3,1409,0,0.4393482,12.2975,2.003302,-1
19,F,0,1,30,3,1,118,2,1587,0,0.3432905,6.665684,2.794283,-1
19,F,0,1,30,4,1,119,3,3387,0,0.4133513,6.349633,3.571058,-1
19,F,0,1,30,5,1,120,4,3487,2,0.3959319,6.453288,3.372723,-1
19,F,0,1,30,6,2,117,1,1886,0,0.7072574,12.3741,3.256482,-1
19,F,0,1,30,7,2,118,2,1309,0,0.2451073,12.45954,1.096108,-1
19,F,0,1,30,8,1,117,1,2298,0,0.3186095,6.28943,2.747161,-1
19,F,0,1,31,1,2,124,4,1098,0,0.7033682,12.43828,3.146161,-1
19,F,0,1,31,2,2,122,2,1120,0,0.6712425,12.45838,3.005764,-1
19,F,0,1,31,3,1,124,4,4087,1,0.2072607,6.433938,1.77001,-1
19,F,0,1,31,4,1,123,3,2953,2,0.1077032,6.329633,0.932722,-1
19,F,0,1,31,5,2,121,1,1509,0,3.514298E-08,12.38396,0,-1
19,F,0,1,31,6,2,123,3,1842,0,0.7727221,12.28136,3.522534,-1
19,F,0,1,31,7,1,121,1,1398,0,0.3297648,6.301381,2.852109,-1
19,F,0,1,31,8,1,122,2,2431,1,0.175237,6.641395,1.429029,-1
19,F,0,1,32,1,1,127,3,3019,0,0.3713668,6.351781,3.204913,-1
19,F,0,1,32,2,1,128,4,2887,0,0.04685796,6.431778,0.3986039,-1
19,F,0,1,32,3,2,126,2,1453,0,0.4589959,12.45951,2.08741,-1
19,F,0,1,32,4,2,127,3,1687,0,0.3906753,12.27906,1.784435,-1
19,F,0,1,32,5,1,126,2,1642,0,0.1586102,6.642469,1.294978,-1
19,F,0,1,32,6,1,125,1,2420,1,0.4224155,6.280985,3.663991,-1
19,F,0,1,32,7,2,128,4,953,0,0.8857919,12.42868,3.962002,-1
19,F,0,1,32,8,2,125,1,1698,0,0.6954737,12.37279,3.197207,-1
19,F,0,1,33,1,1,132,4,2920,2,0.2883318,6.437988,2.428338,-1
19,F,0,1,33,2,1,130,2,7164,0,0.2504129,6.630101,2.037785,-1
19,F,0,1,33,3,1,131,3,4276,0,0.5129355,6.384994,4.408867,-1
19,F,0,1,33,4,2,130,2,3042,1,0.5474896,12.49023,2.469103,-1
19,F,0,1,33,5,2,131,3,2498,0,0.09323644,12.31687,0.4252063,-1
19,F,0,1,33,6,2,129,1,1254,0,0.0279606,12.41441,0.1251145,-1
19,F,0,1,33,7,2,132,4,1009,0,0.1194469,12.47509,0.5352231,-1
19,F,0,1,33,8,1,129,1,3342,0,1.585208E-07,6.314958,0,-1
19,F,0,1,34,1,2,134,2,2531,0,0.7848634,12.49172,3.53319,-1
19,F,0,1,34,2,2,135,3,2098,0,0.71651,12.31318,3.310798,-1
19,F,0,1,34,3,1,136,4,2342,0,0.3449959,6.469955,2.930711,-1
19,F,0,1,34,4,2,133,1,1853,1,0.5177541,12.40318,2.343431,-1
19,F,0,1,34,5,1,135,3,2620,0,0.4400207,6.380941,3.781702,-1
19,F,0,1,34,6,2,136,4,1009,0,0.2803923,12.48383,1.253826,-1
19,F,0,1,34,7,1,133,1,1176,0,1.020686E-08,6.312799,0,-1
19,F,0,1,34,8,1,134,2,2965,0,0.4184062,6.67363,3.363946,-1
19,F,0,1,35,1,1,139,3,2453,0,0.2187655,6.377921,1.879615,-1
19,F,0,1,35,2,2,137,1,1742,0,0.6059433,12.40594,2.742811,-1
19,F,0,1,35,3,1,138,2,2831,0,0.1785628,6.672796,1.451448,-1
19,F,0,1,35,4,1,140,4,2020,0,1.130471E-07,6.468787,0,-1
19,F,0,1,35,5,1,137,1,5287,0,0.4423792,6.314693,3.817878,-1
19,F,0,1,35,6,2,138,2,2287,0,0.1860929,12.48435,0.8313365,-1
19,F,0,1,35,7,2,140,4,1242,0,0.5221559,12.475,2.325826,-1
19,F,0,1,35,8,2,139,3,1387,0,1.819163E-08,12.30898,0,-1
19,F,0,1,37,1,3,146,2,1853,0,0.1637918,6.693192,1.358691,-1
19,F,0,1,37,2,4,145,1,1887,0,0.1613823,12.40679,0.7303458,-1
19,F,0,1,37,3,4,147,3,1498,0,0.1517087,12.29972,0.6918207,-1
19,F,0,1,37,4,3,148,4,2176,0,0.2901703,6.478951,2.427774,-1
19,F,0,1,37,5,4,146,2,1420,0,0.4473626,12.47711,1.998314,-1
19,F,0,1,37,6,4,148,4,887,0,0.2334861,12.47136,1.045114,-1
19,F,0,1,37,7,3,147,3,3342,0,0.227303,6.381191,1.947524,-1
19,F,0,1,37,8,3,145,1,1442,0,0.04901972,6.322597,0.4256662,-1
19,F,0,1,38,1,3,152,4,3009,1,0.4743344,6.442519,4.035899,-1
19,F,0,1,38,2,4,149,1,1465,0,0.6577023,12.39974,2.983341,-1
19,F,0,1,38,3,4,151,3,2253,1,0.7115427,12.28869,3.251488,-1
19,F,0,1,38,4,3,149,1,2787,0,0.2162819,6.280589,1.879094,-1
19,F,0,1,38,5,4,150,2,6720,0,0.972005,12.41093,4.370988,-1
19,F,0,1,38,6,4,152,4,2309,0,0.8313472,12.42763,3.711987,-1
19,F,0,1,38,7,3,150,2,2553,0,0.4149233,6.659272,3.377538,-1
19,F,0,1,38,8,3,151,3,2409,0,0.2815701,6.354068,2.425031,-1
19,F,0,1,39,1,3,156,4,3187,1,0.2858197,6.452752,2.444245,-1
19,F,0,1,39,2,4,155,3,1198,0,0.4375109,12.25646,2.026806,-1
19,F,0,1,39,3,3,154,2,2076,0,0.2916657,6.631026,2.376935,-1
19,F,0,1,39,4,3,155,3,3564,0,0.1745321,6.370124,1.50792,-1
19,F,0,1,39,5,3,153,1,1764,0,1.895473E-07,6.27749,0,-1
19,F,0,1,39,6,4,154,2,9999,0,-1,-1,-1,-1
19,F,0,1,39,7,4,156,4,2031,0,0.1281137,12.47257,0.5747126,-1
19,F,0,1,39,8,4,153,1,1553,0,0.5466563,12.368,2.479071,-1
19,F,0,1,40,1,4,158,2,1176,0,0.1673452,12.46076,0.7501709,-1
19,F,0,1,40,2,4,159,3,1297,0,0.4747695,12.27452,2.167808,-1
19,F,0,1,40,3,4,157,1,1231,0,0.4882858,12.36051,2.233006,-1
19,F,0,1,40,4,3,159,3,1920,0,0.3140691,6.375926,2.712455,-1
19,F,0,1,40,5,3,160,4,3920,0,0.3008416,6.471956,2.523751,-1
19,F,0,1,40,6,3,158,2,1609,0,4.771371E-08,6.641521,0,-1
19,F,0,1,40,7,3,157,1,2031,0,0.2119214,6.288665,1.83419,-1
19,F,0,1,40,8,4,160,4,1642,0,0.4241726,12.45966,1.898367,-1
19,F,0,1,41,1,2,163,3,2597,1,0.05366323,12.29367,0.2454926,-1
19,F,0,1,41,2,2,164,4,998,0,0.2894633,12.46434,1.295431,-1
19,F,0,1,41,3,1,162,2,2331,1,0.5521395,6.644538,4.510324,-1
19,F,0,1,41,4,2,161,1,1376,0,0.4424314,12.37859,2.022456,-1
19,F,0,1,41,5,2,162,2,1098,0,0.1742251,12.45737,0.7855918,-1
19,F,0,1,41,6,1,164,4,1831,0,0.334527,6.469397,2.843242,-1
19,F,0,1,41,7,1,163,3,2116,0,0.1756538,6.375383,1.511161,-1
19,F,0,1,41,8,1,161,1,3197,0,5.243472E-08,6.292121,0,-1
19,F,0,1,42,1,1,168,4,2377,0,2.338733E-07,6.482631,0,-1
19,F,0,1,42,2,1,167,3,1454,0,0.3341217,6.390046,2.868944,-1
19,F,0,1,42,3,1,166,2,2187,0,0.1517582,6.651518,1.23733,-1
19,F,0,1,42,4,2,165,1,1831,0,0.1686415,12.38871,0.7666831,-1
19,F,0,1,42,5,2,166,2,1131,0,0.6914359,12.46578,3.083499,-1
19,F,0,1,42,6,2,168,4,776,0,0.4554534,12.4623,2.035382,-1
19,F,0,1,42,7,1,165,1,1765,0,0.2720251,6.298055,2.355262,-1
19,F,0,1,42,8,2,167,3,1765,0,0.2449023,12.30144,1.117501,-1
19,F,0,1,43,1,2,172,4,842,0,0.1796111,12.46693,0.8047857,-1
19,F,0,1,43,2,1,171,3,1598,0,8.230196E-08,6.374392,0,-1
19,F,0,1,43,3,1,170,2,1920,1,0.5284306,6.654749,4.310071,-1
19,F,0,1,43,4,2,171,3,1620,0,0.05573858,12.29108,0.254109,-1
19,F,0,1,43,5,1,169,1,4542,0,0.01712743,6.297725,0.1480375,-1
19,F,0,1,43,6,2,170,2,1453,1,0.7144379,12.45682,3.188439,-1
19,F,0,1,43,7,2,169,1,1220,0,0.2575313,12.37943,1.173365,-1
19,F,0,1,43,8,1,172,4,2820,2,0.01027027,6.478248,0.08622923,-1
19,F,0,1,44,1,1,175,3,2920,0,0.1774289,6.3835,1.525724,-1
19,F,0,1,44,2,1,173,1,987,0,0.03984814,6.292767,0.3460502,-1
19,F,0,1,44,3,1,176,4,1909,0,0.4976968,6.475634,4.227441,-1
19,F,0,1,44,4,1,174,2,2776,2,0.3446882,6.656027,2.78474,-1
19,F,0,1,44,5,2,175,3,1420,0,0.03362039,12.29304,0.1545051,-1
19,F,0,1,44,6,2,176,4,831,0,1.373515E-07,12.46565,0,-1
19,F,0,1,44,7,2,173,1,3742,0,0.2080338,12.39242,0.9427382,-1
19,F,0,1,44,8,2,174,2,1242,0,0.1563878,12.45984,0.7005339,-1
19,F,0,1,45,1,2,177,1,1275,0,0.3401108,12.39195,1.54497,-1
19,F,0,1,45,2,2,179,3,1465,0,0.9993833,12.30421,4.562697,-1
19,F,0,1,45,3,1,178,2,9999,0,-1,-1,-1,-1
19,F,0,1,45,4,1,180,4,3331,0,0.2576379,6.460786,2.191692,-1
19,F,0,1,45,5,2,178,2,1976,1,0.1232774,12.45024,0.5539077,-1
19,F,0,1,45,6,1,177,1,1631,0,0.3244093,6.286576,2.81216,-1
19,F,0,1,45,7,2,180,4,1320,0,0.5816836,12.45389,2.595481,-1
19,F,0,1,45,8,1,179,3,3231,0,0.2912911,6.363682,2.510766,-1
19,F,0,1,46,1,1,182,2,3953,0,0.05121752,6.644519,0.4201138,-1
19,F,0,1,46,2,1,181,1,1220,0,0.08309786,6.289821,0.7279305,-1
19,F,0,1,46,3,2,183,3,1220,0,0.6786654,12.29477,3.093957,-1
19,F,0,1,46,4,2,182,2,1565,0,0.8375535,12.4397,3.817468,-1
19,F,0,1,46,5,2,181,1,1131,0,0.004028512,12.37451,0,-1
19,F,0,1,46,6,1,184,4,3442,1,0.1860455,6.479915,1.575698,-1
19,F,0,1,46,7,1,183,3,2042,0,3.18037E-08,6.379958,0,-1
19,F,0,1,46,8,2,184,4,909,0,0.5708694,12.45886,2.548603,-1
19,F,0,1,47,1,1,187,3,3653,0,0.04441646,6.373936,0.382573,-1
19,F,0,1,47,2,1,188,4,2320,1,0.4141798,6.477811,3.516359,-1
19,F,0,1,47,3,2,185,1,1365,0,0.2072873,12.37895,0.9408684,-1
19,F,0,1,47,4,1,186,2,2365,0,0.4112415,6.626706,3.366565,-1
19,F,0,1,47,5,2,187,3,1865,0,0.3166332,12.28467,1.444962,-1
19,F,0,1,47,6,2,188,4,1175,0,0.7032995,12.45165,3.139309,-1
19,F,0,1,47,7,1,185,1,2420,1,0.4326519,6.279871,3.753168,-1
19,F,0,1,47,8,2,186,2,1542,0,0.2841321,12.45166,1.278554,-1
19,F,0,1,48,1,2,189,1,2409,0,0.06896404,12.3752,0.3134116,-1
19,F,0,1,48,2,1,192,4,2576,0,0.09000611,6.475387,0.7615615,-1
19,F,0,1,48,3,2,190,2,2709,2,0.3891272,12.4484,1.756803,-1
19,F,0,1,48,4,1,189,1,3176,0,0.06496032,6.294333,0.5678623,-1
19,F,0,1,48,5,1,191,3,3453,0,0.2253996,6.398777,1.931176,-1
19,F,0,1,48,6,1,190,2,3365,0,0.1975524,6.663148,1.607665,-1
19,F,0,1,48,7,2,191,3,1553,0,0.3680318,12.31235,1.676314,-1
19,F,0,1,48,8,2,192,4,720,0,0.6490352,12.4796,2.89056,-1
19,F,0,1,49,1,1,194,2,1653,0,0.4871998,6.651658,3.97498,-1
19,F,0,1,49,2,2,196,4,731,0,0.6192938,12.47612,2.760169,-1
19,F,0,1,49,3,2,195,3,1176,0,0.3898863,12.311,1.775088,-1
19,F,0,1,49,4,2,193,1,664,0,0.8823674,12.39452,4.001495,-1
19,F,0,1,49,5,1,196,4,1942,0,0.3906582,6.490661,3.310029,-1
19,F,0,1,49,6,2,194,2,1953,0,0.8253525,12.45728,3.683977,-1
19,F,0,1,49,7,1,193,1,2131,1,0.1427922,6.291648,1.240016,-1
19,F,0,1,49,8,1,195,3,2631,1,0.3467969,6.390575,2.97572,-1
19,F,0,1,50,1,1,197,1,2564,0,0.1587711,6.29716,1.377004,-1
19,F,0,1,50,2,1,199,3,2942,0,0.5173752,6.385474,4.446776,-1
19,F,0,1,50,3,1,198,2,3164,2,0.3576696,6.667958,2.910335,-1
19,F,0,1,50,4,2,200,4,876,0,0.3549784,12.47474,1.595568,-1
19,F,0,1,50,5,2,199,3,1165,0,0.8039117,12.31254,3.670505,-1
19,F,0,1,50,6,2,197,1,2042,0,0.8069,12.40049,3.658751,-1
19,F,0,1,50,7,1,200,4,3342,1,0.298343,6.49437,2.525457,-1
19,F,0,1,50,8,2,198,2,1831,0,5.694756E-08,12.47152,0,-1
19,F,0,1,51,1,2,203,3,1287,0,0.03114038,12.3093,0.1426525,-1
19,F,0,1,51,2,2,204,4,853,0,0.1466241,12.48104,0.6602717,-1
19,F,0,1,51,3,1,203,3,2487,0,0.5022196,6.399561,4.305388,-1
19,F,0,1,51,4,2,202,2,1097,0,0.1989066,12.47703,0.8910931,-1
19,F,0,1,51,5,1,204,4,1876,0,0.007364221,6.490218,0.0656106,-1
19,F,0,1,51,6,2,201,1,1709,1,0.2988395,12.40523,1.359123,-1
19,F,0,1,51,7,1,202,2,1231,0,0.1467093,6.688552,1.194357,-1
19,F,0,1,51,8,1,201,1,1931,0,8.331566E-08,6.300198,0,-1
19,F,0,1,52,1,1,207,3,2887,1,0.4213376,6.390824,3.617579,-1
19,F,0,1,52,2,1,208,4,2765,0,0.1791865,6.500167,1.515299,-1
19,F,0,1,52,3,2,205,1,1387,0,0.3143474,12.40932,1.431765,-1
19,F,0,1,52,4,1,206,2,4120,0,2.513399E-07,6.685169,0,-1
19,F,0,1,52,5,2,208,4,1353,0,0.2314409,12.45911,1.035899,-1
19,F,0,1,52,6,2,207,3,1576,0,0.8369117,12.32636,3.8129,-1
19,F,0,1,52,7,1,205,1,2487,0,0.5247205,6.325463,4.534578,-1
19,F,0,1,52,8,2,206,2,1154,0,0.9898187,12.47835,4.426867,-1
19,F,0,1,53,1,2,212,4,1387,0,0.06806904,12.41097,0.3077414,-1
19,F,0,1,53,2,2,211,3,1020,0,1.003591,12.25887,4.591243,-1
19,F,0,1,53,3,1,209,1,2276,1,0.1446607,6.254582,1.265632,-1
19,F,0,1,53,4,2,210,2,1064,0,0.2992615,12.41134,1.357539,-1
19,F,0,1,53,5,1,211,3,2498,0,0.2578137,6.351774,2.231164,-1
19,F,0,1,53,6,1,212,4,2965,0,0.2643074,6.440945,2.246725,-1
19,F,0,1,53,7,1,210,2,1853,0,0.2883747,6.605048,2.367446,-1
19,F,0,1,53,8,2,209,1,1431,0,0.6647673,12.34804,3.022779,-1
19,F,0,1,54,1,2,216,4,864,0,0.06892212,12.42167,0.3102743,-1
19,F,0,1,54,2,2,213,1,1631,0,0.9886373,12.35384,4.500759,-1
19,F,0,1,54,3,1,216,4,2064,0,0.1681149,6.449184,1.422165,-1
19,F,0,1,54,4,2,215,3,4109,0,0.6463981,12.27411,2.954063,-1
19,F,0,1,54,5,1,213,1,2409,1,0.09897145,6.263713,0.8634343,-1
19,F,0,1,54,6,1,214,2,2076,0,2.250955E-08,6.60766,0,-1
19,F,0,1,54,7,1,215,3,2909,1,0.2689928,6.356263,2.320856,-1
19,F,0,1,54,8,2,214,2,1265,0,0.06372952,12.41179,0.2880355,-1
19,F,0,1,55,1,1,220,4,2587,0,0.3281614,6.451765,2.765059,-1
19,F,0,1,55,2,1,219,3,4109,1,0.1913093,6.355092,1.650312,-1
19,F,0,1,55,3,2,217,1,1520,0,5.929524E-08,12.34803,0,-1
19,F,0,1,55,4,2,220,4,953,0,0.3051112,12.41341,1.370879,-1
19,F,0,1,55,5,2,219,3,1542,0,0.4351959,12.2605,1.989283,-1
19,F,0,1,55,6,1,218,2,2165,0,0.1044048,6.60617,0.8613922,-1
19,F,0,1,55,7,1,217,1,2098,1,0.07026179,6.25815,0.6135744,-1
19,F,0,1,55,8,2,218,2,1231,0,0.7943588,12.41019,3.613138,-1
19,F,0,1,56,1,1,223,3,2809,1,0.2492293,6.354472,2.156221,-1
19,F,0,1,56,2,2,222,2,1065,0,0.2786779,12.41396,1.266559,-1
19,F,0,1,56,3,1,221,1,2042,0,0.0228016,6.248453,0.199792,-1
19,F,0,1,56,4,2,223,3,1453,0,0.6277252,12.26566,2.883373,-1
19,F,0,1,56,5,2,221,1,1553,0,0.7611238,12.34793,3.472995,-1
19,F,0,1,56,6,2,224,4,864,0,0.6897531,12.42197,3.085911,-1
19,F,0,1,56,7,1,222,2,1320,0,0.2401156,6.6174,2.016933,-1
19,F,0,1,56,8,1,224,4,2420,0,1.537681E-07,6.447526,0,-1
19,F,0,1,57,1,3,227,3,2742,0,0.2290931,6.358191,1.976452,-1
19,F,0,1,57,2,4,225,1,1098,0,0.2364384,12.34999,1.079197,-1
19,F,0,1,57,3,4,228,4,5498,0,0.2819669,12.4379,1.26625,-1
19,F,0,1,57,4,4,226,2,942,0,4.236634E-08,12.42819,0.01978234,-1
19,F,0,1,57,5,3,228,4,2631,0,0.3309686,6.449347,2.790638,-1
19,F,0,1,57,6,3,225,1,1520,0,0.4258713,6.25714,3.698565,-1
19,F,0,1,57,7,3,226,2,2042,0,0.3889802,6.61679,3.197758,-1
19,F,0,1,57,8,4,227,3,2398,1,1.01694,12.2459,4.728037,-1
19,F,0,1,58,1,3,230,2,1553,0,0.1581783,6.613897,1.302361,-1
19,F,0,1,58,2,3,231,3,3887,2,1.365563E-07,6.371969,0,-1
19,F,0,1,58,3,3,232,4,2887,0,0.2107774,6.446239,1.795478,-1
19,F,0,1,58,4,4,230,2,1287,0,0.4783884,12.41654,2.173398,-1
19,F,0,1,58,5,3,229,1,1354,0,0.06596928,6.252842,0.5767518,-1
19,F,0,1,58,6,4,232,4,1098,0,2.213805E-07,12.43127,0,-1
19,F,0,1,58,7,4,229,1,1165,0,0.3103691,12.34775,1.418307,-1
19,F,0,1,58,8,4,231,3,4698,0,0.6350368,12.25602,2.941911,-1
19,F,0,1,59,1,4,234,2,1109,0,0.7793636,12.42784,3.54525,-1
19,F,0,1,59,2,4,236,4,1231,0,0.07405439,12.43087,0.3345502,-1
19,F,0,1,59,3,3,233,1,6231,0,0.02340871,6.271678,0.2055842,-1
19,F,0,1,59,4,4,235,3,1931,0,0.7106296,12.23796,3.254136,-1
19,F,0,1,59,5,3,236,4,4076,1,0.1773141,6.440043,1.495933,-1
19,F,0,1,59,6,3,234,2,3342,0,0.01959867,6.626776,0.1619255,-1
19,F,0,1,59,7,3,235,3,2764,0,0.446491,6.353712,3.860467,-1
19,F,0,1,59,8,4,233,1,1109,0,0.7676532,12.36751,3.499167,-1
19,F,0,1,60,1,4,239,3,1698,0,0.8750528,12.26163,4.012638,-1
19,F,0,1,60,2,3,240,4,2176,0,0.4174136,6.438485,3.55914,-1
19,F,0,1,60,3,3,237,1,2309,1,0.05904927,6.260514,0.5185105,-1
19,F,0,1,60,4,4,238,2,1276,0,0.1197721,12.41644,0.5417637,-1
19,F,0,1,60,5,4,240,4,2253,0,0.3725759,12.42679,1.670701,-1
19,F,0,1,60,6,4,237,1,1598,1,0.2930547,12.34113,1.340421,-1
19,F,0,1,60,7,3,239,3,3609,1,0.1856414,6.353942,1.6023,-1
19,F,0,1,60,8,3,238,2,3698,0,0.05241552,6.614832,0.4329587,-1
19,F,0,1,61,1,1,244,4,2898,0,0.2080916,6.434727,1.776741,-1
19,F,0,1,61,2,2,242,2,1242,0,0.6095259,12.41591,2.775093,-1
19,F,0,1,61,3,1,241,1,1264,0,0.1881328,6.263113,1.638769,-1
19,F,0,1,61,4,2,244,4,987,0,0.8121102,12.41715,3.719102,-1
19,F,0,1,61,5,1,243,3,1676,0,0.5073552,6.342145,4.388339,-1
19,F,0,1,61,6,1,242,2,2331,0,0.02045737,6.619935,0.1690205,-1
19,F,0,1,61,7,2,241,1,1109,0,0.01412663,12.34255,0.06255726,-1
19,F,0,1,61,8,2,243,3,2865,0,0.443284,12.26226,2.029701,-1
19,F,0,1,62,1,1,246,2,2809,0,9.519174E-08,6.628203,0.01978234,-1
19,F,0,1,62,2,2,245,1,2420,0,0.1157674,12.37822,0.5252593,-1
19,F,0,1,62,3,2,246,2,942,0,0.2840832,12.45275,1.282527,-1
19,F,0,1,62,4,2,247,3,1254,0,0.2892714,12.28714,1.320862,-1
19,F,0,1,62,5,1,248,4,3509,0,0.5007684,6.446223,4.247177,-1
19,F,0,1,62,6,1,245,1,1453,0,0.1718039,6.288313,1.491741,-1
19,F,0,1,62,7,1,247,3,2976,0,0.4833687,6.356844,4.172135,-1
19,F,0,1,62,8,2,248,4,1387,0,0.4024693,12.44757,1.802548,-1
19,F,0,1,1,1,7,4,4,1963,0,3.707104,6.46229,33.30498,-1
19,F,0,1,1,2,7,3,3,3909,0,5.372328,6.399486,57.02012,-1
19,F,0,1,1,3,7,1,1,3398,0,3.614666,6.310627,34.94503,-1
19,F,0,1,1,4,6,2,2,1120,0,3.459548,12.43615,15.65092,-1
19,F,0,1,1,5,8,3,3,1331,0,5.520366,12.2771,26.56188,-1
19,F,0,1,1,6,8,4,4,2509,0,2.000615,12.44305,8.994162,-1
19,F,0,1,1,7,5,3,3,2909,0,5.783317,6.398388,64.59365,-1
19,F,0,1,1,8,5,1,1,3109,0,2.430368,6.286115,22.41156,-1
19,F,0,1,1,9,7,2,2,2420,0,6.153329,6.669497,67.31032,-1
19,F,0,1,1,10,6,1,1,931,0,3.841362,12.37518,18.02926,-1
19,F,0,1,1,11,6,3,3,809,0,3.324857,12.28865,15.62107,-1
19,F,0,1,1,12,5,2,2,1164,0,2.132089,6.614382,17.75964,-1
19,F,0,1,1,13,6,4,4,1020,0,6.566744,12.44138,31.57059,-1
19,F,0,1,1,14,8,1,1,1487,0,1.00014,12.36919,4.619401,-1
19,F,0,1,1,15,5,4,4,1765,0,4.166189,6.462468,38.20699,-1
19,F,0,1,1,16,8,2,2,809,0,1.551384,12.43904,7.004879,-1
19,F,0,1,2,1,5,2,2,942,0,2.795019,6.608484,23.59188,-1
19,F,0,1,2,2,8,4,4,876,0,2.997683,12.43625,13.83678,-1
19,F,0,1,2,3,8,1,1,931,0,3.001032,12.37788,13.97717,-1
19,F,0,1,2,4,7,3,3,2776,0,5.453581,6.408193,58.24667,-1
19,F,0,1,2,5,6,2,2,1065,0,3.750175,12.42585,17.48621,-1
19,F,0,1,2,6,6,1,1,1076,0,9.336068,12.37264,48.98811,-1
19,F,0,1,2,7,5,4,4,1576,0,4.460115,6.463414,41.46392,-1
19,F,0,1,2,8,7,2,2,1264,0,2.411316,6.629279,20.16573,-1
19,F,0,1,2,9,6,3,3,787,0,2.869024,12.29031,13.47076,-1
19,F,0,1,2,10,8,2,2,520,0,1.553183,12.43343,7.043,-1
19,F,0,1,2,11,5,1,1,687,0,2.480886,6.28129,23.26375,-1
19,F,0,1,2,12,7,4,4,598,0,5.521542,6.490214,58.29322,-1
19,F,0,1,2,13,8,3,3,531,0,6.117098,12.28063,29.87501,-1
19,F,0,1,2,14,7,1,1,1531,0,1.262628,6.259776,11.06208,-1
19,F,0,1,2,15,6,4,4,776,0,5.072204,12.44591,23.88481,-1
19,F,0,1,2,16,5,3,3,409,0,1.431704,6.359988,12.43728,-1
