Age, Gender, Awareness Type, Session, Block, Trial, Set, Pattern, Quadrant, Response Time, Num Mistakes, Distance From Target, Camera Distance From Target, Angle Error (Degrees), FC Response
20,F,0,1,1,1,1,1,1,1942,0,0.1672814,6.118258,1.509088,-1
20,F,0,1,1,2,1,2,2,1731,0,0.004019385,6.515766,0.03426402,-1
20,F,0,1,1,3,2,3,3,5420,0,0.7492878,12.04967,3.535959,-1
20,F,0,1,1,4,2,4,4,3109,0,0.4827843,12.22587,2.204869,-1
20,F,0,1,1,5,1,3,3,4198,0,0.04668633,6.074302,0.4191812,-1
20,F,0,1,1,6,2,1,1,4709,0,0.5792002,12.27428,2.669832,-1
20,F,0,1,1,7,1,4,4,8042,3,0.4918709,6.43844,4.153552,-1
20,F,0,1,1,8,2,2,2,6764,0,0.6870347,12.30963,3.154426,-1
20,F,0,1,2,1,1,7,3,9999,5,-1,-1,-1,-1
20,F,0,1,2,2,2,8,4,7775,0,0.8547059,12.24244,3.90495,-1
20,F,0,1,2,3,1,6,2,9999,7,-1,-1,-1,-1
20,F,0,1,2,4,1,8,4,5087,0,0.5066838,6.480811,4.186522,-1
20,F,0,1,2,5,1,5,1,1876,0,0.3495623,6.094471,3.187149,-1
20,F,0,1,2,6,2,7,3,3998,1,0.06515095,12.04381,0.3032579,-1
20,F,0,1,2,7,2,5,1,2842,0,0.8247278,12.23058,3.816904,-1
20,F,0,1,2,8,2,6,2,2209,1,0.06687367,12.31209,0.3039024,-1
20,F,0,1,3,1,2,11,3,2254,0,0.1588991,12.04856,0.7409853,-1
20,F,0,1,3,2,1,12,4,5120,3,0.3231734,6.503051,2.774811,-1
20,F,0,1,3,3,2,9,1,5087,0,0.7928317,12.25382,3.636312,-1
20,F,0,1,3,4,1,11,3,3465,0,2.192694E-07,6.075591,0,-1
20,F,0,1,3,5,2,10,2,2942,2,0.5649955,12.32432,2.568036,-1
20,F,0,1,3,6,2,12,4,2887,0,0.8178675,12.24753,3.721575,-1
20,F,0,1,3,7,1,10,2,2153,1,0.1592323,6.530195,1.337352,-1
20,F,0,1,3,8,1,9,1,1587,0,0.2142733,6.115228,1.938762,-1
20,F,0,1,4,1,2,16,4,3553,2,0.6649603,12.25482,3.023297,-1
20,F,0,1,4,2,2,15,3,2353,0,0.3685695,12.08137,1.70525,-1
20,F,0,1,4,3,1,13,1,1920,0,1.479277E-07,6.129169,0,-1
20,F,0,1,4,4,1,15,3,3253,0,0.3456446,6.05946,3.117846,-1
20,F,0,1,4,5,1,14,2,1742,1,2.596738E-07,6.546793,0,-1
20,F,0,1,4,6,2,13,1,6198,3,0.5586469,12.24076,2.582402,-1
20,F,0,1,4,7,2,14,2,5887,4,0.3391188,12.31856,1.535059,-1
20,F,0,1,4,8,1,16,4,7764,0,0.3419504,6.509934,2.869285,-1
20,F,0,1,5,1,2,18,2,1786,1,0.03096757,12.31935,0.1412742,-1
20,F,0,1,5,2,1,17,1,1531,0,9.141844E-08,6.124377,0,-1
20,F,0,1,5,3,1,20,4,4131,0,0.4865344,6.507565,4.085524,-1
20,F,0,1,5,4,1,19,3,3664,1,0.1441454,6.077055,1.299955,-1
20,F,0,1,5,5,2,20,4,3387,2,0.6160097,12.24896,2.84792,-1
20,F,0,1,5,6,2,17,1,2198,0,0.1396334,12.26292,0.6398023,-1
20,F,0,1,5,7,1,18,2,5231,1,0.1758296,6.538549,1.47777,-1
20,F,0,1,5,8,2,19,3,2009,1,0.7809632,12.07174,3.620284,-1
20,F,0,1,6,1,2,21,1,2498,0,1.692017E-07,12.26357,0,-1
20,F,0,1,6,2,2,22,2,2031,1,0.3816459,12.33397,1.735058,-1
20,F,0,1,6,3,2,23,3,8498,6,0.3040979,12.06078,1.412777,-1
20,F,0,1,6,4,1,21,1,1487,0,0.4489729,6.098931,4.099831,-1
20,F,0,1,6,5,1,24,4,5642,2,0.3006,6.509244,2.5222,-1
20,F,0,1,6,6,1,22,2,3275,1,4.717304E-08,6.539696,0,-1
20,F,0,1,6,7,2,24,4,2953,0,1.018504,12.2476,4.654632,-1
20,F,0,1,6,8,1,23,3,3320,0,1.117905E-08,6.078233,0,-1
20,F,0,1,7,1,2,28,4,3431,1,0.01389688,12.25413,0.06255726,-1
20,F,0,1,7,2,1,26,2,4464,1,0.1249834,6.535276,1.049225,-1
20,F,0,1,7,3,1,28,4,4276,2,0.5443097,6.518462,4.5642,-1
20,F,0,1,7,4,1,25,1,1998,0,0.1492555,6.099906,1.348572,-1
20,F,0,1,7,5,2,27,3,1820,0,0.1628201,12.05019,0.7576976,-1
20,F,0,1,7,6,2,25,1,1342,0,0.2130651,12.24796,0.9831765,-1
20,F,0,1,7,7,1,27,3,3420,0,0.367843,6.072016,3.298059,-1
20,F,0,1,7,8,2,26,2,4509,0,0.4171583,12.32626,1.884295,-1
20,F,0,1,8,1,2,29,1,2265,0,0.3719403,12.25507,1.717372,-1
20,F,0,1,8,2,1,31,3,3976,0,0.04327565,6.078502,0.3881583,-1
20,F,0,1,8,3,1,30,2,1687,0,0.3908743,6.52808,3.231618,-1
20,F,0,1,8,4,2,31,3,2042,0,0.671357,12.06952,3.151259,-1
20,F,0,1,8,5,2,30,2,3320,0,1.01411,12.32248,4.568447,-1
20,F,0,1,8,6,2,32,4,3520,0,0.5007281,12.25208,2.283791,-1
20,F,0,1,8,7,1,29,1,4287,3,2.212992E-07,6.067853,0,-1
20,F,0,1,8,8,1,32,4,3520,0,0.2046229,6.511561,1.694544,-1
20,F,0,1,9,1,1,35,3,5020,1,0.01731572,6.070335,0.1557664,-1
20,F,0,1,9,2,2,36,4,3720,2,0.3717138,12.30888,1.682257,-1
20,F,0,1,9,3,1,34,2,2698,1,0.2467923,6.552159,2.099843,-1
20,F,0,1,9,4,2,35,3,2409,1,0.4288014,12.07147,1.989972,-1
20,F,0,1,9,5,2,33,1,1909,0,1.005884,12.24564,4.651685,-1
20,F,0,1,9,6,1,36,4,2676,0,0.2682863,6.520168,2.246725,-1
20,F,0,1,9,7,1,33,1,1331,0,0.4684455,6.103469,4.247869,-1
20,F,0,1,9,8,2,34,2,9999,10,-1,-1,-1,-1
20,F,0,1,10,1,2,37,1,5042,1,0.05566452,12.2582,0.254109,-1
20,F,0,1,10,2,1,40,4,4197,1,3.688075E-07,6.518236,0,-1
20,F,0,1,10,3,1,38,2,1442,1,0.4826158,6.5408,4.006191,-1
20,F,0,1,10,4,2,39,3,6842,0,1.010527,12.07175,4.784669,-1
20,F,0,1,10,5,2,40,4,2275,0,0.7745818,12.26036,3.534353,-1
20,F,0,1,10,6,1,39,3,6786,4,0.0808906,5.959938,0.741777,-1
20,F,0,1,10,7,2,38,2,1708,0,0.6900726,12.32965,3.121987,-1
20,F,0,1,10,8,1,37,1,1886,0,0.3330507,6.117176,3.035317,-1
20,F,0,1,11,1,1,42,2,4042,0,0.4747682,6.535941,3.918267,-1
20,F,0,1,11,2,1,44,4,3931,0,0.1563094,6.524909,1.29528,-1
20,F,0,1,11,3,1,41,1,1631,0,0.4143755,6.098619,3.810125,-1
20,F,0,1,11,4,2,43,3,2420,0,0.4084106,12.07653,1.917344,-1
20,F,0,1,11,5,2,44,4,5309,2,7.181097E-08,12.26232,0,-1
20,F,0,1,11,6,2,41,1,3331,2,0.407242,12.26529,1.865716,-1
20,F,0,1,11,7,1,43,3,3576,0,0.1042553,6.079631,0.9320924,-1
20,F,0,1,11,8,2,42,2,3942,1,0.07331389,12.33414,0.3322025,-1
20,F,0,1,12,1,1,45,1,2698,2,0.2391752,6.135089,2.12532,-1
20,F,0,1,12,2,2,47,3,3498,0,1.004417,12.07325,4.740203,-1
20,F,0,1,12,3,2,48,4,2765,0,1.038235,12.25876,4.740327,-1
20,F,0,1,12,4,1,46,2,2876,1,0.3828025,6.539693,3.180816,-1
20,F,0,1,12,5,1,48,4,4842,3,0.5172052,6.513437,4.284229,-1
20,F,0,1,12,6,2,45,1,5520,3,0.9343024,12.26815,4.302794,-1
20,F,0,1,12,7,1,47,3,3931,0,0.06351691,6.09295,0.5699261,-1
20,F,0,1,12,8,2,46,2,3576,0,0.984141,12.34472,4.432482,-1
20,F,0,1,13,1,1,52,4,2965,0,0.548178,6.521959,4.594655,-1
20,F,0,1,13,2,2,51,3,4009,2,0.7470201,12.11762,3.454511,-1
20,F,0,1,13,3,1,50,2,1953,1,1.712256E-07,6.552509,0,-1
20,F,0,1,13,4,2,49,1,3598,0,0.7045178,12.26041,3.251307,-1
20,F,0,1,13,5,1,51,3,2886,0,0.2217011,6.061799,2.0112,-1
20,F,0,1,13,6,1,49,1,1765,0,0.4270271,6.128637,3.901037,-1
20,F,0,1,13,7,2,52,4,4476,0,0.5306854,12.26193,2.412407,-1
20,F,0,1,13,8,2,50,2,1720,1,0.004842923,12.33466,0.01978234,-1
20,F,0,1,14,1,1,53,1,1276,0,0.1934996,6.120598,1.746749,-1
20,F,0,1,14,2,2,55,3,1920,2,0.6077495,12.08593,2.858759,-1
20,F,0,1,14,3,1,56,4,4865,0,0.344319,6.529504,2.826324,-1
20,F,0,1,14,4,2,53,1,4476,0,0.7711299,12.28581,3.527366,-1
20,F,0,1,14,5,2,56,4,3320,0,0.1383781,12.28024,0.6283845,-1
20,F,0,1,14,6,1,54,2,4009,3,0.1447312,6.577435,1.222053,-1
20,F,0,1,14,7,1,55,3,2976,0,0.04464528,6.083679,0.4000739,-1
20,F,0,1,14,8,2,54,2,2220,0,0.1585556,12.35273,0.7168246,-1
20,F,0,1,15,1,2,57,1,2553,0,0.4387435,12.28384,1.987216,-1
20,F,0,1,15,2,2,58,2,2320,3,0.7827248,12.34576,3.549831,-1
20,F,0,1,15,3,1,60,4,5454,2,0.09361469,6.544587,0.7868362,-1
20,F,0,1,15,4,1,57,1,2409,3,1.861863E-07,6.130302,0,-1
20,F,0,1,15,5,1,59,3,3042,0,0.1287686,6.093621,1.142096,-1
20,F,0,1,15,6,1,58,2,4409,2,0.1114652,6.604057,0.926618,-1
20,F,0,1,15,7,2,59,3,3775,0,0.9308347,12.09076,4.397657,-1
20,F,0,1,15,8,2,60,4,2265,0,0.4800724,12.28183,2.184357,-1
20,F,0,1,16,1,2,61,1,1498,0,0.9064161,12.28378,4.185071,-1
20,F,0,1,16,2,1,62,2,6631,0,0.1932437,6.564662,1.615073,-1
20,F,0,1,16,3,2,63,3,2842,1,0.4856391,12.08481,2.269002,-1
20,F,0,1,16,4,1,61,1,1087,0,3.797644E-08,6.13654,0,-1
20,F,0,1,16,5,1,64,4,3642,0,9.324705E-08,6.541023,0,-1
20,F,0,1,16,6,1,63,3,3442,0,2.98068E-07,6.095176,0,-1
20,F,0,1,16,7,2,62,2,9999,0,-1,-1,-1,-1
20,F,0,1,16,8,2,64,4,3154,0,0.682981,12.29225,3.125684,-1
20,F,0,1,17,1,3,65,1,1731,1,0.5094356,6.145894,4.655894,-1
20,F,0,1,17,2,3,66,2,3087,2,7.94302E-08,6.554122,0,-1
20,F,0,1,17,3,3,68,4,3542,0,0.107615,6.50791,0.8987461,-1
20,F,0,1,17,4,4,67,3,2320,0,0.3765887,12.07566,1.758584,-1
20,F,0,1,17,5,4,66,2,2998,0,0.6709659,12.37161,3.035059,-1
20,F,0,1,17,6,3,67,3,1842,0,0.07597727,6.070393,0.6835691,-1
20,F,0,1,17,7,4,65,1,5431,2,1.49278E-07,12.27773,0,-1
20,F,0,1,17,8,4,68,4,3042,0,0.1370689,12.25492,0.6230683,-1
20,F,0,1,18,1,4,71,3,2564,1,0.04124525,12.1055,0.1897456,-1
20,F,0,1,18,2,4,69,1,1776,0,0.767373,12.29609,3.530362,-1
20,F,0,1,18,3,3,71,3,2509,0,0.3868809,6.079005,3.511622,-1
20,F,0,1,18,4,4,70,2,3731,0,0.4037951,12.35431,1.821772,-1
20,F,0,1,18,5,3,72,4,3753,3,0.1709191,6.526522,1.418445,-1
20,F,0,1,18,6,3,70,2,3942,0,0.3981547,6.538322,3.309201,-1
20,F,0,1,18,7,3,69,1,2087,0,0.2095547,6.158226,1.88076,-1
20,F,0,1,18,8,4,72,4,2309,0,0.6543295,12.24532,2.967089,-1
20,F,0,1,19,1,3,74,2,4720,1,0.2499181,6.549674,2.067533,-1
20,F,0,1,19,2,3,76,4,6709,2,0.2515989,6.529965,2.106822,-1
20,F,0,1,19,3,4,73,1,3109,0,1.328271E-07,12.30432,0,-1
20,F,0,1,19,4,4,75,3,3865,5,0.7212501,12.08974,3.335952,-1
20,F,0,1,19,5,4,76,4,5320,3,0.8895011,12.27253,4.034346,-1
20,F,0,1,19,6,3,75,3,2453,0,0.1560195,6.082648,1.384515,-1
20,F,0,1,19,7,3,73,1,1309,0,0.04765094,6.15953,0.4252063,-1
20,F,0,1,19,8,4,74,2,3398,0,0.5604243,12.37815,2.55382,-1
20,F,0,1,20,1,3,77,1,1564,0,0.4904375,6.140943,4.495359,-1
20,F,0,1,20,2,3,79,3,2631,0,0.005509526,6.080158,0.04423466,-1
20,F,0,1,20,3,3,78,2,4253,1,0.4664385,6.574674,3.843998,-1
20,F,0,1,20,4,4,79,3,2553,1,0.9111953,12.09319,4.296919,-1
20,F,0,1,20,5,4,78,2,931,0,0.7363249,12.37401,3.318299,-1
20,F,0,1,20,6,3,80,4,1764,0,0.4370976,6.519648,3.663083,-1
20,F,0,1,20,7,4,77,1,1820,0,0.1205542,12.29758,0.5492961,-1
20,F,0,1,20,8,4,80,4,1598,0,0.7001254,12.26968,3.216559,-1
20,F,0,1,20,1,1,77,1,1587,0,0.02206203,6.181561,0.1948336,-1
20,F,0,1,20,2,1,80,4,2498,0,0.186111,6.53266,1.540912,-1
20,F,0,1,20,3,1,79,3,4865,0,5.802572E-08,6.095386,0,-1
20,F,0,1,20,4,2,77,1,1553,1,0.1292533,12.31391,0.5875081,-1
20,F,0,1,20,5,1,78,2,4787,0,1.356031E-07,6.570568,0,-1
20,F,0,1,20,6,2,80,4,3131,0,0.6767914,12.28604,3.058831,-1
20,F,0,1,20,7,2,78,2,3042,0,0.7011167,12.39055,3.198554,-1
20,F,0,1,20,8,2,79,3,4531,3,0.6066053,12.11317,2.828193,-1
20,F,0,1,21,1,1,82,2,2220,1,0.4730265,6.567237,3.897772,-1
20,F,0,1,21,2,2,83,3,1964,0,0.01546473,12.1412,0.07132626,-1
20,F,0,1,21,3,2,84,4,2487,0,0.3892854,12.3105,1.761475,-1
20,F,0,1,21,4,1,81,1,2042,0,0.1041374,6.197844,0.9208986,-1
20,F,0,1,21,5,1,83,3,2976,0,0.1613666,6.152169,1.429303,-1
20,F,0,1,21,6,2,81,1,2420,0,0.4028197,12.31238,1.842175,-1
20,F,0,1,21,7,2,82,2,1720,0,0.3176474,12.38832,1.430534,-1
20,F,0,1,21,8,1,84,4,3231,1,0.3811463,6.562197,3.173422,-1
20,F,0,1,22,1,2,87,3,2542,0,0.9220873,12.13467,4.308572,-1
20,F,0,1,22,2,1,88,4,2809,0,0.4434735,6.57037,3.688386,-1
20,F,0,1,22,3,1,87,3,2631,0,0.08493866,6.153615,0.7530347,-1
20,F,0,1,22,4,2,88,4,1920,0,0.1464187,12.33308,0.6626383,-1
20,F,0,1,22,5,1,86,2,2953,1,0.2057154,6.590581,1.697774,-1
20,F,0,1,22,6,2,85,1,1676,0,0.9509299,12.31887,4.36619,-1
20,F,0,1,22,7,2,86,2,1587,0,0.5503138,12.38729,2.466565,-1
20,F,0,1,22,8,1,85,1,1342,0,0.1103684,6.192989,0.9739782,-1
20,F,0,1,23,1,2,91,3,3309,0,0.2300079,12.1638,1.059802,-1
20,F,0,1,23,2,2,92,4,2309,1,0.01880766,12.33478,0.08392937,-1
20,F,0,1,23,3,1,90,2,2076,2,0.429884,6.601403,3.549334,-1
20,F,0,1,23,4,1,89,1,1076,0,1.428654E-07,6.187787,0,-1
20,F,0,1,23,5,1,91,3,2142,0,0.5126304,6.169118,4.529002,-1
20,F,0,1,23,6,2,90,2,5098,0,0.6060206,12.40612,2.761375,-1
20,F,0,1,23,7,1,92,4,3509,1,0.2921681,6.572304,2.425757,-1
20,F,0,1,23,8,2,89,1,2698,0,1.644786E-08,12.33775,0,-1
20,F,0,1,24,1,2,95,3,1965,0,2.07864E-07,12.17621,0,-1
20,F,0,1,24,2,2,96,4,1753,0,0.6878774,12.34654,3.104821,-1
20,F,0,1,24,3,2,93,1,2031,1,0.5406195,12.34866,2.45232,-1
20,F,0,1,24,4,1,96,4,2053,0,0.2388004,6.596062,1.955147,-1
20,F,0,1,24,5,2,94,2,2398,0,0.7731263,12.40901,3.551871,-1
20,F,0,1,24,6,1,93,1,1365,0,3.71206E-08,6.207733,0,-1
20,F,0,1,24,7,1,94,2,2920,0,0.2810977,6.613551,2.31579,-1
20,F,0,1,24,8,1,95,3,2376,0,0.01595776,6.170589,0.1412742,-1
20,F,0,1,25,1,2,100,4,2365,0,0.960304,12.35775,4.332733,-1
20,F,0,1,25,2,1,98,2,2220,1,0.228214,6.606299,1.882112,-1
20,F,0,1,25,3,2,99,3,1165,0,0.3409305,12.19133,1.561851,-1
20,F,0,1,25,4,2,97,1,1187,0,0.9981984,12.33967,4.587188,-1
20,F,0,1,25,5,1,100,4,3075,3,2.069746E-07,6.599031,0,-1
20,F,0,1,25,6,1,97,1,1098,0,0.3113538,6.22165,2.71195,-1
20,F,0,1,25,7,1,99,3,2409,0,0.1325602,6.183374,1.169021,-1
20,F,0,1,25,8,2,98,2,1776,0,0.2257885,12.4154,1.0151,-1
20,F,0,1,26,1,1,103,3,1953,0,0.1873148,6.18236,1.650075,-1
20,F,0,1,26,2,1,104,4,1753,0,0.4511914,6.592365,3.740783,-1
20,F,0,1,26,3,2,101,1,1220,0,0.7859122,12.34925,3.54304,-1
20,F,0,1,26,4,2,104,4,7564,0,0.4630524,12.35679,2.087035,-1
20,F,0,1,26,5,2,103,3,1065,0,3.677623E-08,12.19473,0,-1
20,F,0,1,26,6,1,102,2,2542,1,0.1993696,6.612736,1.639963,-1
20,F,0,1,26,7,1,101,1,1398,0,1.08627E-07,6.218605,0.01978234,-1
20,F,0,1,26,8,2,102,2,2809,0,0.3760065,12.41023,1.686324,-1
20,F,0,1,27,1,1,107,3,3142,2,0.3199548,6.173678,2.826255,-1
20,F,0,1,27,2,2,105,1,1031,0,0.3268729,12.35719,1.496979,-1
20,F,0,1,27,3,1,106,2,1253,0,0.2452022,6.607097,2.021876,-1
20,F,0,1,27,4,1,108,4,1909,0,0.3631369,6.587147,3.012334,-1
20,F,0,1,27,5,2,107,3,998,0,0.4962683,12.19346,2.277784,-1
20,F,0,1,27,6,1,105,1,1098,0,1.082397E-07,6.21512,0.01978234,-1
20,F,0,1,27,7,2,108,4,2276,2,0.8993495,12.36751,4.11166,-1
20,F,0,1,27,8,2,106,2,3348,0,0.0268484,12.41495,0.1219466,-1
20,F,0,1,28,1,2,109,1,1132,0,0.04295555,12.34802,0.1958353,-1
20,F,0,1,28,2,1,112,4,1999,1,0.13807,6.595611,1.133842,-1
20,F,0,1,28,3,1,111,3,2232,0,0.1478287,6.181666,1.301459,-1
20,F,0,1,28,4,2,112,4,1409,0,0.5454824,12.36563,2.466248,-1
20,F,0,1,28,5,1,110,2,2176,0,0.3841068,6.613931,3.178292,-1
20,F,0,1,28,6,1,109,1,920,0,1.747346E-07,6.213454,0.01978234,-1
20,F,0,1,28,7,2,110,2,2431,1,0.5053879,12.41932,2.266932,-1
20,F,0,1,28,8,2,111,3,1631,0,0.225097,12.18466,1.039482,-1
20,F,0,1,29,1,2,114,2,1909,0,4.808714E-08,12.42276,0,-1
20,F,0,1,29,2,1,113,1,1131,0,5.524339E-08,6.222355,0,-1
20,F,0,1,29,3,2,116,4,1953,0,0.9673529,12.35477,4.427663,-1
20,F,0,1,29,4,1,115,3,2809,1,0.01646851,6.1874,0.14537,-1
20,F,0,1,29,5,1,116,4,2197,0,0.1396231,6.602332,1.152839,-1
20,F,0,1,29,6,2,113,1,2420,3,0.5942526,12.33889,2.681026,-1
20,F,0,1,29,7,1,114,2,1409,0,0.275214,6.610676,2.264426,-1
20,F,0,1,29,8,2,115,3,1209,0,0.788552,12.18027,3.68302,-1
20,F,0,1,30,1,1,117,1,1665,0,0.1403783,6.20697,1.247411,-1
20,F,0,1,30,2,1,120,4,2120,0,0.3710542,6.599783,3.061198,-1
20,F,0,1,30,3,1,118,2,2542,1,0.2690441,6.614098,2.205135,-1
20,F,0,1,30,4,1,119,3,2465,0,0.2758693,6.192639,2.408591,-1
20,F,0,1,30,5,2,120,4,4531,1,1.016096,12.35286,4.675375,-1
20,F,0,1,30,6,2,119,3,2342,0,0.7083153,12.18217,3.302449,-1
20,F,0,1,30,7,2,117,1,1142,0,0.270558,12.35168,1.231782,-1
20,F,0,1,30,8,2,118,2,1775,0,1.136069E-07,12.41817,0,-1
20,F,0,1,31,1,1,124,4,1198,0,0.3077513,6.598592,2.548218,-1
20,F,0,1,31,2,2,121,1,2609,1,0.4417121,12.34425,2.021198,-1
20,F,0,1,31,3,2,122,2,2898,0,0.6771754,12.43017,3.089144,-1
20,F,0,1,31,4,2,123,3,1542,0,0.4152714,12.19477,1.924578,-1
20,F,0,1,31,5,2,124,4,1631,0,0.6651063,12.37017,2.996501,-1
20,F,0,1,31,6,1,121,1,1231,0,0.2066958,6.224819,1.806453,-1
20,F,0,1,31,7,1,122,2,1065,0,0.488561,6.622908,4.016979,-1
20,F,0,1,31,8,1,123,3,1342,0,0.1742944,6.190988,1.530974,-1
20,F,0,1,32,1,1,126,2,1065,0,0.5125907,6.618164,4.217608,-1
20,F,0,1,32,2,2,125,1,1087,0,0.8663412,12.34709,3.904449,-1
20,F,0,1,32,3,1,127,3,2920,1,0.3156124,6.193467,2.77608,-1
20,F,0,1,32,4,1,128,4,2842,2,6.231291E-08,6.601228,0,-1
20,F,0,1,32,5,2,126,2,1576,1,0.4631231,12.41109,2.077448,-1
20,F,0,1,32,6,2,128,4,1609,0,0.6368396,12.36667,2.869831,-1
20,F,0,1,32,7,1,125,1,1143,0,0.006623494,6.220415,0.05595291,-1
20,F,0,1,32,8,2,127,3,1153,0,0.5571543,12.20685,2.583917,-1
20,F,0,1,33,1,2,130,2,1665,0,0.5163999,12.42785,2.348687,-1
20,F,0,1,33,2,1,131,3,2087,1,0.01525168,6.196361,0.1341704,-1
20,F,0,1,33,3,1,130,2,1820,1,0.2509575,6.620609,2.065259,-1
20,F,0,1,33,4,1,129,1,1365,1,0.1643545,6.203728,1.463131,-1
20,F,0,1,33,5,1,132,4,1965,1,1.921898E-07,6.614124,0,-1
20,F,0,1,33,6,2,129,1,998,0,0.8771778,12.34973,4.022192,-1
20,F,0,1,33,7,2,132,4,1820,0,0.9845458,12.37462,4.436502,-1
20,F,0,1,33,8,2,131,3,2509,0,0.2031549,12.20668,0.9329317,-1
20,F,0,1,34,1,2,136,4,3942,0,0.887019,12.38224,3.993853,-1
20,F,0,1,34,2,2,133,1,1142,0,0.4562484,12.35605,2.074997,-1
20,F,0,1,34,3,1,135,3,1809,1,0.3237129,6.20121,2.843655,-1
20,F,0,1,34,4,1,133,1,976,0,0.2780588,6.237602,2.431721,-1
20,F,0,1,34,5,1,134,2,1209,0,0.4424598,6.638573,3.633726,-1
20,F,0,1,34,6,2,135,3,1653,1,0.5330006,12.21548,2.468865,-1
20,F,0,1,34,7,1,136,4,1898,0,0.3733723,6.625759,3.04266,-1
20,F,0,1,34,8,2,134,2,2653,0,0.9248055,12.42523,4.155956,-1
20,F,0,1,35,1,1,139,3,2453,0,0.1575627,6.218832,1.379843,-1
20,F,0,1,35,2,2,138,2,2942,0,0.7488219,12.45277,3.347143,-1
20,F,0,1,35,3,1,137,1,1631,0,0.1514789,6.241079,1.324413,-1
20,F,0,1,35,4,1,140,4,2776,2,0.4963167,6.633645,4.114136,-1
20,F,0,1,35,5,1,138,2,1320,1,1.555321E-07,6.633162,0,-1
20,F,0,1,35,6,2,137,1,1309,0,0.9898503,12.36469,4.548595,-1
20,F,0,1,35,7,2,139,3,1786,0,1.916394E-07,12.21674,0,-1
20,F,0,1,35,8,2,140,4,1842,0,0.3288995,12.39311,1.493838,-1
20,F,0,1,37,1,4,145,1,1553,0,0.762837,12.35272,3.426856,-1
20,F,0,1,37,2,4,147,3,1409,0,0.1176969,12.22004,0.5417637,-1
20,F,0,1,37,3,3,146,2,1987,0,0.293128,6.644096,2.389418,-1
20,F,0,1,37,4,4,148,4,1631,1,0.8482364,12.37878,3.831906,-1
20,F,0,1,37,5,3,145,1,2354,1,0.2182943,6.232369,1.909264,-1
20,F,0,1,37,6,3,148,4,1620,0,0.4587675,6.618479,3.789409,-1
20,F,0,1,37,7,3,147,3,1687,0,0.02549083,6.213018,0.2229358,-1
20,F,0,1,37,8,4,146,2,2898,0,0.4252149,12.45432,1.908751,-1
20,F,0,1,38,1,4,151,3,2465,0,0.390922,12.21159,1.794824,-1
20,F,0,1,38,2,3,152,4,1976,0,0.2780066,6.628609,2.265809,-1
20,F,0,1,38,3,4,150,2,1009,0,0.3341469,12.43778,1.500113,-1
20,F,0,1,38,4,4,149,1,1942,0,0.4761975,12.3527,2.18086,-1
20,F,0,1,38,5,3,150,2,1631,0,0.3521827,6.627024,2.880928,-1
20,F,0,1,38,6,4,152,4,3476,5,0.4946839,12.36977,2.225983,-1
20,F,0,1,38,7,3,151,3,2576,0,0.3522539,6.206662,3.092438,-1
20,F,0,1,38,8,3,149,1,1398,0,0.0536198,6.225663,0.4702222,-1
20,F,0,1,39,1,3,156,4,1876,0,0.4832091,6.620487,3.976753,-1
20,F,0,1,39,2,4,154,2,3642,0,0.5153404,12.44277,2.30656,-1
20,F,0,1,39,3,4,155,3,2087,0,0.9279816,12.20585,4.337702,-1
20,F,0,1,39,4,3,153,1,987,0,0.1456481,6.23155,1.274415,-1
20,F,0,1,39,5,3,155,3,1487,0,0.2628686,6.211527,2.298569,-1
20,F,0,1,39,6,4,153,1,2197,0,0.2583631,12.3658,1.171028,-1
20,F,0,1,39,7,3,154,2,3576,2,0.4214382,6.637153,3.482003,-1
20,F,0,1,39,8,4,156,4,1631,1,0.1511084,12.3763,0.6878495,-1
20,F,0,1,40,1,3,159,3,1898,0,0.2691146,6.214206,2.390483,-1
20,F,0,1,40,2,4,160,4,1653,0,0.4444272,12.40121,2.018485,-1
20,F,0,1,40,3,4,158,2,1387,0,0.2942362,12.4547,1.329574,-1
20,F,0,1,40,4,4,159,3,1998,1,0.8004431,12.19513,3.73523,-1
20,F,0,1,40,5,4,157,1,876,0,0.7842028,12.3639,3.527866,-1
20,F,0,1,40,6,3,158,2,3120,1,1.967832E-07,6.634455,0,-1
20,F,0,1,40,7,3,157,1,1387,0,0.2439029,6.249063,2.128448,-1
20,F,0,1,40,8,3,160,4,2964,0,0.2690358,6.621321,2.197043,-1
20,F,0,1,41,1,1,162,2,1831,2,0.05630573,6.649108,0.4652019,-1
20,F,0,1,41,2,2,163,3,3976,1,1.03769,12.22073,4.814464,-1
20,F,0,1,41,3,1,164,4,3198,0,0.1947063,6.624944,1.596181,-1
20,F,0,1,41,4,1,161,1,998,1,0.1282169,6.231264,1.133842,-1
20,F,0,1,41,5,1,163,3,2931,1,0.2164143,6.206658,1.896304,-1
20,F,0,1,41,6,2,162,2,3076,0,0.3837894,12.44138,1.721242,-1
20,F,0,1,41,7,2,164,4,2398,1,2.381843E-07,12.39028,0.01978234,-1
20,F,0,1,41,8,2,161,1,1542,0,0.3959634,12.38317,1.781361,-1
20,F,0,1,42,1,1,168,4,3275,1,9.835055E-08,6.622661,0,-1
20,F,0,1,42,2,1,165,1,2520,0,9.104063E-08,6.229436,0,-1
20,F,0,1,42,3,1,167,3,1842,0,0.1440095,6.213311,1.259898,-1
20,F,0,1,42,4,1,166,2,2653,1,0.4789898,6.64054,3.933082,-1
20,F,0,1,42,5,2,167,3,2231,0,0.8424851,12.21061,3.920365,-1
20,F,0,1,42,6,2,168,4,1731,1,0.6295668,12.39505,2.830615,-1
20,F,0,1,42,7,2,165,1,1353,0,0.1753056,12.38134,0.7920414,-1
20,F,0,1,42,8,2,166,2,2531,0,0.3124181,12.44957,1.399137,-1
20,F,0,1,43,1,1,171,3,2309,0,0.1806138,6.21143,1.581648,-1
20,F,0,1,43,2,2,169,1,1253,0,0.8506845,12.37736,3.825205,-1
20,F,0,1,43,3,1,170,2,1487,0,0.1708589,6.652596,1.401513,-1
20,F,0,1,43,4,2,172,4,6042,0,0.3512583,12.39281,1.581277,-1
20,F,0,1,43,5,2,170,2,5809,2,0.4246515,12.44912,1.901663,-1
20,F,0,1,43,6,2,171,3,1687,0,0.5758649,12.22719,2.667044,-1
20,F,0,1,43,7,1,169,1,1120,0,1.154198E-07,6.231787,0,-1
20,F,0,1,43,8,1,172,4,3253,0,0.03434302,6.639875,0.2825486,-1
20,F,0,1,44,1,1,173,1,898,0,0.04538495,6.240495,0.3995845,-1
20,F,0,1,44,2,1,175,3,1598,0,0.1572935,6.219079,1.379701,-1
20,F,0,1,44,3,2,176,4,2242,0,0.4575308,12.38797,2.079237,-1
20,F,0,1,44,4,1,174,2,4654,0,0.2378044,6.622312,1.956447,-1
20,F,0,1,44,5,2,175,3,5220,5,0.3369305,12.17502,1.545477,-1
20,F,0,1,44,6,1,176,4,1609,0,0.06517778,6.622291,0.5355885,-1
20,F,0,1,44,7,2,173,1,1842,1,0.3681833,12.36077,1.673978,-1
20,F,0,1,44,8,2,174,2,5064,0,0.9795418,12.437,4.381416,-1
20,F,0,1,45,1,1,179,3,3120,0,0.2646434,6.200457,2.307917,-1
20,F,0,1,45,2,2,178,2,1776,0,0.6366061,12.44259,2.844343,-1
20,F,0,1,45,3,1,180,4,2476,0,0.3769288,6.618872,3.081531,-1
20,F,0,1,45,4,2,177,1,4431,1,0.6701337,12.36455,3.029119,-1
20,F,0,1,45,5,2,179,3,9320,0,0.4954785,12.21463,2.272364,-1
20,F,0,1,45,6,2,180,4,1565,0,0.8984244,12.37473,4.047624,-1
20,F,0,1,45,7,1,178,2,1476,1,0.5202951,6.631231,4.249528,-1
20,F,0,1,45,8,1,177,1,1054,0,0.2577072,6.228405,2.29661,-1
20,F,0,1,46,1,1,182,2,2109,0,0.4647909,6.631193,3.801688,-1
20,F,0,1,46,2,1,183,3,1898,0,0.03103549,6.199697,0.272681,-1
20,F,0,1,46,3,2,184,4,1931,0,1.042408,12.38397,4.694316,-1
20,F,0,1,46,4,1,181,1,1220,0,0.393638,6.247616,3.4357,-1
20,F,0,1,46,5,1,184,4,1476,1,0.5476087,6.618927,4.524242,-1
20,F,0,1,46,6,2,183,3,1076,0,0.315626,12.22133,1.460721,-1
20,F,0,1,46,7,2,182,2,4476,2,0.362697,12.44511,1.644372,-1
20,F,0,1,46,8,2,181,1,1476,1,0.6643836,12.38147,2.994148,-1
20,F,0,1,47,1,1,186,2,5786,3,0.4279501,6.645767,3.609994,-1
20,F,0,1,47,2,1,185,1,920,0,0.2943996,6.217632,2.622639,-1
20,F,0,1,47,3,2,188,4,2387,2,0.6719463,12.37794,3.03493,-1
20,F,0,1,47,4,1,187,3,2653,0,0.2482988,6.189394,2.211162,-1
20,F,0,1,47,5,2,185,1,2220,0,0.5211537,12.3632,2.356425,-1
20,F,0,1,47,6,1,188,4,2264,0,0.102436,6.614833,0.8402332,-1
20,F,0,1,47,7,2,186,2,3164,0,0.5239279,12.43985,2.346103,-1
20,F,0,1,47,8,2,187,3,1320,0,0.6951216,12.21055,3.225676,-1
20,F,0,1,48,1,1,189,1,1165,0,1.177454E-07,6.219644,0,-1
20,F,0,1,48,2,1,190,2,1754,0,0.458855,6.634097,3.752385,-1
20,F,0,1,48,3,2,192,4,1854,0,0.297161,12.38279,1.342172,-1
20,F,0,1,48,4,2,191,3,2787,0,0.659277,12.20167,3.06139,-1
20,F,0,1,48,5,1,192,4,1465,0,0.2260888,6.62294,1.841219,-1
20,F,0,1,48,6,2,190,2,2686,0,0.04498564,12.441,0.2027088,-1
20,F,0,1,48,7,1,191,3,6453,1,0.170809,6.221966,1.508309,-1
20,F,0,1,48,8,2,189,1,4376,0,0.4658144,12.38076,2.130654,-1
20,F,0,1,49,1,1,194,2,3521,0,0.2632326,6.639744,2.15286,-1
20,F,0,1,49,2,2,193,1,2242,3,1.009372,12.3526,4.628635,-1
20,F,0,1,49,3,1,196,4,4508,0,0.4412812,6.61995,3.573743,-1
20,F,0,1,49,4,2,195,3,3242,2,0.1447953,12.19604,0.6685182,-1
20,F,0,1,49,5,2,194,2,5352,0,0.9945536,12.43605,4.524026,-1
20,F,0,1,49,6,1,193,1,1141,0,0.3867173,6.228089,3.439402,-1
20,F,0,1,49,7,2,196,4,3976,0,0.4454852,12.38088,2.011881,-1
20,F,0,1,49,8,1,195,3,3120,0,1.143919E-07,6.218501,0.01978234,-1
20,F,0,1,50,1,2,197,1,2142,2,0.4870106,12.37387,2.192853,-1
20,F,0,1,50,2,2,199,3,2476,1,0.9371677,12.20534,4.382578,-1
20,F,0,1,50,3,2,198,2,2542,0,0.4378636,12.43996,1.961842,-1
20,F,0,1,50,4,1,200,4,1842,0,0.3748775,6.626509,3.0328,-1
20,F,0,1,50,5,1,198,2,1231,0,0.3402265,6.651346,2.786286,-1
20,F,0,1,50,6,2,200,4,1576,0,1.022017,12.39414,4.617067,-1
20,F,0,1,50,7,1,199,3,2265,0,3.48763E-07,6.211318,0,-1
20,F,0,1,50,8,1,197,1,1076,0,0.1691184,6.233628,1.498416,-1
20,F,0,1,51,1,1,204,4,2987,1,0.364707,6.633095,2.97743,-1
20,F,0,1,51,2,1,201,1,787,0,1.542573E-07,6.234564,0,-1
20,F,0,1,51,3,2,202,2,1720,0,1.362186E-07,12.44679,0,-1
20,F,0,1,51,4,1,203,3,2531,1,0.2259485,6.214365,1.98031,-1
20,F,0,1,51,5,1,202,2,987,0,0.551262,6.639872,4.519954,-1
20,F,0,1,51,6,2,204,4,1642,0,0.9485091,12.39231,4.284275,-1
20,F,0,1,51,7,2,201,1,1053,0,0.5334747,12.37588,2.441922,-1
20,F,0,1,51,8,2,203,3,2531,1,0.2566498,12.21566,1.186467,-1
20,F,0,1,52,1,2,206,2,1375,0,0.2223336,12.44513,0.9968149,-1
20,F,0,1,52,2,1,208,4,2631,1,0.3895845,6.616252,3.157775,-1
20,F,0,1,52,3,1,207,3,2398,0,0.324233,6.205916,2.835797,-1
20,F,0,1,52,4,1,205,1,1420,0,0.07954511,6.234345,0.7013714,-1
20,F,0,1,52,5,1,206,2,3598,0,7.935925E-08,6.640301,0,-1
20,F,0,1,52,6,2,208,4,2620,1,0.5892883,12.36409,2.693627,-1
20,F,0,1,52,7,2,207,3,1742,0,0.2754446,12.20962,1.26114,-1
20,F,0,1,52,8,2,205,1,1165,0,1.628369E-07,12.38646,0,-1
20,F,0,1,53,1,2,212,4,1298,0,0.8110831,12.38543,3.6505,-1
20,F,0,1,53,2,2,211,3,987,0,0.4861745,12.21621,2.219996,-1
20,F,0,1,53,3,1,210,2,2131,0,0.4267091,6.643266,3.502019,-1
20,F,0,1,53,4,1,209,1,1254,0,4.045918E-08,6.234722,0,-1
20,F,0,1,53,5,2,210,2,2609,0,0.3634308,12.44026,1.629308,-1
20,F,0,1,53,6,1,211,3,2298,0,0.2266396,6.207278,1.991643,-1
20,F,0,1,53,7,2,209,1,1931,1,0.4958333,12.37946,2.268744,-1
20,F,0,1,53,8,1,212,4,1820,0,0.1606899,6.625586,1.324708,-1
20,F,0,1,54,1,1,213,1,876,0,0.08056264,6.24224,0.709416,-1
20,F,0,1,54,2,2,215,3,998,0,0.3990025,12.21338,1.850655,-1
20,F,0,1,54,3,2,214,2,1131,0,0.7828203,12.44682,3.493791,-1
20,F,0,1,54,4,1,215,3,2787,0,0.4271748,6.201926,3.752228,-1
20,F,0,1,54,5,1,214,2,1620,1,0.2036557,6.648247,1.665422,-1
20,F,0,1,54,6,2,216,4,1954,0,1.058753,12.37924,4.794894,-1
20,F,0,1,54,7,2,213,1,1098,0,1.375296E-07,12.38492,0,-1
20,F,0,1,54,8,1,216,4,1853,1,0.09373526,6.626031,0.770502,-1
20,F,0,1,55,1,1,218,2,1342,0,0.2939542,6.648261,2.405827,-1
20,F,0,1,55,2,2,217,1,2609,0,0.8706079,12.38106,3.985951,-1
20,F,0,1,55,3,1,219,3,2220,0,0.1700309,6.204239,1.490034,-1
20,F,0,1,55,4,2,220,4,3409,1,0.909776,12.3732,4.099449,-1
20,F,0,1,55,5,2,218,2,2176,0,0.4835623,12.44762,2.162565,-1
20,F,0,1,55,6,2,219,3,1909,0,0.9760147,12.2082,4.545235,-1
20,F,0,1,55,7,1,220,4,1387,0,0.4602221,6.625298,3.797668,-1
20,F,0,1,55,8,1,217,1,1131,0,0.2238676,6.235863,1.959546,-1
20,F,0,1,56,1,1,224,4,1931,1,0.1702585,6.624169,1.390016,-1
20,F,0,1,56,2,2,222,2,2787,0,0.2055467,12.4475,0.9211111,-1
20,F,0,1,56,3,2,221,1,965,0,0.5186072,12.38065,2.33087,-1
20,F,0,1,56,4,1,222,2,1509,0,0.5684965,6.65062,4.652695,-1
20,F,0,1,56,5,1,223,3,2420,0,0.1510355,6.212972,1.323821,-1
20,F,0,1,56,6,1,221,1,1264,0,0.1257321,6.242824,1.100918,-1
20,F,0,1,56,7,2,224,4,1998,0,0.7995648,12.39478,3.607443,-1
20,F,0,1,56,8,2,223,3,1242,0,0.0001135122,12.23408,0,-1
20,F,0,1,57,1,4,225,1,976,0,4.586368E-08,12.38104,0,-1
20,F,0,1,57,2,3,226,2,2076,0,0.3655123,6.647473,2.968606,-1
20,F,0,1,57,3,3,228,4,2431,0,0.236724,6.637311,1.949332,-1
20,F,0,1,57,4,4,227,3,1320,0,0.2469209,12.20641,1.131769,-1
20,F,0,1,57,5,3,225,1,776,0,0.5296713,6.262053,4.592267,-1
20,F,0,1,57,6,3,227,3,1420,1,0.2941722,6.212651,2.580051,-1
20,F,0,1,57,7,4,226,2,3954,0,0.7304183,12.45836,3.253896,-1
20,F,0,1,57,8,4,228,4,1520,1,0.1413327,12.39407,0.640108,-1
20,F,0,1,58,1,3,229,1,1009,0,0.1833822,6.237338,1.615921,-1
20,F,0,1,58,2,3,231,3,2231,0,0.2918141,6.225907,2.558491,-1
20,F,0,1,58,3,3,230,2,2253,1,0.2670489,6.655061,2.174929,-1
20,F,0,1,58,4,4,232,4,1242,0,0.6612996,12.38807,2.983538,-1
20,F,0,1,58,5,4,230,2,2653,1,0.221155,12.45257,0.9903157,-1
20,F,0,1,58,6,4,231,3,598,0,0.3164094,12.22076,1.451313,-1
20,F,0,1,58,7,3,232,4,1753,1,0.5167629,6.632679,4.260529,-1
20,F,0,1,58,8,4,229,1,2820,0,0.2514624,12.37581,1.14961,-1
20,F,0,1,59,1,3,235,3,1442,0,4.498548E-08,6.189739,0,-1
20,F,0,1,59,2,3,233,1,1265,0,0.406463,6.252416,3.546244,-1
20,F,0,1,59,3,4,234,2,2276,1,0.6348835,12.47092,2.830615,-1
20,F,0,1,59,4,4,233,1,1931,0,0.5007133,12.39565,2.287815,-1
20,F,0,1,59,5,3,236,4,1442,0,0.5481533,6.64524,4.519911,-1
20,F,0,1,59,6,4,235,3,1831,0,0.6431224,12.22192,2.983932,-1
20,F,0,1,59,7,3,234,2,3298,3,0.3409505,6.674857,2.799253,-1
20,F,0,1,59,8,4,236,4,1376,0,0.0326485,12.39723,0.1480375,-1
20,F,0,1,60,1,3,239,3,1853,1,0.2612044,6.226036,2.290808,-1
20,F,0,1,60,2,3,238,2,1631,0,0.4130725,6.656048,3.377596,-1
20,F,0,1,60,3,4,239,3,920,0,0.2861718,12.21983,1.307759,-1
20,F,0,1,60,4,3,237,1,1109,0,0.4884107,6.266406,4.256758,-1
20,F,0,1,60,5,4,240,4,1209,0,0.7401157,12.39134,3.343222,-1
20,F,0,1,60,6,4,238,2,1642,0,0.8613873,12.48379,3.878029,-1
20,F,0,1,60,7,4,237,1,2742,0,0.805452,12.40418,3.663938,-1
20,F,0,1,60,8,3,240,4,3031,0,0.01939282,6.653214,0.1582588,-1
20,F,0,1,61,1,2,243,3,2253,0,0.3382276,12.22435,1.55972,-1
20,F,0,1,61,2,2,244,4,2876,1,0.9039825,12.4097,4.061631,-1
20,F,0,1,61,3,1,241,1,987,0,0.030406,6.24331,0.2668786,-1
20,F,0,1,61,4,1,242,2,2520,1,0.02880301,6.673362,0.2373883,-1
20,F,0,1,61,5,2,241,1,1931,1,0.02474905,12.38887,0.1101434,-1
20,F,0,1,61,6,2,242,2,3931,0,1.676407E-07,12.46872,0,-1
20,F,0,1,61,7,1,243,3,2087,1,0.03454778,6.21631,0.302612,-1
20,F,0,1,61,8,1,244,4,9675,5,1.326437E-07,6.616829,0,-1
20,F,0,1,62,1,1,246,2,1709,0,0.1519872,6.610176,1.25367,-1
20,F,0,1,62,2,1,248,4,1431,0,0.1594582,6.610974,1.310898,-1
20,F,0,1,62,3,2,245,1,2376,4,0.9659014,12.37001,4.413307,-1
20,F,0,1,62,4,2,248,4,1131,0,0.7087303,12.37628,3.202163,-1
20,F,0,1,62,5,2,247,3,1798,0,1.044025,12.22159,4.843228,-1
20,F,0,1,62,6,2,246,2,2309,0,0.7883993,12.42361,3.548562,-1
20,F,0,1,62,7,1,247,3,1365,0,0.1819846,6.209992,1.592253,-1
20,F,0,1,62,8,1,245,1,2242,0,0.02668997,6.225932,0.2349025,-1
20,F,0,1,1,1,8,2,2,4719,0,8.055988,12.43545,40.37777,-1
20,F,0,1,1,2,6,3,3,4720,0,6.118537,12.24423,29.98067,-1
20,F,0,1,1,3,6,1,1,3631,0,3.76703,12.38782,17.49239,-1
20,F,0,1,1,4,7,4,4,5153,0,3.183509,6.607389,27.96006,-1
20,F,0,1,1,5,7,3,3,1820,0,3.143791,6.261703,30.13681,-1
20,F,0,1,1,6,8,1,1,2409,0,7.065713,12.36142,34.86146,-1
20,F,0,1,1,7,7,2,2,1331,0,1.123298,6.6218,9.192037,-1
20,F,0,1,1,8,5,1,1,1365,0,2.875859,6.251511,27.38881,-1
20,F,0,1,1,9,6,4,4,1498,0,6.915236,12.38688,33.93631,-1
20,F,0,1,1,10,5,3,3,2409,0,2.866027,6.254415,27.27365,-1
20,F,0,1,1,11,5,4,4,1865,0,4.149601,6.614361,38.78457,-1
20,F,0,1,1,12,8,3,3,1976,0,0.8322352,12.23052,3.81875,-1
20,F,0,1,1,13,5,2,2,2198,0,4.348099,6.596808,40.71272,-1
20,F,0,1,1,14,7,1,1,820,0,2.714411,6.261559,25.69015,-1
20,F,0,1,1,15,8,4,4,1098,0,3.019838,12.37578,13.93219,-1
20,F,0,1,1,16,6,2,2,2453,0,7.157761,12.43418,35.14532,-1
20,F,0,1,2,1,7,4,4,964,0,1.928091,6.619013,16.12947,-1
20,F,0,1,2,2,7,3,3,6142,0,1.194407,6.229413,10.50393,-1
20,F,0,1,2,3,6,4,4,1598,0,8.293579,12.39501,41.99813,-1
20,F,0,1,2,4,5,3,3,4453,0,2.052596,6.228495,18.12572,-1
20,F,0,1,2,5,7,1,1,3198,0,5.10678,6.247197,54.83048,-1
20,F,0,1,2,6,5,2,2,1431,0,2.616179,6.625796,23.25646,-1
20,F,0,1,2,7,6,1,1,1309,0,4.91063,12.39099,23.34748,-1
20,F,0,1,2,8,6,2,2,865,0,5.673056,12.42018,27.17832,-1
20,F,0,1,2,9,8,1,1,909,0,1.418549,12.33385,6.461532,-1
20,F,0,1,2,10,8,4,4,1165,0,3.725599,12.37415,17.28304,-1
20,F,0,1,2,11,7,2,2,1220,0,2.364291,6.601971,19.84202,-1
20,F,0,1,2,12,5,1,1,1042,0,2.921132,6.27979,27.72083,-1
20,F,0,1,2,13,8,3,3,1920,0,4.00783,12.24791,18.92947,-1
20,F,0,1,2,14,8,2,2,1464,0,9.338099,12.41592,48.77323,-1
20,F,0,1,2,15,6,3,3,1664,0,5.479875,12.25592,26.32657,-1
20,F,0,1,2,16,5,4,4,987,0,3.216961,6.608198,27.65754,-1
