Age, Gender, Awareness Type, Session, Block, Trial, Set, Pattern, Quadrant, Response Time, Num Mistakes, Distance From Target, Camera Distance From Target, Angle Error (Degrees), FC Response
18,F,0,1,1,1,2,1,1,3098,0,0.2429072,12.09175,1.133151,-1
18,F,0,1,1,2,2,3,3,2687,0,0.05506566,12.10534,0.2548778,-1
18,F,0,1,1,3,1,2,2,2042,0,0.1554391,6.517019,1.296488,-1
18,F,0,1,1,4,1,1,1,2898,0,0.286139,6.218268,2.518939,-1
18,F,0,1,1,5,2,4,4,2420,0,0.7781461,12.32455,3.526423,-1
18,F,0,1,1,6,1,3,3,3365,0,0.07592963,6.175067,0.6737661,-1
18,F,0,1,1,7,1,4,4,4409,1,0.2913232,6.284723,2.542605,-1
18,F,0,1,1,8,2,2,2,9999,3,-1,-1,-1,-1
18,F,0,1,2,1,1,8,4,3742,1,0.2648174,6.279222,2.33741,-1
18,F,0,1,2,2,2,7,3,1620,0,0.9298928,12.08632,4.285326,-1
18,F,0,1,2,3,1,5,1,1465,0,0.01330728,6.183209,0.1170339,-1
18,F,0,1,2,4,2,6,2,1031,0,0.7190177,12.32504,3.259486,-1
18,F,0,1,2,5,1,7,3,7109,4,0.09344929,6.156315,0.8280347,-1
18,F,0,1,2,6,2,5,1,5476,0,0.7613378,12.10095,3.575496,-1
18,F,0,1,2,7,1,6,2,2553,0,0.2967655,6.494513,2.494106,-1
18,F,0,1,2,8,2,8,4,4642,2,0.9183841,12.31919,4.176592,-1
18,F,0,1,3,1,1,9,1,2065,0,0.04071119,6.179557,0.3609945,-1
18,F,0,1,3,2,1,11,3,3264,2,0.301978,6.157506,2.65756,-1
18,F,0,1,3,3,1,12,4,2342,1,2.155452E-07,6.265322,0,-1
18,F,0,1,3,4,2,9,1,3542,0,6.256451E-08,12.10171,0,-1
18,F,0,1,3,5,1,10,2,4120,0,0.09877284,6.487073,0.8327476,-1
18,F,0,1,3,6,2,11,3,2964,0,1.585159E-07,12.08753,0,-1
18,F,0,1,3,7,2,12,4,1642,0,0.7448083,12.30256,3.38113,-1
18,F,0,1,3,8,2,10,2,1154,0,1.023198,12.32262,4.709481,-1
18,F,0,1,4,1,2,16,4,9999,8,-1,-1,-1,-1
18,F,0,1,4,2,2,15,3,9999,0,-1,-1,-1,-1
18,F,0,1,4,3,1,14,2,1920,0,0.4829905,6.529423,4.054054,-1
18,F,0,1,4,4,1,16,4,4131,1,0.4996386,6.297012,4.400863,-1
18,F,0,1,4,5,2,14,2,1798,1,0.3044767,12.34437,1.396898,-1
18,F,0,1,4,6,2,13,1,1609,0,0.6280795,12.14108,2.921144,-1
18,F,0,1,4,7,1,15,3,3620,3,0.164404,6.183817,1.466471,-1
18,F,0,1,4,8,1,13,1,1409,0,0.269311,6.210267,2.381952,-1
18,F,0,1,5,1,2,20,4,2876,0,0.2803042,12.33352,1.26872,-1
18,F,0,1,5,2,2,17,1,2298,0,0.6512898,12.14758,3.00231,-1
18,F,0,1,5,3,2,18,2,3864,2,0.6518949,12.3633,2.946765,-1
18,F,0,1,5,4,1,20,4,3153,0,0.3857709,6.295236,3.390093,-1
18,F,0,1,5,5,1,18,2,3231,1,0.02164892,6.510108,0.1823843,-1
18,F,0,1,5,6,1,19,3,3664,0,0.1234087,6.171999,1.102871,-1
18,F,0,1,5,7,1,17,1,1698,0,0.1421341,6.204113,1.253358,-1
18,F,0,1,5,8,2,19,3,1820,0,0.1566548,12.11048,0.7241574,-1
18,F,0,1,6,1,1,21,1,1964,0,0.07130364,6.206656,0.629007,-1
18,F,0,1,6,2,2,23,3,2042,0,0.9249421,12.11567,4.260713,-1
18,F,0,1,6,3,2,21,1,1398,0,0.5258946,12.142,2.442002,-1
18,F,0,1,6,4,1,24,4,3942,1,0.2353205,6.293677,2.032784,-1
18,F,0,1,6,5,2,22,2,1220,0,0.9982598,12.34891,4.522683,-1
18,F,0,1,6,6,1,23,3,2798,0,0.2159918,6.170056,1.931379,-1
18,F,0,1,6,7,2,24,4,4209,3,0.6371443,12.31396,2.885001,-1
18,F,0,1,6,8,1,22,2,2042,1,0.4681932,6.519756,3.935123,-1
18,F,0,1,7,1,2,25,1,1642,1,0.1495144,12.13324,0.6937978,-1
18,F,0,1,7,2,1,26,2,2142,0,0.2270046,6.518968,1.907007,-1
18,F,0,1,7,3,1,27,3,1787,0,0.2806275,6.171462,2.508817,-1
18,F,0,1,7,4,1,28,4,3542,1,3.009375E-07,6.294867,0,-1
18,F,0,1,7,5,1,25,1,1898,0,0.4131539,6.209884,3.645239,-1
18,F,0,1,7,6,2,28,4,3253,0,0.7906679,12.32077,3.576427,-1
18,F,0,1,7,7,2,27,3,3087,0,0.5356642,12.10686,2.468231,-1
18,F,0,1,7,8,2,26,2,1975,2,0.8692551,12.34972,3.931787,-1
18,F,0,1,8,1,2,31,3,2153,0,0.1658416,12.10557,0.7687222,-1
18,F,0,1,8,2,1,29,1,6809,0,0.06122418,6.182492,0.5439265,-1
18,F,0,1,8,3,1,30,2,2720,0,0.2834446,6.512521,2.36695,-1
18,F,0,1,8,4,2,32,4,3164,2,0.73291,12.32658,3.369355,-1
18,F,0,1,8,5,1,31,3,4165,2,0.4817072,6.15312,4.252615,-1
18,F,0,1,8,6,2,30,2,1042,0,0.828617,12.34948,3.748156,-1
18,F,0,1,8,7,2,29,1,998,0,0.9830186,12.13641,4.625079,-1
18,F,0,1,8,8,1,32,4,2720,0,0.1601041,6.298933,1.408477,-1
18,F,0,1,9,1,2,34,2,9999,12,-1,-1,-1,-1
18,F,0,1,9,2,2,35,3,3375,4,0.923898,12.12975,4.251555,-1
18,F,0,1,9,3,2,36,4,2354,0,0.9417635,12.32348,4.263194,-1
18,F,0,1,9,4,1,35,3,3687,0,0.2688586,6.171087,2.368355,-1
18,F,0,1,9,5,1,34,2,9609,10,0.3984293,6.523859,3.311448,-1
18,F,0,1,9,6,1,33,1,1454,0,0.2599275,6.203731,2.319844,-1
18,F,0,1,9,7,1,36,4,5931,6,1.266355E-07,6.306993,0,-1
18,F,0,1,9,8,2,33,1,1209,0,0.9082814,12.1354,4.258782,-1
18,F,0,1,10,1,2,38,2,7042,0,0.6791977,12.40334,3.106271,-1
18,F,0,1,10,2,1,39,3,2809,0,0.2728327,6.215489,2.420264,-1
18,F,0,1,10,3,2,37,1,9999,2,-1,-1,-1,-1
18,F,0,1,10,4,2,40,4,1787,0,0.4003507,12.33926,1.812078,-1
18,F,0,1,10,5,1,38,2,5809,0,0.4659078,6.514475,3.90515,-1
18,F,0,1,10,6,1,37,1,1520,0,0.4064839,6.204835,3.594666,-1
18,F,0,1,10,7,2,39,3,2442,0,1.032077,12.12666,4.824098,-1
18,F,0,1,10,8,1,40,4,2820,0,0.1136141,6.310345,0.9865541,-1
18,F,0,1,11,1,2,41,1,3420,3,0.1406331,12.16444,0.6483091,-1
18,F,0,1,11,2,1,44,4,3253,0,1.708936E-07,6.312909,0,-1
18,F,0,1,11,3,1,43,3,2687,0,0.2460743,6.186933,2.156584,-1
18,F,0,1,11,4,1,41,1,1387,0,0.053044,6.223433,0.4668813,-1
18,F,0,1,11,5,1,42,2,4642,1,0.002952788,6.521768,0,-1
18,F,0,1,11,6,2,43,3,2209,0,0.6821618,12.1335,3.136751,-1
18,F,0,1,11,7,2,44,4,1887,1,0.04408927,12.34995,0.199792,-1
18,F,0,1,11,8,2,42,2,1453,2,0.01588187,12.36197,0.06852804,-1
18,F,0,1,12,1,2,47,3,1742,0,0.8863404,12.12527,4.132896,-1
18,F,0,1,12,2,1,45,1,4231,0,0.08331448,6.214525,0.7343537,-1
18,F,0,1,12,3,1,48,4,3131,1,1.661637E-07,6.314326,0,-1
18,F,0,1,12,4,2,46,2,1654,1,0.4839024,12.36579,2.213993,-1
18,F,0,1,12,5,2,45,1,1809,0,0.8238876,12.15182,3.806835,-1
18,F,0,1,12,6,1,47,3,7087,13,0.1230839,6.165437,1.081189,-1
18,F,0,1,12,7,2,48,4,2331,0,0.2567279,12.33992,1.163316,-1
18,F,0,1,12,8,1,46,2,5531,0,2.475571E-07,6.521483,0.01978234,-1
18,F,0,1,13,1,1,52,4,4187,0,0.5303971,6.304833,4.666652,-1
18,F,0,1,13,2,1,49,1,3109,0,0.2692043,6.213339,2.400125,-1
18,F,0,1,13,3,2,52,4,2564,0,0.3444932,12.34592,1.576567,-1
18,F,0,1,13,4,1,50,2,1853,0,8.371595E-08,6.523356,0,-1
18,F,0,1,13,5,2,51,3,2565,0,0.3734628,12.11949,1.732461,-1
18,F,0,1,13,6,2,49,1,1087,0,0.4234549,12.14117,1.968812,-1
18,F,0,1,13,7,1,51,3,2898,0,0.3293776,6.183955,2.935317,-1
18,F,0,1,13,8,2,50,2,1764,0,0.9853322,12.36404,4.52805,-1
18,F,0,1,14,1,2,56,4,1964,0,0.7335604,12.34175,3.31328,-1
18,F,0,1,14,2,2,54,2,1120,1,0.1176448,12.36338,0.5363187,-1
18,F,0,1,14,3,1,53,1,1231,0,0.5180892,6.213419,4.589024,-1
18,F,0,1,14,4,1,55,3,3131,1,0.2585373,6.184072,2.297377,-1
18,F,0,1,14,5,1,56,4,2976,0,0.1681231,6.310687,1.476445,-1
18,F,0,1,14,6,2,53,1,6409,1,0.938998,12.11788,4.332642,-1
18,F,0,1,14,7,2,55,3,2531,0,0.1294179,12.12317,0.5997046,-1
18,F,0,1,14,8,1,54,2,2365,1,0.4100603,6.518512,3.43342,-1
18,F,0,1,15,1,1,60,4,3164,0,0.3087675,6.31246,2.683434,-1
18,F,0,1,15,2,1,59,3,2598,0,0.3888826,6.195676,3.462493,-1
18,F,0,1,15,3,2,60,4,1542,0,0.9107727,12.34961,4.175045,-1
18,F,0,1,15,4,2,59,3,3465,4,0.9575096,12.21613,4.416634,-1
18,F,0,1,15,5,1,57,1,1298,0,0.02384129,6.266994,0.2093567,-1
18,F,0,1,15,6,1,58,2,5587,0,0.01016,6.546476,0.08622923,-1
18,F,0,1,15,7,2,57,1,2487,1,0.3976612,12.18553,1.847268,-1
18,F,0,1,15,8,2,58,2,1920,0,0.1555622,12.39253,0.7041557,-1
18,F,0,1,16,1,2,63,3,2243,0,0.8322579,12.16663,3.818135,-1
18,F,0,1,16,2,1,62,2,1876,1,0.260083,6.542163,2.153769,-1
18,F,0,1,16,3,1,63,3,2564,0,0.0956887,6.220757,0.8478836,-1
18,F,0,1,16,4,1,64,4,3409,1,0.1271743,6.339935,1.106238,-1
18,F,0,1,16,5,2,61,1,1520,0,0.9089766,12.18335,4.192925,-1
18,F,0,1,16,6,2,62,2,1120,0,0.07279115,12.38822,0.329838,-1
18,F,0,1,16,7,1,61,1,1587,0,0.2808264,6.236086,2.464978,-1
18,F,0,1,16,8,2,64,4,2053,0,0.6133586,12.37604,2.764209,-1
18,F,0,1,17,1,4,65,1,5653,4,0.9078378,12.10994,4.273152,-1
18,F,0,1,17,2,3,67,3,7153,7,0.3984277,6.184869,3.555177,-1
18,F,0,1,17,3,3,65,1,1209,0,0.1085554,6.265831,0.9561348,-1
18,F,0,1,17,4,3,68,4,2875,0,0.346877,6.321548,3.022909,-1
18,F,0,1,17,5,3,66,2,1031,0,0.4160266,6.550325,3.508722,-1
18,F,0,1,17,6,4,67,3,2875,0,3.14776E-07,12.17899,0,-1
18,F,0,1,17,7,4,66,2,6520,9,1.042888,12.3337,4.713431,-1
18,F,0,1,17,8,4,68,4,2209,0,0.8006641,12.38014,3.619094,-1
18,F,0,1,18,1,3,69,1,1398,0,0.3883191,6.259892,3.451789,-1
18,F,0,1,18,2,4,71,3,3075,0,0.4953544,12.14819,2.274775,-1
18,F,0,1,18,3,3,72,4,8531,7,0.2543032,6.331707,2.220261,-1
18,F,0,1,18,4,3,71,3,3065,0,1.635203E-08,6.23439,0,-1
18,F,0,1,18,5,4,70,2,2087,2,0.2400667,12.31695,1.087325,-1
18,F,0,1,18,6,4,69,1,1531,0,0.02006171,12.13266,0.09065409,-1
18,F,0,1,18,7,4,72,4,1798,0,0.6911322,12.35968,3.116715,-1
18,F,0,1,18,8,3,70,2,2409,1,0.09545326,6.517693,0.8045425,-1
18,F,0,1,19,1,4,76,4,3065,1,0.8733011,12.34835,3.935769,-1
18,F,0,1,19,2,3,74,2,5198,9,0.124964,6.49308,1.057399,-1
18,F,0,1,19,3,3,75,3,3820,0,6.614724E-08,6.210654,0,-1
18,F,0,1,19,4,3,73,1,1653,0,0.3894361,6.208939,3.395345,-1
18,F,0,1,19,5,4,75,3,2342,0,0.05100026,12.14442,0.235734,-1
18,F,0,1,19,6,3,76,4,3465,0,0.1709593,6.334902,1.487011,-1
18,F,0,1,19,7,4,73,1,6298,1,0.5359232,12.16717,2.471084,-1
18,F,0,1,19,8,4,74,2,2598,2,0.1669308,12.38065,0.7553698,-1
18,F,0,1,20,1,4,77,1,5264,0,0.2608552,12.21056,1.207394,-1
18,F,0,1,20,2,4,78,2,1798,1,0.0460266,12.33714,0.20842,-1
18,F,0,1,20,3,4,79,3,2909,0,0.2096374,12.12022,0.9655032,-1
18,F,0,1,20,4,4,80,4,2187,0,0.682923,12.34513,3.07549,-1
18,F,0,1,20,5,3,78,2,1653,0,0.22263,6.531153,1.855407,-1
18,F,0,1,20,6,3,77,1,1985,0,0.003402295,6.238626,0.03426402,-1
18,F,0,1,20,7,3,80,4,3542,1,0.09544249,6.319213,0.8204377,-1
18,F,0,1,20,8,3,79,3,3831,1,1.559361E-07,6.252539,0,-1
18,F,0,1,20,1,2,78,2,1220,0,0.4982463,12.39123,2.267708,-1
18,F,0,1,20,2,2,80,4,1698,0,0.600661,12.37454,2.750152,-1
18,F,0,1,20,3,2,77,1,1298,0,0.01938251,12.18121,0.08846933,-1
18,F,0,1,20,4,1,79,3,2653,1,0.4188004,6.2139,3.721312,-1
18,F,0,1,20,5,1,78,2,1798,0,0.3328545,6.539855,2.78755,-1
18,F,0,1,20,6,1,80,4,2219,1,3.582935E-08,6.340179,0,-1
18,F,0,1,20,7,2,79,3,6020,0,0.5850599,12.11218,2.737024,-1
18,F,0,1,20,8,1,77,1,1276,0,0.2367423,6.319601,2.057664,-1
18,F,0,1,21,1,1,84,4,3387,1,0.1202928,6.30353,1.043427,-1
18,F,0,1,21,2,2,82,2,1876,1,0.4864656,12.35579,2.216732,-1
18,F,0,1,21,3,1,81,1,1898,1,1.977886E-07,6.207462,0.01978234,-1
18,F,0,1,21,4,1,83,3,3031,0,0.4444235,6.178996,3.973058,-1
18,F,0,1,21,5,2,84,4,2120,0,0.5136345,12.33989,2.322542,-1
18,F,0,1,21,6,2,81,1,1053,0,0.7635684,12.14542,3.573195,-1
18,F,0,1,21,7,2,83,3,7009,9,0.5904949,12.12901,2.755414,-1
18,F,0,1,21,8,1,82,2,1420,0,0.4687575,6.558266,3.873482,-1
18,F,0,1,22,1,1,85,1,6020,0,0.07043489,6.242419,0.6199199,-1
18,F,0,1,22,2,1,86,2,2387,0,0.4997532,6.542387,4.18596,-1
18,F,0,1,22,3,2,88,4,2465,0,0.863404,12.37824,3.887712,-1
18,F,0,1,22,4,1,87,3,4942,3,0.2788594,6.233892,2.46005,-1
18,F,0,1,22,5,2,86,2,4064,4,0.6684537,12.28044,3.040536,-1
18,F,0,1,22,6,1,88,4,2964,1,0.01726638,6.370558,0.1467098,-1
18,F,0,1,22,7,2,87,3,1931,0,0.2482442,12.21223,1.14141,-1
18,F,0,1,22,8,2,85,1,6053,5,0.8732821,12.0419,4.052846,-1
18,F,0,1,23,1,1,90,2,6187,0,0.375464,6.514855,3.164155,-1
18,F,0,1,23,2,1,89,1,1609,0,0.2710607,6.218165,2.371989,-1
18,F,0,1,23,3,2,92,4,2987,1,0.7091134,12.3483,3.254076,-1
18,F,0,1,23,4,1,91,3,2387,0,0.3106348,6.197067,2.76612,-1
18,F,0,1,23,5,1,92,4,3276,1,0.3015063,6.316599,2.601583,-1
18,F,0,1,23,6,2,89,1,987,0,0.628936,12.15501,2.940181,-1
18,F,0,1,23,7,2,90,2,2009,0,0.5071553,12.36487,2.305202,-1
18,F,0,1,23,8,2,91,3,9999,10,-1,-1,-1,-1
18,F,0,1,24,1,1,93,1,1120,0,0.3116567,6.249517,2.769232,-1
18,F,0,1,24,2,2,95,3,5298,0,0.8633686,12.14979,3.998068,-1
18,F,0,1,24,3,1,94,2,1798,0,0.5493674,6.543563,4.546915,-1
18,F,0,1,24,4,2,93,1,4276,0,4.306054E-08,12.1814,0,-1
18,F,0,1,24,5,2,96,4,2109,0,0.991017,12.37357,4.468307,-1
18,F,0,1,24,6,2,94,2,5275,7,0.4355568,12.36639,1.966923,-1
18,F,0,1,24,7,1,96,4,3631,0,0.5420553,6.338351,4.744334,-1
18,F,0,1,24,8,1,95,3,2976,0,0.3236363,6.217129,2.873171,-1
18,F,0,1,25,1,2,97,1,931,0,1.023509,12.18532,4.776555,-1
18,F,0,1,25,2,1,100,4,2053,0,0.02915383,6.334512,0.2525642,-1
18,F,0,1,25,3,1,99,3,2053,0,0.206731,6.223149,1.801788,-1
18,F,0,1,25,4,2,100,4,2065,1,0.7186112,12.37635,3.243048,-1
18,F,0,1,25,5,2,99,3,1965,0,0.480427,12.15645,2.21735,-1
18,F,0,1,25,6,2,98,2,1465,0,0.8515912,12.38672,3.893751,-1
18,F,0,1,25,7,1,97,1,1754,0,9.972756E-08,6.239223,0,-1
18,F,0,1,25,8,1,98,2,2254,0,0.2268617,6.536382,1.88803,-1
18,F,0,1,26,1,2,103,3,1854,0,0.297495,12.15827,1.376577,-1
18,F,0,1,26,2,2,101,1,1065,0,0.5922447,12.18065,2.762792,-1
18,F,0,1,26,3,2,102,2,4309,5,0.7630395,12.37654,3.466732,-1
18,F,0,1,26,4,2,104,4,2120,1,0.2344968,12.37164,1.060356,-1
18,F,0,1,26,5,1,103,3,2953,1,0.2895831,6.21054,2.572834,-1
18,F,0,1,26,6,1,102,2,2042,0,0.3945233,6.538395,3.305294,-1
18,F,0,1,26,7,1,101,1,1098,0,0.2360003,6.233827,2.055761,-1
18,F,0,1,26,8,1,104,4,2987,1,0.1307061,6.332532,1.127438,-1
18,F,0,1,27,1,1,107,3,3142,1,2.976469E-07,6.202651,0,-1
18,F,0,1,27,2,2,108,4,2076,0,0.9212607,12.36662,4.15176,-1
18,F,0,1,27,3,2,107,3,2453,0,0.5993775,12.14369,2.793793,-1
18,F,0,1,27,4,2,105,1,1120,0,0.2372887,12.16701,1.099139,-1
18,F,0,1,27,5,2,106,2,1253,0,0.7944002,12.38077,3.597334,-1
18,F,0,1,27,6,1,108,4,3165,0,0.4535641,6.331995,3.972664,-1
18,F,0,1,27,7,1,106,2,5720,0,0.03189495,6.538173,0.2676108,-1
18,F,0,1,27,8,1,105,1,1220,0,0.2185023,6.23182,1.906494,-1
18,F,0,1,28,1,2,112,4,3997,1,0.7339574,12.36815,3.30855,-1
18,F,0,1,28,2,1,109,1,1320,1,0.4579576,6.233657,4.049269,-1
18,F,0,1,28,3,2,110,2,1365,1,0.1942887,12.37642,0.8789325,-1
18,F,0,1,28,4,1,112,4,2620,0,1.412899E-07,6.33701,0,-1
18,F,0,1,28,5,2,111,3,2064,0,0.8687252,12.14627,4.070012,-1
18,F,0,1,28,6,1,110,2,1487,0,0.3426436,6.528326,2.874601,-1
18,F,0,1,28,7,2,109,1,1576,0,0.8024487,12.1667,3.689235,-1
18,F,0,1,28,8,1,111,3,2331,0,0.246334,6.211899,2.187849,-1
18,F,0,1,29,1,1,116,4,2731,0,0.08319654,6.333544,0.7225344,-1
18,F,0,1,29,2,1,115,3,2764,1,0.153166,6.202826,1.339107,-1
18,F,0,1,29,3,2,116,4,2520,0,0.7737568,12.36695,3.493567,-1
18,F,0,1,29,4,2,115,3,2376,0,0.2087241,12.14961,0.9669209,-1
18,F,0,1,29,5,2,113,1,1331,0,0.2719268,12.17568,1.26145,-1
18,F,0,1,29,6,2,114,2,1342,1,3.834116E-07,12.37777,0,-1
18,F,0,1,29,7,1,113,1,876,0,0.2108879,6.238063,1.846102,-1
18,F,0,1,29,8,1,114,2,4920,0,0.4752795,6.537181,3.973009,-1
18,F,0,1,30,1,1,119,3,3542,0,0.04308125,6.235525,0.3789758,-1
18,F,0,1,30,2,2,120,4,2564,1,0.5617086,12.38195,2.539986,-1
18,F,0,1,30,3,1,117,1,1320,0,0.1445338,6.248128,1.257566,-1
18,F,0,1,30,4,1,118,2,1831,0,0.258521,6.547511,2.162203,-1
18,F,0,1,30,5,2,117,1,1609,0,0.8384225,12.18714,3.924608,-1
18,F,0,1,30,6,1,120,4,2165,0,0.1273861,6.346253,1.090381,-1
18,F,0,1,30,7,2,119,3,2265,0,0.5530567,12.16793,2.562008,-1
18,F,0,1,30,8,2,118,2,1798,1,1.012643,12.39535,4.571576,-1
18,F,0,1,31,1,1,124,4,3064,0,0.1689925,6.348279,1.460855,-1
18,F,0,1,31,2,2,121,1,1942,1,5.533013E-08,12.17909,0,-1
18,F,0,1,31,3,1,122,2,1720,0,0.3717482,6.539937,3.113573,-1
18,F,0,1,31,4,1,123,3,3809,1,2.623419E-07,6.215979,0.01978234,-1
18,F,0,1,31,5,2,122,2,1376,1,0.4213095,12.38945,1.899604,-1
18,F,0,1,31,6,1,121,1,2409,1,0.3289088,6.22326,2.886426,-1
18,F,0,1,31,7,2,124,4,3231,0,0.6570927,12.37951,2.992186,-1
18,F,0,1,31,8,2,123,3,2898,0,0.6864586,12.16689,3.196717,-1
18,F,0,1,32,1,1,125,1,2031,1,5.863894E-08,6.223388,0,-1
18,F,0,1,32,2,1,126,2,7642,0,0.1076949,6.542562,0.8972207,-1
18,F,0,1,32,3,2,128,4,2120,0,0.7134763,12.38049,3.213027,-1
18,F,0,1,32,4,2,127,3,2420,0,0.4412408,12.16822,2.036055,-1
18,F,0,1,32,5,1,128,4,2387,0,0.3011521,6.341868,2.605793,-1
18,F,0,1,32,6,2,125,1,1031,0,0.4806063,12.18663,2.23992,-1
18,F,0,1,32,7,2,126,2,953,0,0.5662165,12.39358,2.597592,-1
18,F,0,1,32,8,1,127,3,2387,0,0.2385199,6.218745,2.115629,-1
18,F,0,1,33,1,2,132,4,2109,0,0.8490852,12.38778,3.884991,-1
18,F,0,1,33,2,2,131,3,3964,0,0.9923247,12.17724,4.550059,-1
18,F,0,1,33,3,2,129,1,1309,0,0.4465409,12.19861,2.049468,-1
18,F,0,1,33,4,1,131,3,2653,0,1.352469E-07,6.222657,0,-1
18,F,0,1,33,5,1,129,1,4775,0,0.3533257,6.249102,3.097056,-1
18,F,0,1,33,6,2,130,2,909,0,0.5389282,12.39053,2.432204,-1
18,F,0,1,33,7,1,132,4,3376,1,0.1105893,6.342416,0.9530601,-1
18,F,0,1,33,8,1,130,2,2431,2,0.5024913,6.545269,4.245425,-1
18,F,0,1,34,1,2,136,4,2098,1,0.6523082,12.37849,2.98603,-1
18,F,0,1,34,2,1,133,1,909,0,0.1493555,6.241161,1.319824,-1
18,F,0,1,34,3,2,135,3,1798,0,0.2971543,12.16259,1.376435,-1
18,F,0,1,34,4,2,134,2,898,0,0.8930926,12.39299,4.026036,-1
18,F,0,1,34,5,1,135,3,2798,0,0.1960756,6.219859,1.709835,-1
18,F,0,1,34,6,1,136,4,3298,1,0.2002933,6.344831,1.749659,-1
18,F,0,1,34,7,2,133,1,1176,0,0.002956492,12.18711,0.01978234,-1
18,F,0,1,34,8,1,134,2,4653,0,0.3660253,6.539032,3.036736,-1
18,F,0,1,35,1,2,139,3,2298,0,0.6139992,12.16679,2.815846,-1
18,F,0,1,35,2,2,140,4,3331,2,0.8837541,12.37814,3.979264,-1
18,F,0,1,35,3,1,138,2,2009,2,0.06617961,6.541321,0.5528469,-1
18,F,0,1,35,4,1,140,4,2831,1,0.241744,6.344074,2.100496,-1
18,F,0,1,35,5,2,137,1,1653,1,0.4537783,12.17796,2.089753,-1
18,F,0,1,35,6,2,138,2,931,0,0.7439649,12.38822,3.387609,-1
18,F,0,1,35,7,1,137,1,2976,0,0.01616163,6.238708,0.1412742,-1
18,F,0,1,35,8,1,139,3,3064,1,4.002107E-08,6.221612,0,-1
18,F,0,1,37,1,3,145,1,3309,0,0.4575771,6.211964,4.080584,-1
18,F,0,1,37,2,4,147,3,3009,0,0.3152106,12.12703,1.445504,-1
18,F,0,1,37,3,4,148,4,2153,0,0.8984861,12.38907,4.052024,-1
18,F,0,1,37,4,4,146,2,1164,1,0.6991856,12.39438,3.209247,-1
18,F,0,1,37,5,3,147,3,3309,0,0.02839078,6.227005,0.249446,-1
18,F,0,1,37,6,3,146,2,4876,0,0.4483754,6.543928,3.738112,-1
18,F,0,1,37,7,3,148,4,3331,1,0.10113,6.320572,0.8742447,-1
18,F,0,1,37,8,4,145,1,2309,0,0.1639704,12.21212,0.7579558,-1
18,F,0,1,38,1,3,150,2,1609,1,0.3082077,6.555926,2.563612,-1
18,F,0,1,38,2,3,151,3,2820,0,0.3698825,6.228869,3.276022,-1
18,F,0,1,38,3,4,150,2,1553,0,0.944829,12.37642,4.255561,-1
18,F,0,1,38,4,4,149,1,1065,0,0.7686354,12.16261,3.569906,-1
18,F,0,1,38,5,4,152,4,1920,0,0.6147885,12.35503,2.817653,-1
18,F,0,1,38,6,3,149,1,1420,0,0.1220555,6.280631,1.061278,-1
18,F,0,1,38,7,4,151,3,4787,5,0.9392649,12.16727,4.395118,-1
18,F,0,1,38,8,3,152,4,2476,0,0.2422535,6.360974,2.08544,-1
18,F,0,1,39,1,4,155,3,2331,0,0.3495606,12.18149,1.60876,-1
18,F,0,1,39,2,4,154,2,1742,1,0.904897,12.37493,4.075926,-1
18,F,0,1,39,3,4,156,4,2720,0,0.9921724,12.39212,4.468307,-1
18,F,0,1,39,4,3,154,2,1509,1,0.5481402,6.545968,4.589195,-1
18,F,0,1,39,5,4,153,1,3842,0,0.2428445,12.22362,1.116099,-1
18,F,0,1,39,6,3,155,3,3365,1,2.298084E-07,6.281532,0,-1
18,F,0,1,39,7,3,156,4,2708,0,0.1907188,6.366849,1.635542,-1
18,F,0,1,39,8,3,153,1,1509,0,0.2682229,6.217257,2.333136,-1
18,F,0,1,40,1,3,158,2,1242,0,0.2331437,6.543725,1.949533,-1
18,F,0,1,40,2,4,157,1,9999,0,-1,-1,-1,-1
18,F,0,1,40,3,3,160,4,3009,1,0.299538,6.372162,2.57367,-1
18,F,0,1,40,4,4,158,2,1376,1,0.8460312,12.39472,3.81834,-1
18,F,0,1,40,5,4,160,4,1976,0,0.6919415,12.35393,3.120293,-1
18,F,0,1,40,6,4,159,3,1776,0,0.9237564,12.19954,4.235171,-1
18,F,0,1,40,7,3,157,1,1076,0,0.2129866,6.211257,1.848962,-1
18,F,0,1,40,8,3,159,3,5620,7,0.4955996,6.215768,4.323728,-1
18,F,0,1,41,1,1,161,1,4098,1,0.4395436,6.213836,3.955225,-1
18,F,0,1,41,2,2,163,3,3420,3,0.6615402,12.12607,3.091235,-1
18,F,0,1,41,3,2,162,2,976,0,0.4007588,12.38386,1.816069,-1
18,F,0,1,41,4,1,163,3,3075,1,0.1060094,6.216415,0.9352362,-1
18,F,0,1,41,5,1,164,4,2675,0,0.2911775,6.345412,2.518006,-1
18,F,0,1,41,6,2,161,1,2576,0,1.015674,12.13898,4.776842,-1
18,F,0,1,41,7,1,162,2,1820,0,6.767831E-08,6.530644,0,-1
18,F,0,1,41,8,2,164,4,1898,0,0.8963401,12.38412,4.102601,-1
18,F,0,1,42,1,1,167,3,3442,1,0.1283237,6.206839,1.139695,-1
18,F,0,1,42,2,2,168,4,1765,0,0.3158374,12.39347,1.424503,-1
18,F,0,1,42,3,1,166,2,2509,1,0.2592635,6.524474,2.175739,-1
18,F,0,1,42,4,2,167,3,1865,0,0.3521992,12.15928,1.633027,-1
18,F,0,1,42,5,1,165,1,6109,0,0.2775083,6.226768,2.460527,-1
18,F,0,1,42,6,2,166,2,1587,1,0.01290953,12.38021,0.05595291,-1
18,F,0,1,42,7,2,165,1,2087,1,0.8620325,12.16934,3.980002,-1
18,F,0,1,42,8,1,168,4,3197,1,0.02328046,6.351375,0.2007689,-1
18,F,0,1,43,1,1,171,3,2642,0,0.08187519,6.223963,0.7160051,-1
18,F,0,1,43,2,1,170,2,7231,0,0.08152881,6.519251,0.6841414,-1
18,F,0,1,43,3,2,169,1,3198,1,0.6878203,12.13276,3.180139,-1
18,F,0,1,43,4,2,171,3,1520,0,0.9916038,12.15269,4.555737,-1
18,F,0,1,43,5,2,172,4,1953,1,0.734629,12.36642,3.355847,-1
18,F,0,1,43,6,2,170,2,1065,0,0.7665794,12.3734,3.497936,-1
18,F,0,1,43,7,1,169,1,1387,0,0.307326,6.21591,2.74224,-1
18,F,0,1,43,8,1,172,4,2308,0,9.741566E-08,6.335213,0,-1
18,F,0,1,44,1,2,174,2,865,0,0.6085073,12.3771,2.767323,-1
18,F,0,1,44,2,2,176,4,2765,0,0.6078,12.37557,2.766828,-1
18,F,0,1,44,3,1,175,3,3676,0,0.2520953,6.212704,2.239046,-1
18,F,0,1,44,4,1,173,1,1042,0,0.1887445,6.220931,1.655285,-1
18,F,0,1,44,5,2,175,3,2342,0,0.3934734,12.15159,1.818115,-1
18,F,0,1,44,6,2,173,1,1076,0,0.4085312,12.16013,1.884191,-1
18,F,0,1,44,7,1,176,4,2498,1,6.608245E-08,6.341548,0,-1
18,F,0,1,44,8,1,174,2,2009,1,9.942116E-08,6.520645,0,-1
18,F,0,1,45,1,2,180,4,2153,0,0.5284669,12.37428,2.382938,-1
18,F,0,1,45,2,1,179,3,2142,0,0.4806753,6.216842,4.267694,-1
18,F,0,1,45,3,1,178,2,2342,1,0.04751033,6.5158,0.4010509,-1
18,F,0,1,45,4,2,179,3,2576,0,0.1103539,12.15282,0.5120549,-1
18,F,0,1,45,5,2,178,2,1331,0,0.4686732,12.37236,2.123569,-1
18,F,0,1,45,6,2,177,1,1020,0,0.09637272,12.16275,0.4449939,-1
18,F,0,1,45,7,1,180,4,2109,0,0.3804279,6.344972,3.325018,-1
18,F,0,1,45,8,1,177,1,1531,0,0.1098515,6.22194,0.9673254,-1
18,F,0,1,46,1,1,182,2,2420,2,0.4479184,6.524875,3.823362,-1
18,F,0,1,46,2,1,183,3,2431,0,0.3959168,6.221859,3.510842,-1
18,F,0,1,46,3,1,181,1,1242,0,0.3742576,6.226609,3.283066,-1
18,F,0,1,46,4,1,184,4,2531,1,0.3606472,6.33896,3.100341,-1
18,F,0,1,46,5,2,183,3,2198,0,0.1543882,12.16032,0.7102429,-1
18,F,0,1,46,6,2,181,1,1065,0,0.1828172,12.16282,0.8423266,-1
18,F,0,1,46,7,2,184,4,1997,0,0.6948422,12.37167,3.142363,-1
18,F,0,1,46,8,2,182,2,742,0,0.8272359,12.37333,3.739788,-1
18,F,0,1,47,1,2,185,1,1209,0,0.9871434,12.16562,4.538852,-1
18,F,0,1,47,2,1,188,4,2653,0,1.582958E-07,6.345259,0.01978234,-1
18,F,0,1,47,3,2,187,3,1731,0,0.7304295,12.15544,3.403811,-1
18,F,0,1,47,4,2,186,2,1431,1,0.4370927,12.37402,1.976452,-1
18,F,0,1,47,5,1,185,1,1698,1,0.2900518,6.215494,2.535204,-1
18,F,0,1,47,6,1,187,3,2531,1,0.3926873,6.209597,3.431252,-1
18,F,0,1,47,7,2,188,4,4153,3,0.2235221,12.3915,1.016641,-1
18,F,0,1,47,8,1,186,2,1598,1,0.06803313,6.536917,0.5695826,-1
18,F,0,1,48,1,1,189,1,3209,0,0.1996773,6.221797,1.766136,-1
18,F,0,1,48,2,2,191,3,2353,0,0.5182652,12.14699,2.395063,-1
18,F,0,1,48,3,1,192,4,2242,1,0.2280215,6.340812,1.993313,-1
18,F,0,1,48,4,2,190,2,954,0,0.806041,12.37509,3.6983,-1
18,F,0,1,48,5,2,192,4,2298,0,0.7263349,12.37318,3.305945,-1
18,F,0,1,48,6,2,189,1,1476,0,0.1578142,12.16349,0.7273927,-1
18,F,0,1,48,7,1,190,2,2387,2,0.2087207,6.518765,1.741924,-1
18,F,0,1,48,8,1,191,3,3276,0,0.2635064,6.220441,2.328938,-1
18,F,0,1,49,1,2,193,1,6519,7,0.2242307,12.19787,1.037032,-1
18,F,0,1,49,2,1,196,4,2465,0,0.2554329,6.37464,2.18077,-1
18,F,0,1,49,3,1,194,2,1842,0,0.3308888,6.542351,2.769727,-1
18,F,0,1,49,4,1,195,3,1731,0,0.4322022,6.242375,3.82326,-1
18,F,0,1,49,5,2,194,2,1487,1,0.9333228,12.39531,4.212776,-1
18,F,0,1,49,6,2,196,4,2498,0,0.1438804,12.38735,0.6501176,-1
18,F,0,1,49,7,2,195,3,2631,0,0.3579674,12.17362,1.660479,-1
18,F,0,1,49,8,1,193,1,1298,0,1.608029E-07,6.236976,0,-1
18,F,0,1,50,1,1,200,4,3009,1,3.40709E-08,6.364896,0,-1
18,F,0,1,50,2,2,198,2,1220,0,0.8981829,12.39501,4.058689,-1
18,F,0,1,50,3,1,199,3,4020,0,1.190863E-07,6.230922,0.01978234,-1
18,F,0,1,50,4,1,198,2,2909,1,0.4067576,6.525237,3.379103,-1
18,F,0,1,50,5,2,200,4,2520,0,0.9581075,12.39051,4.349741,-1
18,F,0,1,50,6,2,197,1,1131,0,0.100436,12.18067,0.4622481,-1
18,F,0,1,50,7,2,199,3,2642,0,9.882772E-08,12.17813,0,-1
18,F,0,1,50,8,1,197,1,1475,0,0.1333283,6.23529,1.178026,-1
18,F,0,1,51,1,1,204,4,2498,0,0.3815945,6.366151,3.266746,-1
18,F,0,1,51,2,2,201,1,1098,0,6.630602E-08,12.18623,0,-1
18,F,0,1,51,3,2,202,2,1009,0,0.6923554,12.38946,3.122927,-1
18,F,0,1,51,4,1,203,3,2631,0,0.1019073,6.241,0.8954742,-1
18,F,0,1,51,5,1,201,1,1431,0,0.1498172,6.229993,1.322934,-1
18,F,0,1,51,6,2,203,3,2153,0,0.03176492,12.17185,0.1467098,-1
18,F,0,1,51,7,1,202,2,1843,0,0.3053606,6.531156,2.560173,-1
18,F,0,1,51,8,2,204,4,2231,0,0.7325028,12.38977,3.314816,-1
18,F,0,1,52,1,2,206,2,942,0,0.9120954,12.39058,4.155673,-1
18,F,0,1,52,2,1,205,1,1331,0,0.1840799,6.226772,1.631589,-1
18,F,0,1,52,3,1,206,2,1531,0,0.488631,6.532779,4.097825,-1
18,F,0,1,52,4,2,208,4,1653,0,0.7954913,12.39544,3.636958,-1
18,F,0,1,52,5,2,207,3,2365,0,0.0490991,12.17275,0.2264194,-1
18,F,0,1,52,6,1,208,4,3242,1,0.4373746,6.358819,3.815005,-1
18,F,0,1,52,7,2,205,1,1354,0,0.4818965,12.19039,2.211251,-1
18,F,0,1,52,8,1,207,3,2898,0,0.0958581,6.233703,0.842791,-1
18,F,0,1,53,1,2,209,1,920,0,0.5920553,12.18575,2.759531,-1
18,F,0,1,53,2,2,210,2,876,0,0.8441586,12.38232,3.815261,-1
18,F,0,1,53,3,2,211,3,1609,0,0.3996705,12.18209,1.856251,-1
18,F,0,1,53,4,1,209,1,3064,0,0.0709896,6.234297,0.6283845,-1
18,F,0,1,53,5,1,210,2,5464,0,0.4390981,6.53226,3.675729,-1
18,F,0,1,53,6,1,212,4,2020,1,0.2478659,6.363844,2.159214,-1
18,F,0,1,53,7,1,211,3,3020,0,0.4317789,6.243873,3.818647,-1
18,F,0,1,53,8,2,212,4,1664,0,0.4008131,12.39463,1.806236,-1
18,F,0,1,54,1,1,215,3,2498,1,0.4501699,6.24427,3.980789,-1
18,F,0,1,54,2,2,216,4,1853,0,0.5205715,12.39588,2.343431,-1
18,F,0,1,54,3,2,215,3,9999,0,-1,-1,-1,-1
18,F,0,1,54,4,1,216,4,2909,1,0.2955868,6.365673,2.574583,-1
18,F,0,1,54,5,1,214,2,1531,0,0.498779,6.525101,4.139099,-1
18,F,0,1,54,6,1,213,1,1376,0,0.2393951,6.228395,2.098724,-1
18,F,0,1,54,7,2,214,2,2564,1,0.9866661,12.38406,4.458038,-1
18,F,0,1,54,8,2,213,1,1276,0,0.6276879,12.1828,2.879568,-1
18,F,0,1,55,1,2,220,4,2664,0,0.07218944,12.3913,0.3262592,-1
18,F,0,1,55,2,1,217,1,1476,0,6.969889E-08,6.231127,0,-1
18,F,0,1,55,3,1,219,3,3097,1,0.1091732,6.239157,0.9657058,-1
18,F,0,1,55,4,1,220,4,2276,1,0.02484799,6.369003,0.2130625,-1
18,F,0,1,55,5,2,219,3,2364,0,1.391656E-07,12.17894,0,-1
18,F,0,1,55,6,1,218,2,6276,0,0.4337387,6.546709,3.629629,-1
18,F,0,1,55,7,2,217,1,931,0,1.03691,12.18818,4.773971,-1
18,F,0,1,55,8,2,218,2,1464,0,0.9083769,12.39213,4.101073,-1
18,F,0,1,56,1,1,223,3,3709,4,0.483132,6.248108,4.284549,-1
18,F,0,1,56,2,2,221,1,942,0,1.817975E-08,12.18983,0,-1
18,F,0,1,56,3,1,222,2,2509,2,0.540219,6.519911,4.539974,-1
18,F,0,1,56,4,1,221,1,1009,0,0.4590416,6.223998,4.014346,-1
18,F,0,1,56,5,2,223,3,2775,0,0.07908485,12.18439,0.364769,-1
18,F,0,1,56,6,2,224,4,2553,1,0.9156694,12.39692,4.186708,-1
18,F,0,1,56,7,2,222,2,764,0,0.2920635,12.39108,1.320269,-1
18,F,0,1,56,8,1,224,4,2720,0,0.2360495,6.37238,2.028833,-1
18,F,0,1,57,1,4,227,3,3287,0,0.7909452,12.17972,3.673598,-1
18,F,0,1,57,2,3,226,2,1298,0,0.309411,6.503009,2.574126,-1
18,F,0,1,57,3,3,228,4,2464,1,0.4090073,6.375274,3.528199,-1
18,F,0,1,57,4,4,225,1,3920,0,0.3339365,12.15416,1.534166,-1
18,F,0,1,57,5,4,226,2,975,0,0.5906768,12.34798,2.657928,-1
18,F,0,1,57,6,3,225,1,1431,1,0.5078591,6.227219,4.380164,-1
18,F,0,1,57,7,4,228,4,1886,0,0.4980764,12.42431,2.243325,-1
18,F,0,1,57,8,3,227,3,2353,0,3.533E-08,6.262119,0,-1
18,F,0,1,58,1,4,229,1,1675,1,0.7258977,12.22791,3.33912,-1
18,F,0,1,58,2,4,232,4,1942,0,0.7821924,12.39783,3.515691,-1
18,F,0,1,58,3,3,231,3,2342,0,0.306327,6.294887,2.694063,-1
18,F,0,1,58,4,4,230,2,1674,1,0.8675918,12.39178,3.959333,-1
18,F,0,1,58,5,3,232,4,3120,1,0.2225713,6.373174,1.906083,-1
18,F,0,1,58,6,4,231,3,2209,0,0.9421678,12.18473,4.357839,-1
18,F,0,1,58,7,3,229,1,1431,1,0.4925711,6.259562,4.31316,-1
18,F,0,1,58,8,3,230,2,2131,1,0.3396426,6.537595,2.855676,-1
18,F,0,1,59,1,4,236,4,1898,0,0.8475037,12.39229,3.806218,-1
18,F,0,1,59,2,4,233,1,9553,0,0.7973059,12.19412,3.713253,-1
18,F,0,1,59,3,4,235,3,9999,0,-1,-1,-1,-1
18,F,0,1,59,4,3,236,4,4098,1,0.2546315,6.367484,2.196063,-1
18,F,0,1,59,5,4,234,2,1242,1,0.5248232,12.39243,2.368273,-1
18,F,0,1,59,6,3,233,1,1165,0,0.3957394,6.233764,3.467804,-1
18,F,0,1,59,7,3,235,3,2620,1,0.2841687,6.250979,2.477492,-1
18,F,0,1,59,8,3,234,2,4387,0,0.4926694,6.523129,4.14992,-1
18,F,0,1,60,1,4,239,3,2742,0,0.3233334,12.14871,1.508828,-1
18,F,0,1,60,2,4,240,4,2742,2,1.029005,12.39822,4.634007,-1
18,F,0,1,60,3,3,239,3,2920,1,0.4757861,6.236076,4.210544,-1
18,F,0,1,60,4,3,237,1,1076,0,1.757553E-07,6.248331,0.01978234,-1
18,F,0,1,60,5,3,238,2,1998,0,0.1089438,6.534191,0.9183452,-1
18,F,0,1,60,6,3,240,4,2242,0,0.236357,6.364038,2.026999,-1
18,F,0,1,60,7,4,238,2,1620,0,0.9269871,12.35739,4.181232,-1
18,F,0,1,60,8,4,237,1,2797,0,0.6340599,12.17376,2.912554,-1
18,F,0,1,61,1,2,244,4,1687,0,0.9105912,12.3876,4.148693,-1
18,F,0,1,61,2,2,241,1,1398,0,0.7464913,12.18902,3.447249,-1
18,F,0,1,61,3,2,243,3,1798,0,0.5591305,12.17681,2.581416,-1
18,F,0,1,61,4,2,242,2,809,0,0.5249746,12.39344,2.408185,-1
18,F,0,1,61,5,1,241,1,8320,0,0.08325114,6.239552,0.7308815,-1
18,F,0,1,61,6,1,243,3,3153,2,0.3224689,6.224547,2.85156,-1
18,F,0,1,61,7,1,244,4,2842,0,0.3979264,6.359404,3.470231,-1
18,F,0,1,61,8,1,242,2,2409,2,0.2336077,6.52784,1.986132,-1
18,F,0,1,62,1,2,248,4,2109,0,0.1048781,12.39121,0.4764233,-1
18,F,0,1,62,2,2,246,2,920,0,0.3245827,12.38848,1.467004,-1
18,F,0,1,62,3,1,247,3,2331,0,1.276687E-07,6.230507,0,-1
18,F,0,1,62,4,2,245,1,1087,0,0.9435282,12.18044,4.359771,-1
18,F,0,1,62,5,1,246,2,1942,2,0.07819605,6.52767,0.6584912,-1
18,F,0,1,62,6,2,247,3,9999,11,-1,-1,-1,-1
18,F,0,1,62,7,1,248,4,2198,0,0.1787883,6.341212,1.542054,-1
18,F,0,1,62,8,1,245,1,1220,0,1.046214E-07,6.23928,0,-1
18,F,0,1,1,1,8,1,1,10052,0,0.1406505,12.13102,0.6504185,-1
18,F,0,1,1,2,7,4,4,3320,0,0.121039,6.342919,1.040234,-1
18,F,0,1,1,3,5,3,3,4198,0,5.864586,6.264546,69.40433,-1
18,F,0,1,1,4,8,2,2,2153,0,6.231592,12.35672,29.96911,-1
18,F,0,1,1,5,6,4,4,1331,0,6.792235,12.39163,33.23888,-1
18,F,0,1,1,6,5,2,2,2131,0,1.279536,6.52411,10.98358,-1
18,F,0,1,1,7,7,1,1,3242,0,6.154027,6.260312,79.42716,-1
18,F,0,1,1,8,8,3,3,3875,0,7.419552,12.14012,37.67341,-1
18,F,0,1,1,9,5,1,1,2698,0,1.018849,6.238854,8.952495,-1
18,F,0,1,1,10,5,4,4,2753,0,0.758746,6.356655,6.630843,-1
18,F,0,1,1,11,6,3,3,4064,0,2.853411,12.17117,13.3943,-1
18,F,0,1,1,12,8,4,4,1009,0,4.747966,12.35851,22.45524,-1
18,F,0,1,1,13,7,2,2,1542,0,2.214483,6.517413,19.05627,-1
18,F,0,1,1,14,6,1,1,1231,0,2.146144,12.18382,10.05921,-1
18,F,0,1,1,15,6,2,2,1887,0,3.312471,12.38623,15.17977,-1
18,F,0,1,1,16,7,3,3,2920,0,4.990038,6.315683,52.11599,-1
18,F,0,1,2,1,5,2,2,876,0,4.168491,6.538392,37.71354,-1
18,F,0,1,2,2,8,3,3,1898,0,2.214631,12.13276,10.42296,-1
18,F,0,1,2,3,5,1,1,2309,0,6.284244,6.285367,88.91646,-1
18,F,0,1,2,4,8,4,4,2753,0,8.960235,12.3484,46.01041,-1
18,F,0,1,2,5,6,2,2,1353,0,3.445216,12.38511,15.84288,-1
18,F,0,1,2,6,6,1,1,1265,0,2.53591,12.18076,11.89148,-1
18,F,0,1,2,7,5,4,4,2176,0,6.433019,6.433019,94.76767,-1
18,F,0,1,2,8,7,2,2,2265,0,6.595399,6.595399,105.2434,-1
18,F,0,1,2,9,8,1,1,1698,0,6.25295,12.1669,30.76269,-1
18,F,0,1,2,10,5,3,3,1287,0,4.892777,6.27091,51.25468,-1
18,F,0,1,2,11,7,1,1,798,0,2.218579,6.21455,19.56436,-1
18,F,0,1,2,12,7,4,4,1531,0,5.023978,6.366482,51.31698,-1
18,F,0,1,2,13,7,3,3,4342,0,0.2705741,6.276933,2.367281,-1
18,F,0,1,2,14,8,2,2,2420,0,7.307993,12.367,36.2228,-1
18,F,0,1,2,15,6,4,4,1731,0,5.480385,12.39443,26.24211,-1
18,F,0,1,2,16,6,3,3,1487,0,2.389751,12.17323,11.01748,-1
