Age, Gender, Awareness Type, Session, Block, Trial, Set, Pattern, Quadrant, Response Time, Num Mistakes, Distance From Target, Camera Distance From Target, Angle Error (Degrees), FC Response
19,M,0,1,1,1,1,1,1,2853,0,3.589773E-08,6.185493,0.01978234,-1
19,M,0,1,1,2,2,2,2,9999,1,-1,-1,-1,-1
19,M,0,1,1,3,2,4,4,2420,0,0.2669213,12.34719,1.208689,-1
19,M,0,1,1,4,2,3,3,8731,1,0.4899112,12.12447,2.26952,-1
19,M,0,1,1,5,1,4,4,3553,0,1.962178E-07,6.349492,0,-1
19,M,0,1,1,6,1,3,3,3208,0,2.039114E-07,6.185621,0,-1
19,M,0,1,1,7,2,1,1,2498,0,0.69426,12.27792,3.152874,-1
19,M,0,1,1,8,1,2,2,1387,0,0.1464611,6.565587,1.215953,-1
19,M,0,1,2,1,1,7,3,2276,0,0.01171874,6.187773,0.1027921,-1
19,M,0,1,2,2,1,8,4,3076,0,0.1583633,6.345603,1.36358,-1
19,M,0,1,2,3,2,5,1,4176,0,0.05573514,12.27901,0.2556444,-1
19,M,0,1,2,4,1,6,2,1287,0,1.648096E-07,6.580747,0,-1
19,M,0,1,2,5,1,5,1,2354,0,0.1299665,6.185272,1.169858,-1
19,M,0,1,2,6,2,8,4,2976,0,0.3336208,12.35205,1.511679,-1
19,M,0,1,2,7,2,6,2,4042,0,0.4005905,12.3852,1.81197,-1
19,M,0,1,2,8,2,7,3,2531,0,0.3323656,12.13652,1.54459,-1
19,M,0,1,3,1,2,9,1,1765,0,0.8072515,12.27888,3.704648,-1
19,M,0,1,3,2,2,10,2,9999,1,-1,-1,-1,-1
19,M,0,1,3,3,2,12,4,2687,1,0.9589484,12.34587,4.400463,-1
19,M,0,1,3,4,2,11,3,2820,0,0.7416777,12.13701,3.473558,-1
19,M,0,1,3,5,1,12,4,2198,0,0.2491395,6.347969,2.133683,-1
19,M,0,1,3,6,1,11,3,3442,0,0.03414768,6.184997,0.3019647,-1
19,M,0,1,3,7,1,9,1,2864,0,0.0160155,6.196919,0.1426525,-1
19,M,0,1,3,8,1,10,2,1820,1,0.5520237,6.57399,4.619655,-1
19,M,0,1,4,1,1,13,1,2298,0,0.3477695,6.187963,3.17262,-1
19,M,0,1,4,2,1,14,2,1542,0,0.1295249,6.581912,1.090381,-1
19,M,0,1,4,3,2,16,4,3698,0,0.540854,12.35619,2.441602,-1
19,M,0,1,4,4,2,14,2,3042,0,2.115136E-07,12.38947,0,-1
19,M,0,1,4,5,1,16,4,1831,0,0.3850656,6.34686,3.292653,-1
19,M,0,1,4,6,2,15,3,6620,1,0.1061011,12.13093,0.4905876,-1
19,M,0,1,4,7,2,13,1,9176,1,0.8106283,12.30358,3.738898,-1
19,M,0,1,4,8,1,15,3,3498,0,0.1238782,6.184014,1.092532,-1
19,M,0,1,5,1,2,20,4,2942,1,0.5765822,12.3582,2.601884,-1
19,M,0,1,5,2,2,19,3,5431,2,0.6624383,12.1413,3.101162,-1
19,M,0,1,5,3,1,20,4,2476,0,0.2604007,6.345525,2.229322,-1
19,M,0,1,5,4,2,18,2,1020,0,0.0975633,12.3934,0.4432315,-1
19,M,0,1,5,5,1,17,1,9999,3,-1,-1,-1,-1
19,M,0,1,5,6,1,19,3,3465,0,1.08474E-07,6.182044,0,-1
19,M,0,1,5,7,1,18,2,2120,0,0.5172776,6.580094,4.415171,-1
19,M,0,1,5,8,2,17,1,1242,0,0.4490321,12.27747,2.060041,-1
19,M,0,1,6,1,2,22,2,2742,0,0.3846147,12.39615,1.756246,-1
19,M,0,1,6,2,1,23,3,2176,0,0.1044542,6.183695,0.9234449,-1
19,M,0,1,6,3,1,22,2,2254,2,0.4314769,6.575454,3.547348,-1
19,M,0,1,6,4,1,24,4,2609,0,0.4586337,6.337527,3.926604,-1
19,M,0,1,6,5,1,21,1,9999,4,-1,-1,-1,-1
19,M,0,1,6,6,2,23,3,6498,0,0.5147163,12.13458,2.400206,-1
19,M,0,1,6,7,2,24,4,2765,0,0.3130571,12.35854,1.414992,-1
19,M,0,1,6,8,2,21,1,3865,0,0.5679046,12.28518,2.619428,-1
19,M,0,1,7,1,2,26,2,1165,0,0.01382767,12.38158,0.05934703,-1
19,M,0,1,7,2,2,28,4,3153,1,0.2900933,12.35551,1.315071,-1
19,M,0,1,7,3,1,26,2,3787,2,0.2134224,6.580419,1.78246,-1
19,M,0,1,7,4,2,27,3,2209,0,0.6504022,12.13749,3.022131,-1
19,M,0,1,7,5,2,25,1,876,0,0.2391245,12.28428,1.091098,-1
19,M,0,1,7,6,1,28,4,2665,1,0.3321685,6.35195,2.83897,-1
19,M,0,1,7,7,1,25,1,3698,0,1.968316E-08,6.192574,0,-1
19,M,0,1,7,8,1,27,3,3920,1,1.126295E-07,6.188476,0,-1
19,M,0,1,8,1,1,29,1,1942,0,0.2489746,6.192181,2.251076,-1
19,M,0,1,8,2,1,32,4,3653,2,0.2965812,6.345988,2.538368,-1
19,M,0,1,8,3,1,31,3,2564,0,0.09665875,6.185864,0.8524867,-1
19,M,0,1,8,4,2,29,1,5676,7,0.4783534,12.26271,2.201315,-1
19,M,0,1,8,5,2,32,4,2420,0,0.5644405,12.35183,2.566816,-1
19,M,0,1,8,6,1,30,2,1887,1,0.2509173,6.582911,2.104777,-1
19,M,0,1,8,7,2,31,3,3175,0,0.4389881,12.13124,2.04306,-1
19,M,0,1,8,8,2,30,2,864,0,0.1252908,12.39797,0.5688952,-1
19,M,0,1,9,1,2,36,4,9999,1,-1,-1,-1,-1
19,M,0,1,9,2,2,34,2,1064,0,0.5670043,12.39315,2.589668,-1
19,M,0,1,9,3,2,35,3,4642,7,0.9065928,12.11632,4.249251,-1
19,M,0,1,9,4,1,34,2,1887,0,0.2549009,6.586541,2.115721,-1
19,M,0,1,9,5,1,35,3,2198,0,0.01642942,6.166184,0.14537,-1
19,M,0,1,9,6,1,33,1,6909,2,0.2750318,6.132299,2.4672,-1
19,M,0,1,9,7,1,36,4,3409,0,0.377739,6.395004,3.250223,-1
19,M,0,1,9,8,2,33,1,1009,0,0.8767496,12.2704,4.051106,-1
19,M,0,1,10,1,2,38,2,631,0,0.8846003,12.37086,4.006484,-1
19,M,0,1,10,2,2,39,3,6642,3,0.8227747,12.09862,3.864827,-1
19,M,0,1,10,3,2,37,1,1342,1,0.3471251,12.28101,1.6012,-1
19,M,0,1,10,4,1,38,2,2887,0,0.3992983,6.577061,3.328255,-1
19,M,0,1,10,5,1,37,1,2642,0,9.891684E-08,6.213231,0.01978234,-1
19,M,0,1,10,6,1,40,4,2031,0,0.2993657,6.389387,2.545913,-1
19,M,0,1,10,7,1,39,3,3509,1,0.3229506,6.233902,2.834623,-1
19,M,0,1,10,8,2,40,4,3309,0,0.9042135,12.36316,4.086387,-1
19,M,0,1,11,1,2,41,1,1220,0,0.2853977,12.28677,1.304613,-1
19,M,0,1,11,2,1,44,4,3642,1,0.1374011,6.386089,1.171863,-1
19,M,0,1,11,3,2,42,2,1531,0,0.5511901,12.39356,2.490651,-1
19,M,0,1,11,4,1,41,1,3343,0,1.366545E-07,6.215205,0,-1
19,M,0,1,11,5,1,43,3,2831,0,2.715093E-07,6.226246,0,-1
19,M,0,1,11,6,1,42,2,4142,2,0.348829,6.579229,2.87024,-1
19,M,0,1,11,7,2,44,4,1631,0,0.5109581,12.36899,2.304947,-1
19,M,0,1,11,8,2,43,3,2653,0,0.179051,12.15815,0.828271,-1
19,M,0,1,12,1,2,45,1,965,0,0.2820675,12.29274,1.293617,-1
19,M,0,1,12,2,2,46,2,642,0,0.591605,12.39245,2.673641,-1
19,M,0,1,12,3,1,48,4,1976,0,0.09113069,6.383867,0.7775803,-1
19,M,0,1,12,4,1,46,2,4420,1,0.374219,6.584865,3.085086,-1
19,M,0,1,12,5,2,47,3,2398,0,0.1899399,12.1595,0.8791551,-1
19,M,0,1,12,6,2,48,4,2031,0,0.8135045,12.36893,3.687642,-1
19,M,0,1,12,7,1,47,3,3520,0,0.2161492,6.222014,1.909674,-1
19,M,0,1,12,8,1,45,1,2898,0,0.1339107,6.20876,1.202033,-1
19,M,0,1,13,1,2,52,4,1954,0,0.300808,12.38064,1.373873,-1
19,M,0,1,13,2,2,51,3,1909,0,0.262903,12.16576,1.217883,-1
19,M,0,1,13,3,1,52,4,2953,1,0.4856999,6.385406,4.168566,-1
19,M,0,1,13,4,1,49,1,7809,5,0.1987684,6.228003,1.772661,-1
19,M,0,1,13,5,1,50,2,3220,1,0.4057973,6.586049,3.378407,-1
19,M,0,1,13,6,1,51,3,1798,0,0.2810603,6.23002,2.463945,-1
19,M,0,1,13,7,2,49,1,1342,0,0.4255485,12.29249,1.947223,-1
19,M,0,1,13,8,2,50,2,964,1,0.3402811,12.39351,1.55356,-1
19,M,0,1,14,1,1,56,4,3231,0,0.475903,6.361377,4.117086,-1
19,M,0,1,14,2,1,53,1,7176,0,1.388637E-07,6.145607,0,-1
19,M,0,1,14,3,1,54,2,2720,0,0.407669,6.58957,3.347611,-1
19,M,0,1,14,4,2,56,4,1853,1,0.3453503,12.37347,1.561225,-1
19,M,0,1,14,5,2,53,1,976,0,0.9562003,12.29875,4.408556,-1
19,M,0,1,14,6,2,55,3,2054,0,0.1079257,12.16392,0.4969283,-1
19,M,0,1,14,7,2,54,2,1120,0,0.4992255,12.39879,2.255246,-1
19,M,0,1,14,8,1,55,3,2276,0,9.904061E-08,6.227104,0,-1
19,M,0,1,15,1,2,57,1,1042,0,0.4912806,12.30447,2.241055,-1
19,M,0,1,15,2,2,59,3,2164,0,5.809652E-08,12.16326,0,-1
19,M,0,1,15,3,2,58,2,842,0,0.2014706,12.40563,0.9084908,-1
19,M,0,1,15,4,2,60,4,1609,1,0.6755129,12.3751,3.046004,-1
19,M,0,1,15,5,1,59,3,2753,1,0.4724855,6.235904,4.159913,-1
19,M,0,1,15,6,1,57,1,3498,0,0.1687145,6.21601,1.515299,-1
19,M,0,1,15,7,1,58,2,1976,0,0.2235659,6.590534,1.84928,-1
19,M,0,1,15,8,1,60,4,2243,0,0.3469911,6.380023,2.99271,-1
19,M,0,1,16,1,2,62,2,909,0,0.2234465,12.39367,1.009494,-1
19,M,0,1,16,2,1,63,3,1598,0,0.03002031,6.255256,0.2631872,-1
19,M,0,1,16,3,1,64,4,3298,1,0.412942,6.407147,3.500678,-1
19,M,0,1,16,4,2,63,3,2531,0,0.4680684,12.1709,2.168982,-1
19,M,0,1,16,5,1,61,1,8365,2,0.498879,6.210468,4.49488,-1
19,M,0,1,16,6,2,64,4,2776,0,1.022551,12.38646,4.712018,-1
19,M,0,1,16,7,2,61,1,1142,0,1.381852E-07,12.28973,0,-1
19,M,0,1,16,8,1,62,2,4453,1,3.475059E-08,6.579185,0,-1
19,M,0,1,17,1,4,67,3,1531,0,0.283903,12.17336,1.305813,-1
19,M,0,1,17,2,3,68,4,3353,0,1.743446E-08,6.411207,0,-1
19,M,0,1,17,3,4,65,1,5131,0,0.1484312,12.32455,0.6746368,-1
19,M,0,1,17,4,4,68,4,2587,0,0.6633989,12.35385,3.013049,-1
19,M,0,1,17,5,4,66,2,931,0,0.3523718,12.34692,1.615921,-1
19,M,0,1,17,6,3,65,1,1697,0,0.293971,6.145155,2.666677,-1
19,M,0,1,17,7,3,66,2,1475,0,0.3264629,6.548183,2.714691,-1
19,M,0,1,17,8,3,67,3,2365,0,0.1501855,6.253341,1.320565,-1
19,M,0,1,18,1,4,70,2,1087,0,0.9874429,12.34143,4.52818,-1
19,M,0,1,18,2,3,72,4,2098,0,0.1503267,6.395693,1.278401,-1
19,M,0,1,18,3,3,71,3,2687,0,0.1081834,6.261692,0.9443973,-1
19,M,0,1,18,4,4,69,1,5842,0,1.007921,12.3417,4.627238,-1
19,M,0,1,18,5,4,72,4,1098,0,0.3363426,12.35561,1.522514,-1
19,M,0,1,18,6,4,71,3,3220,0,0.8099827,12.16834,3.797152,-1
19,M,0,1,18,7,3,70,2,3087,0,0.5284432,6.579071,4.379001,-1
19,M,0,1,18,8,3,69,1,9999,3,-1,-1,-1,-1
19,M,0,1,19,1,3,75,3,3276,0,0.1076454,6.32244,0.9333511,-1
19,M,0,1,19,2,4,73,1,1231,1,0.9155174,12.31124,4.220672,-1
19,M,0,1,19,3,3,76,4,3164,1,0.4664311,6.457192,3.960322,-1
19,M,0,1,19,4,4,74,2,1187,0,5.270449E-08,12.41888,0,-1
19,M,0,1,19,5,4,76,4,898,0,0.6107843,12.41177,2.772129,-1
19,M,0,1,19,6,4,75,3,3520,0,0.8634055,12.22058,3.941487,-1
19,M,0,1,19,7,3,74,2,2398,0,0.2831982,6.555805,2.325994,-1
19,M,0,1,19,8,3,73,1,9999,3,-1,-1,-1,-1
19,M,0,1,20,1,4,80,4,6664,0,0.5391946,12.39859,2.416299,-1
19,M,0,1,20,2,3,78,2,1342,0,0.5452067,6.559038,4.459356,-1
19,M,0,1,20,3,4,79,3,2365,0,0.07948224,12.24679,0.365305,-1
19,M,0,1,20,4,4,77,1,1209,0,0.2609418,12.36739,1.194194,-1
19,M,0,1,20,5,3,80,4,1953,0,0.08758917,6.448699,0.7396637,-1
19,M,0,1,20,6,3,77,1,9076,1,0.01966649,6.221201,0.1735894,-1
19,M,0,1,20,7,4,78,2,797,0,0.7644409,12.37209,3.425427,-1
19,M,0,1,20,8,3,79,3,2909,0,0.3451881,6.351117,2.963921,-1
19,M,0,1,20,1,2,78,2,1642,0,1.007101,12.46951,4.526796,-1
19,M,0,1,20,2,2,77,1,1176,0,0.03965141,12.36726,0.1791368,-1
19,M,0,1,20,3,2,80,4,4309,0,0.6503081,12.53522,2.941579,-1
19,M,0,1,20,4,1,79,3,2976,1,7.874085E-08,6.373949,0,-1
19,M,0,1,20,5,1,78,2,2153,0,0.4417705,6.636454,3.668157,-1
19,M,0,1,20,6,2,79,3,2942,1,0.2331611,12.26107,1.064041,-1
19,M,0,1,20,7,1,80,4,2031,0,0.5233476,6.523479,4.359231,-1
19,M,0,1,20,8,1,77,1,4253,0,0.489313,6.272207,4.366863,-1
19,M,0,1,21,1,1,84,4,2453,0,0.4793253,6.407864,4.061486,-1
19,M,0,1,21,2,2,81,1,931,0,0.9879536,12.30993,4.551694,-1
19,M,0,1,21,3,2,82,2,909,0,0.873819,12.41008,3.991058,-1
19,M,0,1,21,4,1,83,3,1687,0,0.1470511,6.264752,1.284052,-1
19,M,0,1,21,5,1,82,2,3131,1,0.3972796,6.640532,3.246427,-1
19,M,0,1,21,6,1,81,1,3709,0,0.2490366,6.308215,2.210631,-1
19,M,0,1,21,7,2,84,4,2498,1,0.2675976,12.46861,1.200404,-1
19,M,0,1,21,8,2,83,3,2431,0,0.6243587,12.25485,2.879772,-1
19,M,0,1,22,1,1,86,2,2720,0,0.4904887,6.668989,4.047866,-1
19,M,0,1,22,2,1,85,1,3809,0,0.1792571,6.297688,1.570847,-1
19,M,0,1,22,3,1,87,3,2076,0,0.1155567,6.297817,1.003662,-1
19,M,0,1,22,4,2,85,1,9999,12,-1,-1,-1,-1
19,M,0,1,22,5,2,86,2,2831,0,0.08198216,12.45149,0.3706227,-1
19,M,0,1,22,6,1,88,4,1987,0,0.2549311,6.461395,2.16564,-1
19,M,0,1,22,7,2,87,3,1587,0,0.6757959,12.22804,3.141054,-1
19,M,0,1,22,8,2,88,4,5065,3,0.5538586,12.43919,2.481597,-1
19,M,0,1,23,1,1,89,1,3320,0,0.1247491,6.252815,1.112939,-1
19,M,0,1,23,2,2,90,2,5864,0,0.6630673,12.45877,3.017269,-1
19,M,0,1,23,3,1,91,3,2409,0,0.3104315,6.342443,2.683726,-1
19,M,0,1,23,4,1,90,2,1564,1,0.468237,6.651813,3.823208,-1
19,M,0,1,23,5,2,92,4,2076,0,0.5118223,12.47782,2.297718,-1
19,M,0,1,23,6,2,89,1,2020,0,0.2581696,12.35019,1.174032,-1
19,M,0,1,23,7,2,91,3,1798,0,0.966396,12.27539,4.476891,-1
19,M,0,1,23,8,1,92,4,1709,0,0.3340507,6.537888,2.777278,-1
19,M,0,1,24,1,1,95,3,2442,0,2.469755E-07,6.356722,0,-1
19,M,0,1,24,2,1,94,2,2687,2,0.493617,6.756139,4.001593,-1
19,M,0,1,24,3,1,93,1,7498,1,0.2677649,6.370042,2.351769,-1
19,M,0,1,24,4,2,94,2,675,0,0.7245744,12.57014,3.258405,-1
19,M,0,1,24,5,2,95,3,1420,0,0.1518421,12.34283,0.6892704,-1
19,M,0,1,24,6,1,96,4,2164,0,0.332713,6.536458,2.766898,-1
19,M,0,1,24,7,2,93,1,842,0,0.09890317,12.47381,0.4445539,-1
19,M,0,1,24,8,2,96,4,7686,0,0.781755,12.53149,3.491998,-1
19,M,0,1,25,1,1,98,2,1598,1,0.4063844,6.714757,3.303694,-1
19,M,0,1,25,2,1,97,1,2020,0,8.473092E-08,6.336585,0,-1
19,M,0,1,25,3,2,98,2,1987,1,0.7385266,12.48575,3.31824,-1
19,M,0,1,25,4,1,100,4,1909,0,0.2267179,6.535721,1.911108,-1
19,M,0,1,25,5,1,99,3,1931,0,2.075605E-07,6.366176,0,-1
19,M,0,1,25,6,2,100,4,2842,0,0.5832026,12.56768,2.587172,-1
19,M,0,1,25,7,2,97,1,1287,1,0.4306539,12.4406,1.955647,-1
19,M,0,1,25,8,2,99,3,2353,0,0.4451768,12.3258,2.039225,-1
19,M,0,1,26,1,1,104,4,3642,3,2.219371E-07,6.538034,0,-1
19,M,0,1,26,2,2,103,3,1854,0,0.5357568,12.31444,2.461084,-1
19,M,0,1,26,3,2,101,1,1098,0,0.3994034,12.43905,1.805911,-1
19,M,0,1,26,4,2,104,4,9999,2,-1,-1,-1,-1
19,M,0,1,26,5,1,102,2,1309,0,0.2768087,6.740701,2.281047,-1
19,M,0,1,26,6,1,103,3,1442,0,0.03041914,6.357825,0.2609472,-1
19,M,0,1,26,7,2,102,2,1598,0,0.9349664,12.58848,4.211567,-1
19,M,0,1,26,8,1,101,1,3309,0,0.007890415,6.384815,0.06852804,-1
19,M,0,1,27,1,2,107,3,2165,0,0.7838535,12.30365,3.597769,-1
19,M,0,1,27,2,1,108,4,2153,1,0.3577863,6.523055,3.005242,-1
19,M,0,1,27,3,1,107,3,1987,0,0.2773471,6.351138,2.387943,-1
19,M,0,1,27,4,2,106,2,1409,1,0.940252,12.56417,4.243486,-1
19,M,0,1,27,5,2,105,1,2387,1,0.5521399,12.435,2.489314,-1
19,M,0,1,27,6,1,106,2,1887,0,0.5325752,6.773313,4.309617,-1
19,M,0,1,27,7,1,105,1,5509,1,0.230878,6.364573,2.033939,-1
19,M,0,1,27,8,2,108,4,2576,0,0.9376003,12.5513,4.166874,-1
19,M,0,1,28,1,2,109,1,5176,1,1.062523,12.42889,4.851957,-1
19,M,0,1,28,2,2,111,3,1887,0,6.521377E-08,12.32403,0,-1
19,M,0,1,28,3,2,112,4,3498,2,0.263503,12.57564,1.172364,-1
19,M,0,1,28,4,1,110,2,3198,1,0.3498734,6.782461,2.89935,-1
19,M,0,1,28,5,1,112,4,2209,0,0.511908,6.49686,4.298377,-1
19,M,0,1,28,6,1,111,3,1431,0,3.069887E-07,6.329225,0,-1
19,M,0,1,28,7,1,109,1,4387,1,0.4195984,6.35776,3.705969,-1
19,M,0,1,28,8,2,110,2,798,0,0.5979356,12.57942,2.662049,-1
19,M,0,1,29,1,2,113,1,965,0,0.5083467,12.43206,2.318324,-1
19,M,0,1,29,2,1,116,4,4242,3,0.04365638,6.431821,0.3690354,-1
19,M,0,1,29,3,1,115,3,2287,0,0.06309065,6.420903,0.5377761,-1
19,M,0,1,29,4,2,114,2,831,0,0.5507683,12.59995,2.448885,-1
19,M,0,1,29,5,2,116,4,6387,1,0.4911953,12.64396,2.168621,-1
19,M,0,1,29,6,1,114,2,2976,0,0.3984683,6.805814,3.241417,-1
19,M,0,1,29,7,2,115,3,1187,0,0.787672,12.41061,3.608529,-1
19,M,0,1,29,8,1,113,1,4898,0,0.05770183,6.403971,0.501241,-1
19,M,0,1,30,1,2,120,4,4865,0,0.3818089,12.63968,1.688064,-1
19,M,0,1,30,2,2,118,2,1098,0,0.3312353,12.60377,1.474588,-1
19,M,0,1,30,3,1,120,4,3653,0,0.4576319,6.64175,3.745229,-1
19,M,0,1,30,4,1,117,1,4665,1,0.4985301,6.394269,4.370316,-1
19,M,0,1,30,5,2,119,3,1565,0,1.048651,12.39845,4.811615,-1
19,M,0,1,30,6,2,117,1,9831,12,0.4068312,12.40273,1.859622,-1
19,M,0,1,30,7,1,118,2,2853,0,0.5752892,6.753654,4.756788,-1
19,M,0,1,30,8,1,119,3,1820,0,0.1400987,6.387346,1.20431,-1
19,M,0,1,31,1,1,124,4,2187,0,0.4891436,6.560221,4.048543,-1
19,M,0,1,31,2,1,122,2,1309,0,0.438931,6.771282,3.636796,-1
19,M,0,1,31,3,1,123,3,2364,1,0.07797487,6.389452,0.6693957,-1
19,M,0,1,31,4,2,121,1,2242,1,0.4456048,12.42722,2.004279,-1
19,M,0,1,31,5,2,123,3,1931,0,1.121797E-07,12.36011,0,-1
19,M,0,1,31,6,2,122,2,1698,1,0.7439671,12.58533,3.310147,-1
19,M,0,1,31,7,1,121,1,3565,0,1.19483E-07,6.371722,0,-1
19,M,0,1,31,8,2,124,4,4265,1,0.8458981,12.61043,3.74162,-1
19,M,0,1,32,1,2,125,1,2209,1,0.2793163,12.45598,1.259587,-1
19,M,0,1,32,2,1,126,2,2842,1,0.3734666,6.815536,3.07103,-1
19,M,0,1,32,3,1,128,4,2431,1,0.4971311,6.572274,4.14704,-1
19,M,0,1,32,4,1,125,1,5298,1,0.3445568,6.315812,3.026727,-1
19,M,0,1,32,5,2,126,2,1142,0,0.9431892,12.52019,4.222017,-1
19,M,0,1,32,6,2,127,3,1965,0,0.8697576,12.38167,3.993657,-1
19,M,0,1,32,7,2,128,4,3787,0,0.623967,12.62691,2.755414,-1
19,M,0,1,32,8,1,127,3,3665,0,0.05081666,6.481345,0.427501,-1
19,M,0,1,33,1,1,130,2,2187,0,0.2338142,6.75497,1.884295,-1
19,M,0,1,33,2,1,129,1,4087,0,0.2227477,6.405062,1.950637,-1
19,M,0,1,33,3,1,132,4,2042,0,0.2942845,6.581196,2.433411,-1
19,M,0,1,33,4,2,131,3,2442,0,0.09966916,12.36633,0.4528397,-1
19,M,0,1,33,5,2,132,4,5476,4,0.7336179,12.57313,3.253655,-1
19,M,0,1,33,6,2,130,2,9999,3,-1,-1,-1,-1
19,M,0,1,33,7,1,131,3,1754,0,0.4904996,6.439869,4.163065,-1
19,M,0,1,33,8,2,129,1,776,0,0.3653841,12.47057,1.636021,-1
19,M,0,1,34,1,1,134,2,9999,12,-1,-1,-1,-1
19,M,0,1,34,2,2,136,4,1442,0,0.8461317,12.58492,3.832519,-1
19,M,0,1,34,3,2,135,3,3397,0,0.2113322,12.35661,0.9636774,-1
19,M,0,1,34,4,2,133,1,1209,0,0.3340744,12.48178,1.516848,-1
19,M,0,1,34,5,1,135,3,1664,0,0.23825,6.33627,2.060611,-1
19,M,0,1,34,6,2,134,2,2187,0,0.4472417,12.32947,2.053666,-1
19,M,0,1,34,7,1,133,1,2909,0,0.2222151,6.322545,1.948127,-1
19,M,0,1,34,8,1,136,4,1798,1,0.4855466,6.555602,4.062691,-1
19,M,0,1,35,1,1,137,1,5265,0,1.725607E-07,6.328841,0,-1
19,M,0,1,35,2,2,139,3,1920,1,0.9773139,12.30453,4.516486,-1
19,M,0,1,35,3,1,140,4,2798,1,0.1442499,6.555999,1.202359,-1
19,M,0,1,35,4,2,137,1,4575,4,0.8801955,12.38187,4.026523,-1
19,M,0,1,35,5,2,138,2,1142,0,0.8550352,12.50304,3.877675,-1
19,M,0,1,35,6,2,140,4,4331,3,0.3226027,12.53589,1.437766,-1
19,M,0,1,35,7,1,139,3,3398,0,0.3532845,6.384669,3.030476,-1
19,M,0,1,35,8,1,138,2,1976,1,0.4927304,6.679646,4.015419,-1
19,M,0,1,37,1,3,147,3,2320,0,0.3464383,6.41309,2.960286,-1
19,M,0,1,37,2,3,148,4,2253,0,0.008017754,6.590611,0.06852804,-1
19,M,0,1,37,3,4,146,2,2775,0,0.8291401,12.48161,3.775431,-1
19,M,0,1,37,4,3,145,1,1809,0,0.4982152,6.269228,4.335986,-1
19,M,0,1,37,5,4,148,4,1398,0,0.9406127,12.56152,4.195027,-1
19,M,0,1,37,6,4,145,1,1576,0,0.9632477,12.38825,4.417299,-1
19,M,0,1,37,7,3,146,2,9887,3,0.1776673,6.635331,1.450099,-1
19,M,0,1,37,8,4,147,3,6887,0,1.057001,12.3772,4.819548,-1
19,M,0,1,38,1,3,152,4,2775,0,0.149054,6.572469,1.243325,-1
19,M,0,1,38,2,3,150,2,4742,1,0.2934503,6.68406,2.401185,-1
19,M,0,1,38,3,3,151,3,2442,0,0.5463194,6.422314,4.70736,-1
19,M,0,1,38,4,4,150,2,1365,0,0.6481077,12.43167,2.934449,-1
19,M,0,1,38,5,4,149,1,1342,0,0.0569256,12.37496,0.2571706,-1
19,M,0,1,38,6,4,151,3,3064,0,0.3040276,12.33383,1.393812,-1
19,M,0,1,38,7,3,149,1,5131,0,0.004788342,6.305769,0.04423466,-1
19,M,0,1,38,8,4,152,4,2309,1,0.2593215,12.5637,1.157413,-1
19,M,0,1,39,1,4,153,1,1631,0,4.252353E-08,12.39249,0,-1
19,M,0,1,39,2,4,154,2,1264,0,0.4170311,12.49412,1.87043,-1
19,M,0,1,39,3,4,156,4,4609,0,0.1950011,12.57373,0.8713301,-1
19,M,0,1,39,4,4,155,3,2076,0,0.5928271,12.38014,2.687151,-1
19,M,0,1,39,5,3,154,2,1797,1,0.521452,6.654402,4.24441,-1
19,M,0,1,39,6,3,156,4,1742,0,0.2035322,6.579994,1.707544,-1
19,M,0,1,39,7,3,155,3,3098,1,0.2483977,6.411058,2.112203,-1
19,M,0,1,39,8,3,153,1,5531,0,0.3984,6.310979,3.549114,-1
19,M,0,1,40,1,4,160,4,1865,0,0.6232113,12.48918,2.815082,-1
19,M,0,1,40,2,4,157,1,2886,0,0.8976544,12.47109,4.084709,-1
19,M,0,1,40,3,4,158,2,4087,0,0.2172802,12.4364,0.9759852,-1
19,M,0,1,40,4,3,159,3,1464,0,8.320018E-08,6.42409,0,-1
19,M,0,1,40,5,3,160,4,2487,1,0.13933,6.5776,1.162138,-1
19,M,0,1,40,6,4,159,3,4897,0,0.5607957,12.2969,2.554126,-1
19,M,0,1,40,7,3,157,1,5953,0,0.4480387,6.33563,3.900735,-1
19,M,0,1,40,8,3,158,2,2686,2,0.5110807,6.602994,4.206356,-1
19,M,0,1,41,1,1,161,1,5220,0,0.1299144,6.343453,1.14141,-1
19,M,0,1,41,2,1,162,2,1865,0,0.4140587,6.720429,3.370923,-1
19,M,0,1,41,3,2,161,1,1276,1,0.4530392,12.42423,2.063268,-1
19,M,0,1,41,4,1,164,4,1587,0,0.5424131,6.488478,4.608234,-1
19,M,0,1,41,5,1,163,3,1898,0,0.3155315,6.328102,2.749084,-1
19,M,0,1,41,6,2,164,4,2809,0,0.6641225,12.5247,2.956249,-1
19,M,0,1,41,7,2,162,2,1009,0,0.9904113,12.52789,4.483055,-1
19,M,0,1,41,8,2,163,3,1820,1,0.1160885,12.2998,0.53008,-1
19,M,0,1,42,1,1,166,2,2065,0,0.2127627,6.719703,1.76536,-1
19,M,0,1,42,2,1,168,4,2487,0,0.2189502,6.499011,1.845996,-1
19,M,0,1,42,3,2,167,3,1176,0,0.8958536,12.30607,4.143686,-1
19,M,0,1,42,4,2,165,1,909,0,0.2833912,12.42497,1.290437,-1
19,M,0,1,42,5,1,167,3,1631,0,0.09278879,6.345278,0.7999081,-1
19,M,0,1,42,6,1,165,1,3753,0,0.01965433,6.347072,0.1701742,-1
19,M,0,1,42,7,2,166,2,887,0,4.837619E-08,12.53266,0,-1
19,M,0,1,42,8,2,168,4,1909,1,0.2883702,12.52726,1.2874,-1
19,M,0,1,43,1,1,170,2,5031,3,0.2795675,6.724067,2.294478,-1
19,M,0,1,43,2,2,169,1,831,0,0.08012923,12.4275,0.3620769,-1
19,M,0,1,43,3,2,171,3,942,0,0.06085751,12.31361,0.276953,-1
19,M,0,1,43,4,1,172,4,2054,0,1.952499E-07,6.5015,0,-1
19,M,0,1,43,5,2,170,2,853,0,0.2801765,12.53526,1.251795,-1
19,M,0,1,43,6,2,172,4,6331,2,0.02341647,12.52973,0.1027921,-1
19,M,0,1,43,7,1,171,3,1953,0,0.01012343,6.342294,0.08846933,-1
19,M,0,1,43,8,1,169,1,2031,0,0.2028262,6.351093,1.785312,-1
19,M,0,1,44,1,2,176,4,1131,0,0.7417046,12.53247,3.298119,-1
19,M,0,1,44,2,1,173,1,1520,0,3.993923E-08,6.356003,0.01978234,-1
19,M,0,1,44,3,2,174,2,6998,2,0.4077327,12.50157,1.827885,-1
19,M,0,1,44,4,1,176,4,3031,0,0.03039747,6.492328,0.2579304,-1
19,M,0,1,44,5,2,175,3,1976,0,0.980014,12.30988,4.537817,-1
19,M,0,1,44,6,1,174,2,1420,0,0.3855896,6.723538,3.154115,-1
19,M,0,1,44,7,2,173,1,753,0,3.250672E-07,12.45198,0.01978234,-1
19,M,0,1,44,8,1,175,3,1387,0,0.5314204,6.340601,4.587188,-1
19,M,0,1,45,1,1,177,1,3776,1,0.4456522,6.280538,3.908359,-1
19,M,0,1,45,2,2,179,3,1209,0,0.3128805,12.226,1.434632,-1
19,M,0,1,45,3,1,180,4,2898,0,0.2153139,6.422931,1.822953,-1
19,M,0,1,45,4,2,178,2,3476,1,1.058914,12.4725,4.814912,-1
19,M,0,1,45,5,2,180,4,954,0,0.9489681,12.45865,4.261953,-1
19,M,0,1,45,6,1,178,2,1509,1,0.1961448,6.680463,1.600711,-1
19,M,0,1,45,7,2,177,1,1242,0,0.4104341,12.37249,1.854247,-1
19,M,0,1,45,8,1,179,3,1965,0,0.08022063,6.260629,0.7016503,-1
19,M,0,1,46,1,1,181,1,1565,0,4.097633E-08,6.283156,0,-1
19,M,0,1,46,2,2,182,2,776,0,0.7634663,12.47803,3.428055,-1
19,M,0,1,46,3,1,183,3,1887,1,0.4614283,6.27523,4.04535,-1
19,M,0,1,46,4,1,184,4,1642,0,0.399996,6.434319,3.375509,-1
19,M,0,1,46,5,2,183,3,1376,0,0.02901408,12.23388,0.1341704,-1
19,M,0,1,46,6,2,181,1,920,0,0.1538849,12.36659,0.6982958,-1
19,M,0,1,46,7,2,184,4,2231,1,0.9305993,12.44649,4.1696,-1
19,M,0,1,46,8,1,182,2,1276,0,0.4174701,6.671069,3.418218,-1
19,M,0,1,47,1,1,187,3,2342,0,0.01309356,6.272094,0.1136409,-1
19,M,0,1,47,2,1,185,1,2265,0,0.2476866,6.278265,2.180501,-1
19,M,0,1,47,3,2,186,2,931,0,0.4221078,12.47357,1.896098,-1
19,M,0,1,47,4,2,187,3,1087,0,0.6044929,12.21616,2.804492,-1
19,M,0,1,47,5,1,188,4,1687,0,1.137164E-07,6.43004,0,-1
19,M,0,1,47,6,1,186,2,1454,0,0.3001072,6.677953,2.469024,-1
19,M,0,1,47,7,2,188,4,2520,0,0.6462404,12.45288,2.924828,-1
19,M,0,1,47,8,2,185,1,2265,3,0.2426362,12.35369,1.106061,-1
19,M,0,1,48,1,1,190,2,1809,2,0.4760781,6.725946,3.901438,-1
19,M,0,1,48,2,1,192,4,2520,1,0.1536188,6.799415,1.23448,-1
19,M,0,1,48,3,2,190,2,1776,2,0.5267626,12.57212,2.376523,-1
19,M,0,1,48,4,1,191,3,1376,0,1.910325E-07,6.67201,0,-1
19,M,0,1,48,5,2,189,1,1653,2,0.4606438,12.44447,2.092,-1
19,M,0,1,48,6,2,191,3,809,0,0.2486199,12.47855,1.122568,-1
19,M,0,1,48,7,2,192,4,1876,0,0.473186,12.71447,2.076883,-1
19,M,0,1,48,8,1,189,1,5665,0,0.4327776,6.439094,3.803696,-1
19,M,0,1,49,1,2,195,3,1353,0,0.8281527,12.50316,3.725625,-1
19,M,0,1,49,2,2,193,1,2298,4,0.5130627,12.46874,2.307069,-1
19,M,0,1,49,3,1,194,2,2765,0,0.3560718,6.800748,2.86389,-1
19,M,0,1,49,4,1,193,1,2942,0,0.1818363,6.451973,1.564355,-1
19,M,0,1,49,5,1,195,3,1620,0,0.3054373,6.66153,2.508114,-1
19,M,0,1,49,6,1,196,4,2187,1,0.3183363,6.840455,2.536593,-1
19,M,0,1,49,7,2,194,2,1665,1,0.4228816,12.62521,1.878157,-1
19,M,0,1,49,8,2,196,4,4753,2,1.06022,12.65492,4.673279,-1
19,M,0,1,50,1,1,198,2,1598,0,0.3815956,6.835778,3.112001,-1
19,M,0,1,50,2,2,197,1,887,0,0.5112326,12.4848,2.30622,-1
19,M,0,1,50,3,1,200,4,1487,0,0.05924969,6.677544,0.4881886,-1
19,M,0,1,50,4,2,198,2,920,0,0.7260266,12.5112,3.251187,-1
19,M,0,1,50,5,1,199,3,2576,0,1.5335E-07,6.385853,0,-1
19,M,0,1,50,6,1,197,1,2109,0,0.4303707,6.313408,3.762235,-1
19,M,0,1,50,7,2,199,3,1509,0,0.3292139,12.29754,1.510772,-1
19,M,0,1,50,8,2,200,4,8520,0,0.8953346,12.55087,3.979067,-1
19,M,0,1,51,1,1,202,2,1598,0,1.401231E-07,6.726564,0,-1
19,M,0,1,51,2,2,204,4,2620,0,0.3723195,12.54156,1.657058,-1
19,M,0,1,51,3,2,203,3,2131,0,0.8781543,12.30056,4.009318,-1
19,M,0,1,51,4,1,201,1,3665,0,0.3690802,6.316305,3.224158,-1
19,M,0,1,51,5,2,202,2,1498,0,0.1908795,12.49934,0.8570652,-1
19,M,0,1,51,6,1,204,4,3387,0,0.5043747,6.569787,4.168519,-1
19,M,0,1,51,7,1,203,3,3187,1,0.006289677,6.394638,0.04845664,-1
19,M,0,1,51,8,2,201,1,1576,2,0.1873973,12.4431,0.8485757,-1
19,M,0,1,52,1,1,207,3,1909,0,0.4034631,6.415917,3.45706,-1
19,M,0,1,52,2,2,205,1,1120,0,0.3530602,12.44442,1.608152,-1
19,M,0,1,52,3,2,206,2,1320,2,1.880698E-07,12.57331,0,-1
19,M,0,1,52,4,1,205,1,4620,0,0.0004079609,6.394886,0,-1
19,M,0,1,52,5,1,206,2,2020,1,7.518768E-08,6.780495,0,-1
19,M,0,1,52,6,2,208,4,1876,0,0.8744546,12.65591,3.90901,-1
19,M,0,1,52,7,2,207,3,931,0,0.2402458,12.42833,1.086605,-1
19,M,0,1,52,8,1,208,4,1631,0,0.4369576,6.736793,3.578288,-1
19,M,0,1,53,1,1,211,3,1753,0,0.3891606,6.57373,3.24522,-1
19,M,0,1,53,2,1,209,1,2142,0,0.4520735,6.387209,3.977394,-1
19,M,0,1,53,3,2,210,2,2153,0,0.0972386,12.59017,0.4352126,-1
19,M,0,1,53,4,2,212,4,3298,0,0.9163714,12.65582,4.032452,-1
19,M,0,1,53,5,2,209,1,1765,2,0.769991,12.44052,3.499279,-1
19,M,0,1,53,6,2,211,3,2342,0,0.855706,12.3889,3.853664,-1
19,M,0,1,53,7,1,210,2,2864,2,0.5592381,6.5259,4.626476,-1
19,M,0,1,53,8,1,212,4,2509,0,0.3678308,6.447945,3.139122,-1
19,M,0,1,54,1,1,215,3,1654,0,0.01744789,6.251977,0.1519511,-1
19,M,0,1,54,2,1,216,4,3476,0,0.1344194,6.427873,1.14944,-1
19,M,0,1,54,3,2,213,1,965,0,0.7621863,12.20579,3.540663,-1
19,M,0,1,54,4,2,216,4,2753,0,0.5436995,12.34441,2.462197,-1
19,M,0,1,54,5,1,214,2,1431,1,6.705576E-08,6.536855,0,-1
19,M,0,1,54,6,1,213,1,1998,1,0.007752052,6.112511,0.06852804,-1
19,M,0,1,54,7,2,214,2,1042,0,0.006868423,12.31671,0.02797646,-1
19,M,0,1,54,8,2,215,3,1076,0,0.2127704,12.10194,0.9883377,-1
19,M,0,1,55,1,2,217,1,954,0,0.4627824,12.19553,2.150677,-1
19,M,0,1,55,2,1,218,2,4531,0,0.2820361,6.534394,2.338248,-1
19,M,0,1,55,3,1,219,3,2198,0,0.3620086,6.241045,3.165701,-1
19,M,0,1,55,4,1,220,4,2276,2,0.1994189,6.428766,1.687368,-1
19,M,0,1,55,5,2,218,2,1131,1,0.5318812,12.30604,2.445206,-1
19,M,0,1,55,6,1,217,1,3298,0,0.4292625,6.115092,3.862344,-1
19,M,0,1,55,7,2,219,3,1820,0,0.9221299,12.08778,4.299061,-1
19,M,0,1,55,8,2,220,4,2142,0,0.5029941,12.54241,2.249511,-1
19,M,0,1,56,1,2,222,2,887,0,0.7527738,12.4952,3.375045,-1
19,M,0,1,56,2,1,223,3,1409,0,0.1178778,6.457018,0.9985801,-1
19,M,0,1,56,3,2,224,4,2509,0,1.027422,12.55302,4.566302,-1
19,M,0,1,56,4,2,223,3,1320,0,0.6390485,12.33898,2.93585,-1
19,M,0,1,56,5,2,221,1,754,0,0.8597441,12.41969,3.838798,-1
19,M,0,1,56,6,1,222,2,1665,0,0.2258366,6.723364,1.841857,-1
19,M,0,1,56,7,1,221,1,3031,1,0.2143122,6.311211,1.901869,-1
19,M,0,1,56,8,1,224,4,3187,2,0.2595133,6.722844,2.093683,-1
19,M,0,1,57,1,3,225,1,1165,1,0.3076524,6.12882,2.769161,-1
19,M,0,1,57,2,3,228,4,1564,0,8.76915E-08,6.414125,0,-1
19,M,0,1,57,3,4,227,3,2742,1,0.01456,12.08373,0.0656106,-1
19,M,0,1,57,4,4,226,2,798,0,0.69455,12.25771,3.218323,-1
19,M,0,1,57,5,4,225,1,1054,0,0.1427093,12.23152,0.6587883,-1
19,M,0,1,57,6,3,227,3,2409,2,0.1672824,6.222271,1.475782,-1
19,M,0,1,57,7,4,228,4,1587,0,0.09319112,12.35804,0.4247459,-1
19,M,0,1,57,8,3,226,2,887,0,0.2498898,6.508998,2.134509,-1
19,M,0,1,58,1,4,231,3,1309,1,6.652223E-08,12.08372,0,-1
19,M,0,1,58,2,3,230,2,820,0,0.5128092,6.482958,4.29701,-1
19,M,0,1,58,3,4,232,4,7198,1,0.2477905,12.33114,1.124135,-1
19,M,0,1,58,4,4,230,2,1842,3,0.7281272,12.25669,3.303279,-1
19,M,0,1,58,5,4,229,1,1120,0,0.7354279,12.24669,3.358938,-1
19,M,0,1,58,6,3,232,4,2020,0,0.1878842,6.397685,1.597162,-1
19,M,0,1,58,7,3,231,3,2065,0,0.1086819,6.248983,0.9431533,-1
19,M,0,1,58,8,3,229,1,4287,0,0.04364944,6.077993,0.3961419,-1
19,M,0,1,59,1,3,235,3,1865,0,0.4670117,6.227802,4.126826,-1
19,M,0,1,59,2,3,236,4,1487,0,0.3278204,6.420271,2.822443,-1
19,M,0,1,59,3,3,233,1,5109,1,0.429054,6.097342,3.977541,-1
19,M,0,1,59,4,3,234,2,1120,0,0.03859524,6.494849,0.3250574,-1
19,M,0,1,59,5,4,233,1,4087,1,0.4389183,12.32843,2.01227,-1
19,M,0,1,59,6,4,235,3,2120,1,0.1390473,12.40114,0.6283845,-1
19,M,0,1,59,7,4,234,2,1087,1,0.4983751,12.56853,2.222727,-1
19,M,0,1,59,8,4,236,4,2142,2,0.9777592,12.5962,4.304205,-1
19,M,0,1,60,1,3,237,1,6431,5,0.146132,6.348428,1.286488,-1
19,M,0,1,60,2,3,238,2,3020,1,0.4010164,6.742376,3.278412,-1
19,M,0,1,60,3,4,240,4,1265,1,0.5018265,12.61386,2.218056,-1
19,M,0,1,60,4,4,237,1,1453,0,0.295565,12.43318,1.32648,-1
19,M,0,1,60,5,4,239,3,1665,0,0.8748865,12.44025,4.008194,-1
19,M,0,1,60,6,4,238,2,1731,0,0.4382467,12.54325,1.979223,-1
19,M,0,1,60,7,3,239,3,1998,0,0.5023488,6.516652,4.196287,-1
19,M,0,1,60,8,3,240,4,3998,2,0.5407305,6.668813,4.454478,-1
19,M,0,1,61,1,1,241,1,3498,0,0.100096,6.368044,0.8751395,-1
19,M,0,1,61,2,1,242,2,7109,6,0.01364035,6.728889,0.1119058,-1
19,M,0,1,61,3,2,243,3,1742,0,0.1403486,12.26825,0.6431577,-1
19,M,0,1,61,4,2,242,2,964,0,0.1113816,12.48075,0.501241,-1
19,M,0,1,61,5,2,244,4,3798,1,0.04280248,12.52816,0.191797,-1
19,M,0,1,61,6,2,241,1,931,0,0.4629453,12.36078,2.107565,-1
19,M,0,1,61,7,1,244,4,1209,0,0.1430655,6.573662,1.198773,-1
19,M,0,1,61,8,1,243,3,1398,0,9.125483E-08,6.396794,0,-1
19,M,0,1,62,1,1,246,2,1431,1,0.5138875,6.706044,4.152798,-1
19,M,0,1,62,2,1,247,3,1842,0,6.232919E-08,6.40046,0,-1
19,M,0,1,62,3,2,246,2,965,0,0.6916186,12.48898,3.100341,-1
19,M,0,1,62,4,2,247,3,2031,0,0.4264769,12.28128,1.967221,-1
19,M,0,1,62,5,1,248,4,3031,2,0.4853151,6.589062,3.989487,-1
19,M,0,1,62,6,2,245,1,1853,1,0.2716995,12.37474,1.240647,-1
19,M,0,1,62,7,2,248,4,9999,0,-1,-1,-1,-1
19,M,0,1,62,8,1,245,1,3920,0,0.4694182,6.264462,4.220533,-1
19,M,0,1,1,1,6,1,1,2341,0,0.06294364,12.28107,0.2873554,-1
19,M,0,1,1,2,7,4,4,6675,0,6.598711,6.598711,109.5839,-1
19,M,0,1,1,3,8,1,1,5631,0,6.387905,12.29673,31.29738,-1
19,M,0,1,1,4,8,4,4,4465,0,7.042807,12.42113,34.54142,-1
19,M,0,1,1,5,5,2,2,7220,0,2.161802,6.566762,18.43937,-1
19,M,0,1,1,6,6,3,3,3931,0,7.213068,12.23108,36.13803,-1
19,M,0,1,1,7,8,2,2,5753,0,11.57208,12.40046,68.9389,-1
19,M,0,1,1,8,5,3,3,1564,0,0.01892584,6.348341,0.1631294,-1
19,M,0,1,1,9,6,4,4,1809,0,9.304658,12.41016,48.56971,-1
19,M,0,1,1,10,8,3,3,4265,0,5.387447,12.17798,26.15768,-1
19,M,0,1,1,11,6,2,2,4787,0,2.242044,12.4025,10.36014,-1
19,M,0,1,1,12,7,3,3,1842,0,0.1776587,6.387729,1.534166,-1
19,M,0,1,1,13,7,1,1,3431,0,3.769491,6.205267,37.40653,-1
19,M,0,1,1,14,7,2,2,2298,0,3.340947,6.584864,30.48865,-1
19,M,0,1,1,15,5,1,1,1520,0,0.9797439,6.210356,8.85428,-1
19,M,0,1,1,16,5,4,4,3709,0,6.080385,6.57359,67.66409,-1
19,M,0,1,2,1,5,2,2,5220,0,1.894168,6.583462,15.9883,-1
19,M,0,1,2,2,6,1,1,3220,0,0.7636766,12.28313,3.514855,-1
19,M,0,1,2,3,7,3,3,1331,0,0.6370007,6.414752,5.478402,-1
19,M,0,1,2,4,8,4,4,3153,0,1.719633,12.47813,7.702604,-1
19,M,0,1,2,5,5,3,3,1309,0,5.273973,6.441818,54.95575,-1
19,M,0,1,2,6,5,4,4,2509,0,0.6052022,6.54733,5.024884,-1
19,M,0,1,2,7,6,3,3,2342,0,3.846281,12.28934,18.23872,-1
19,M,0,1,2,8,8,2,2,1009,0,5.51429,12.24468,26.76561,-1
19,M,0,1,2,9,8,1,1,253,0,3.601662,12.40293,16.58299,-1
19,M,0,1,2,10,6,4,4,598,0,2.127132,12.55932,9.7046,-1
19,M,0,1,2,11,6,2,2,1442,0,11.75657,12.55684,69.43401,-1
19,M,0,1,2,12,7,4,4,1742,0,6.155134,6.720701,66.32627,-1
19,M,0,1,2,13,8,3,3,1164,0,3.621232,12.3327,17.01543,-1
19,M,0,1,2,14,5,1,1,898,0,1.512252E-08,6.339803,0,-1
19,M,0,1,2,15,7,2,2,709,0,5.420096,6.6987,54.01068,-1
19,M,0,1,2,16,7,1,1,1209,0,3.698276,6.318164,35.82703,-1
