Age, Gender, Awareness Type, Session, Block, Trial, Set, Pattern, Quadrant, Response Time, Num Mistakes, Distance From Target, Camera Distance From Target, Angle Error (Degrees), FC Response
19,F,0,1,1,1,1,2,2,3053,0,0.1200633,6.480746,1.01085,-1
19,F,0,1,1,2,1,1,1,2953,0,0.2361865,6.321395,2.041239,-1
19,F,0,1,1,3,2,3,3,2464,0,0.559007,12.12751,2.573594,-1
19,F,0,1,1,4,2,4,4,1320,0,0.1246397,12.30672,0.5688952,-1
19,F,0,1,1,5,2,2,2,4875,0,0.9847913,12.32002,4.46686,-1
19,F,0,1,1,6,1,4,4,3520,0,1.314968E-07,6.452954,0.01978234,-1
19,F,0,1,1,7,1,3,3,3187,0,0.3675841,6.171218,3.289381,-1
19,F,0,1,1,8,2,1,1,4265,0,0.5137602,12.1375,2.374298,-1
19,F,0,1,2,1,2,7,3,3887,0,0.5895624,12.13444,2.755272,-1
19,F,0,1,2,2,2,5,1,1376,0,0.6296772,12.16657,2.89881,-1
19,F,0,1,2,3,2,6,2,2809,0,0.3597119,12.32553,1.640321,-1
19,F,0,1,2,4,1,5,1,2053,0,1.236645E-07,6.314094,0,-1
19,F,0,1,2,5,1,6,2,2031,0,0.00139297,6.485096,0,-1
19,F,0,1,2,6,2,8,4,5831,0,0.9627638,12.26804,4.471375,-1
19,F,0,1,2,7,1,7,3,2164,0,0.1790753,6.216565,1.586096,-1
19,F,0,1,2,8,1,8,4,3165,0,0.3232672,6.455686,2.698128,-1
19,F,0,1,3,1,2,10,2,2165,0,0.474815,12.35069,2.152223,-1
19,F,0,1,3,2,1,11,3,2276,0,0.08494428,6.208909,0.749388,-1
19,F,0,1,3,3,2,9,1,3809,0,0.23102,12.19026,1.064224,-1
19,F,0,1,3,4,1,10,2,2742,0,5.940683E-08,6.506028,0,-1
19,F,0,1,3,5,1,9,1,3054,0,0.1441265,6.358353,1.238279,-1
19,F,0,1,3,6,2,12,4,1287,0,0.6179482,12.34418,2.836418,-1
19,F,0,1,3,7,2,11,3,2131,0,0.7493781,12.16241,3.489979,-1
19,F,0,1,3,8,1,12,4,3654,0,0.250268,6.476212,2.122463,-1
19,F,0,1,4,1,1,15,3,2865,0,0.1486326,6.218559,1.310749,-1
19,F,0,1,4,2,2,16,4,1098,0,0.2874577,12.34944,1.304313,-1
19,F,0,1,4,3,1,13,1,1531,0,0.1724446,6.352851,1.482925,-1
19,F,0,1,4,4,1,14,2,2264,0,0.1961531,6.511108,1.627506,-1
19,F,0,1,4,5,2,13,1,5831,1,0.4439466,12.17784,2.043539,-1
19,F,0,1,4,6,2,15,3,4531,0,0.8115826,12.16539,3.725729,-1
19,F,0,1,4,7,1,16,4,3076,0,0.1471697,6.490413,1.240489,-1
19,F,0,1,4,8,2,14,2,9999,2,-1,-1,-1,-1
19,F,0,1,5,1,1,20,4,3509,0,1.273047E-07,6.48465,0,-1
19,F,0,1,5,2,2,17,1,5176,0,0.1879067,12.21467,0.8643403,-1
19,F,0,1,5,3,1,19,3,2942,0,1.133697E-07,6.227702,0,-1
19,F,0,1,5,4,1,18,2,4598,0,1.851346E-08,6.536016,0,-1
19,F,0,1,5,5,1,17,1,2965,0,3.01198E-08,6.362582,0,-1
19,F,0,1,5,6,2,20,4,1765,0,0.4380246,12.36686,2.006523,-1
19,F,0,1,5,7,2,18,2,1942,0,0.8656561,12.3829,3.982609,-1
19,F,0,1,5,8,2,19,3,9999,3,-1,-1,-1,-1
19,F,0,1,6,1,1,22,2,1909,0,0.1818916,6.534605,1.514524,-1
19,F,0,1,6,2,1,24,4,2776,0,0.2718584,6.506413,2.258194,-1
19,F,0,1,6,3,1,23,3,3376,0,0.03104396,6.218244,0.272681,-1
19,F,0,1,6,4,2,22,2,8164,2,0.769707,12.25047,3.517082,-1
19,F,0,1,6,5,2,21,1,2464,0,0.7475171,12.21882,3.437751,-1
19,F,0,1,6,6,2,24,4,1209,0,0.9541838,12.39537,4.364261,-1
19,F,0,1,6,7,2,23,3,2120,0,0.3747131,12.21671,1.721356,-1
19,F,0,1,6,8,1,21,1,1420,0,0.02164963,6.402818,0.1855749,-1
19,F,0,1,7,1,1,28,4,7253,2,0.004488962,6.403001,0.03956468,-1
19,F,0,1,7,2,2,25,1,6509,1,0.6686744,12.16948,3.083436,-1
19,F,0,1,7,3,2,26,2,7809,3,0.568696,12.38445,2.610296,-1
19,F,0,1,7,4,2,27,3,2798,0,0.4424996,12.18211,2.056618,-1
19,F,0,1,7,5,1,26,2,1309,0,0.5226734,6.532106,4.304251,-1
19,F,0,1,7,6,1,25,1,1720,0,1.112397E-07,6.366969,0,-1
19,F,0,1,7,7,1,27,3,3042,0,0.05870391,6.228799,0.5124369,-1
19,F,0,1,7,8,2,28,4,6220,1,0.3127151,12.24845,1.442115,-1
19,F,0,1,8,1,1,30,2,5865,0,0.5456114,6.540044,4.61002,-1
19,F,0,1,8,2,2,32,4,1320,0,0.7726481,12.39549,3.538118,-1
19,F,0,1,8,3,2,31,3,3831,0,0.949375,12.19957,4.422174,-1
19,F,0,1,8,4,2,30,2,9999,4,-1,-1,-1,-1
19,F,0,1,8,5,1,31,3,1965,0,0.05461832,6.277336,0.4764233,-1
19,F,0,1,8,6,1,29,1,1853,0,0.174014,6.44772,1.483453,-1
19,F,0,1,8,7,1,32,4,2320,0,1.375344E-07,6.548381,0,-1
19,F,0,1,8,8,2,29,1,2809,0,0.8912364,12.29335,4.060956,-1
19,F,0,1,9,1,1,35,3,2720,0,0.2861127,6.265527,2.474013,-1
19,F,0,1,9,2,2,33,1,4631,0,0.7031266,12.18334,3.277695,-1
19,F,0,1,9,3,2,34,2,2609,0,0.8854557,12.35789,4.079768,-1
19,F,0,1,9,4,1,33,1,9999,2,-1,-1,-1,-1
19,F,0,1,9,5,2,36,4,5531,2,0.6294857,12.35276,2.90205,-1
19,F,0,1,9,6,2,35,3,2553,0,0.6442008,12.16085,2.972692,-1
19,F,0,1,9,7,1,36,4,3920,0,0.1543963,6.475306,1.293315,-1
19,F,0,1,9,8,1,34,2,5342,0,0.4556268,6.495532,3.90189,-1
19,F,0,1,10,1,1,37,1,1720,0,0.3792987,6.33631,3.268543,-1
19,F,0,1,10,2,1,38,2,3165,0,0.5211377,6.502213,4.351857,-1
19,F,0,1,10,3,1,39,3,3953,0,0.1620931,6.221251,1.429713,-1
19,F,0,1,10,4,1,40,4,3409,0,3.4098E-08,6.479456,0,-1
19,F,0,1,10,5,2,38,2,9999,3,-1,-1,-1,-1
19,F,0,1,10,6,2,37,1,1709,0,0.2392216,12.18225,1.108358,-1
19,F,0,1,10,7,2,39,3,2142,0,0.4527693,12.16482,2.106822,-1
19,F,0,1,10,8,2,40,4,1054,0,0.9131711,12.30742,4.213752,-1
19,F,0,1,11,1,1,42,2,2198,1,0.08871561,6.462178,0.7465102,-1
19,F,0,1,11,2,1,43,3,1732,0,0.09295834,6.207452,0.8185275,-1
19,F,0,1,11,3,2,41,1,4642,0,0.4881485,12.10982,2.271417,-1
19,F,0,1,11,4,1,44,4,2053,0,0.03319611,6.419626,0.2804634,-1
19,F,0,1,11,5,1,41,1,1687,0,0.07360054,6.319336,0.6361217,-1
19,F,0,1,11,6,2,44,4,4076,1,0.4344413,12.28889,1.976353,-1
19,F,0,1,11,7,2,42,2,9999,3,-1,-1,-1,-1
19,F,0,1,11,8,2,43,3,1842,0,0.9961758,12.14847,4.645491,-1
19,F,0,1,12,1,1,46,2,1742,0,0.165187,6.455696,1.40667,-1
19,F,0,1,12,2,2,48,4,1087,0,0.4150626,12.29267,1.907212,-1
19,F,0,1,12,3,1,47,3,3064,1,0.3724319,6.178333,3.303042,-1
19,F,0,1,12,4,1,48,4,3576,0,0.2507322,6.413093,2.145483,-1
19,F,0,1,12,5,2,45,1,1465,0,0.4837438,12.16263,2.230112,-1
19,F,0,1,12,6,2,46,2,1742,0,0.7483122,12.30122,3.460061,-1
19,F,0,1,12,7,2,47,3,1898,0,0.479108,12.13622,2.230287,-1
19,F,0,1,12,8,1,45,1,1342,0,0.3131821,6.312768,2.709205,-1
19,F,0,1,13,1,2,51,3,4920,0,8.96074E-08,12.16595,0,-1
19,F,0,1,13,2,1,49,1,2976,1,0.4185244,6.318427,3.664045,-1
19,F,0,1,13,3,2,52,4,9999,4,-1,-1,-1,-1
19,F,0,1,13,4,1,50,2,2142,0,0.441237,6.475841,3.671145,-1
19,F,0,1,13,5,2,49,1,4554,0,0.5271805,12.17558,2.426726,-1
19,F,0,1,13,6,2,50,2,1731,0,0.9562853,12.33967,4.392533,-1
19,F,0,1,13,7,1,51,3,2187,0,0.06413603,6.21333,0.5650989,-1
19,F,0,1,13,8,1,52,4,2887,0,0.3813478,6.45885,3.220817,-1
19,F,0,1,14,1,1,54,2,1531,0,0.3538098,6.473454,2.982159,-1
19,F,0,1,14,2,1,53,1,2931,0,0.2623742,6.344377,2.258108,-1
19,F,0,1,14,3,1,55,3,2376,0,0.04003153,6.272157,0.3516591,-1
19,F,0,1,14,4,1,56,4,2720,0,0.228305,6.517729,1.89651,-1
19,F,0,1,14,5,2,54,2,1631,0,1.05626,12.37288,4.768592,-1
19,F,0,1,14,6,2,55,3,1887,0,0.649142,12.20546,2.966891,-1
19,F,0,1,14,7,2,53,1,3198,1,0.2165012,12.1766,1.003077,-1
19,F,0,1,14,8,2,56,4,3176,1,0.3885949,12.33344,1.773765,-1
19,F,0,1,15,1,1,59,3,4009,1,0.2709201,6.272169,2.365792,-1
19,F,0,1,15,2,2,57,1,1787,0,0.2420125,12.18185,1.116801,-1
19,F,0,1,15,3,1,58,2,1820,0,0.3171259,6.46497,2.649519,-1
19,F,0,1,15,4,1,57,1,2565,0,0.2099892,6.310465,1.815961,-1
19,F,0,1,15,5,2,60,4,898,0,0.2876784,12.34876,1.299353,-1
19,F,0,1,15,6,2,59,3,4576,1,0.03768352,12.17384,0.1724585,-1
19,F,0,1,15,7,2,58,2,6053,1,0.9604684,12.38465,4.415392,-1
19,F,0,1,15,8,1,60,4,8798,4,1.023822E-07,6.451608,0,-1
19,F,0,1,16,1,1,63,3,3131,0,1.176961E-07,6.211741,0,-1
19,F,0,1,16,2,2,61,1,4409,0,0.1838088,12.13393,0.8513383,-1
19,F,0,1,16,3,2,64,4,3976,3,2.290247E-07,12.2959,0,-1
19,F,0,1,16,4,1,61,1,1676,0,8.892754E-08,6.28406,0,-1
19,F,0,1,16,5,1,62,2,3165,1,0.2322528,6.439432,1.940376,-1
19,F,0,1,16,6,2,63,3,6564,2,0.06167157,12.10989,0.2853053,-1
19,F,0,1,16,7,1,64,4,4065,0,0.2916644,6.475108,2.483725,-1
19,F,0,1,16,8,2,62,2,6709,1,0.04987049,12.31637,0.2255535,-1
19,F,0,1,17,1,4,67,3,2265,0,0.2347131,12.14782,1.084442,-1
19,F,0,1,17,2,3,68,4,2531,0,0.234204,6.451571,1.956948,-1
19,F,0,1,17,3,3,66,2,3131,0,0.4313743,6.437458,3.648192,-1
19,F,0,1,17,4,4,65,1,1742,0,0.4900294,12.14569,2.260187,-1
19,F,0,1,17,5,4,68,4,1231,0,0.2001048,12.34137,0.9112865,-1
19,F,0,1,17,6,4,66,2,1342,0,0.2303221,12.33928,1.041738,-1
19,F,0,1,17,7,3,67,3,5331,0,6.407635E-08,6.279063,0,-1
19,F,0,1,17,8,3,65,1,2798,1,0.4275476,6.300543,3.749619,-1
19,F,0,1,18,1,4,72,4,931,0,0.3481043,12.33275,1.574082,-1
19,F,0,1,18,2,4,70,2,1420,0,0.8042803,12.34283,3.637819,-1
19,F,0,1,18,3,3,71,3,2042,0,9.288318E-08,6.236686,0,-1
19,F,0,1,18,4,3,70,2,1342,0,0.5404532,6.45448,4.59376,-1
19,F,0,1,18,5,4,69,1,4087,2,0.5102628,12.12866,2.357089,-1
19,F,0,1,18,6,4,71,3,1598,0,0.4095937,12.11805,1.892068,-1
19,F,0,1,18,7,3,72,4,2476,0,0.4216189,6.469154,3.600816,-1
19,F,0,1,18,8,3,69,1,2764,1,0.4236997,6.295555,3.703379,-1
19,F,0,1,19,1,4,74,2,1465,0,0.4462396,12.34375,2.019164,-1
19,F,0,1,19,2,4,75,3,8098,5,0.1796642,12.12713,0.8336869,-1
19,F,0,1,19,3,4,73,1,1887,0,0.9555426,12.1636,4.483231,-1
19,F,0,1,19,4,3,76,4,3798,0,3.612178E-07,6.509341,0,-1
19,F,0,1,19,5,3,74,2,6176,4,1.870485E-08,6.374299,0,-1
19,F,0,1,19,6,3,73,1,1631,0,0.02752783,6.29625,0.2398483,-1
19,F,0,1,19,7,3,75,3,2765,1,1.835866E-07,6.190457,0,-1
19,F,0,1,19,8,4,76,4,1953,0,0.7307457,12.26171,3.374696,-1
19,F,0,1,20,1,4,77,1,2420,0,0.08745446,12.20261,0.4029978,-1
19,F,0,1,20,2,3,79,3,3142,0,0.372739,6.273801,3.288012,-1
19,F,0,1,20,3,4,80,4,1365,0,0.05822376,12.42416,0.2639296,-1
19,F,0,1,20,4,3,77,1,2642,1,0.1278369,6.320123,1.111708,-1
19,F,0,1,20,5,3,78,2,2854,1,0.206053,6.479307,1.712808,-1
19,F,0,1,20,6,4,79,3,2698,1,0.5660024,12.17588,2.641603,-1
19,F,0,1,20,7,3,80,4,3020,0,0.5304524,6.497768,4.461464,-1
19,F,0,1,20,8,4,78,2,1876,1,0.2136266,12.37475,0.9685385,-1
19,F,0,1,20,1,2,79,3,1520,0,0.2124053,12.19469,0.9817823,-1
19,F,0,1,20,2,1,80,4,3098,1,0.4281867,6.530182,3.599129,-1
19,F,0,1,20,3,1,77,1,1620,0,0.03911306,6.327155,0.339197,-1
19,F,0,1,20,4,2,78,2,1376,0,0.49764,12.37063,2.24315,-1
19,F,0,1,20,5,2,80,4,1187,0,4.107985E-08,12.37767,0,-1
19,F,0,1,20,6,1,79,3,1909,0,3.162309E-08,6.271908,0,-1
19,F,0,1,20,7,1,78,2,1309,0,0.2783979,6.483298,2.342345,-1
19,F,0,1,20,8,2,77,1,1676,0,0.8471603,12.20172,3.889424,-1
19,F,0,1,21,1,2,84,4,1298,0,0.754098,12.38161,3.462493,-1
19,F,0,1,21,2,2,81,1,5665,2,0.5862479,12.14903,2.741097,-1
19,F,0,1,21,3,2,82,2,2353,1,0.9671559,12.36182,4.444045,-1
19,F,0,1,21,4,2,83,3,3265,0,0.2661088,12.18306,1.233211,-1
19,F,0,1,21,5,1,82,2,4854,1,0.05762026,6.4778,0.4837596,-1
19,F,0,1,21,6,1,81,1,1642,0,0.1581093,6.315095,1.367019,-1
19,F,0,1,21,7,1,84,4,2931,1,0.5001563,6.528439,4.210777,-1
19,F,0,1,21,8,1,83,3,2498,0,0.2074372,6.270204,1.822953,-1
19,F,0,1,22,1,2,85,1,1342,0,9.049948E-08,12.20167,0,-1
19,F,0,1,22,2,1,87,3,2442,0,0.5046643,6.278159,4.433233,-1
19,F,0,1,22,3,2,86,2,4608,1,0.5520254,12.36333,2.48601,-1
19,F,0,1,22,4,2,88,4,920,0,0.1446889,12.36866,0.6537194,-1
19,F,0,1,22,5,1,86,2,2609,1,1.429713E-07,6.478682,0,-1
19,F,0,1,22,6,1,88,4,2709,0,0.3095086,6.521893,2.590348,-1
19,F,0,1,22,7,2,87,3,2676,0,0.5349937,12.19183,2.491279,-1
19,F,0,1,22,8,1,85,1,1631,0,2.262415E-08,6.310227,0,-1
19,F,0,1,23,1,1,91,3,1965,0,0.3136845,6.262655,2.705952,-1
19,F,0,1,23,2,1,89,1,1698,0,0.2582112,6.337572,2.223432,-1
19,F,0,1,23,3,2,91,3,2298,0,0.6788639,12.18406,3.161307,-1
19,F,0,1,23,4,1,90,2,1853,0,0.2505983,6.484685,2.087035,-1
19,F,0,1,23,5,2,92,4,1009,0,0.3105142,12.37318,1.419549,-1
19,F,0,1,23,6,2,90,2,909,0,0.4035752,12.36958,1.845572,-1
19,F,0,1,23,7,2,89,1,2053,0,0.005095573,12.2022,0.01978234,-1
19,F,0,1,23,8,1,92,4,2354,0,0.3660006,6.602025,3.047032,-1
19,F,0,1,24,1,2,94,2,3687,2,0.4173696,12.3196,1.886786,-1
19,F,0,1,24,2,1,95,3,3809,1,0.2495074,6.203112,2.202471,-1
19,F,0,1,24,3,2,96,4,976,0,0.9320114,12.34805,4.300336,-1
19,F,0,1,24,4,1,93,1,1331,0,0.107145,6.348821,0.9213235,-1
19,F,0,1,24,5,1,96,4,1598,0,0.05006332,6.494396,0.4201138,-1
19,F,0,1,24,6,1,94,2,6553,3,0.1706015,6.49751,1.415545,-1
19,F,0,1,24,7,2,95,3,4420,0,0.3150043,12.19888,1.460185,-1
19,F,0,1,24,8,2,93,1,1831,0,0.8752682,12.20682,4.056806,-1
19,F,0,1,25,1,1,98,2,1920,0,2.675031E-07,6.499646,0,-1
19,F,0,1,25,2,1,97,1,1620,0,3.064316E-08,6.335058,0,-1
19,F,0,1,25,3,2,98,2,1220,0,0.215288,12.37765,0.9709598,-1
19,F,0,1,25,4,1,100,4,1831,0,0.4433027,6.518547,3.66522,-1
19,F,0,1,25,5,1,99,3,3731,0,0.3505695,6.271173,3.089462,-1
19,F,0,1,25,6,2,97,1,2009,0,0.6022856,12.20844,2.779885,-1
19,F,0,1,25,7,2,99,3,6676,2,0.1596622,12.01294,0.7478197,-1
19,F,0,1,25,8,2,100,4,5331,1,0.8362405,12.37759,3.812232,-1
19,F,0,1,26,1,2,102,2,1109,0,0.02787783,12.38455,0.1251145,-1
19,F,0,1,26,2,1,104,4,2565,0,5.117254E-07,6.505538,0,-1
19,F,0,1,26,3,2,101,1,1676,0,0.2105429,12.22406,0.9717657,-1
19,F,0,1,26,4,1,103,3,2787,0,0.07851601,6.250371,0.680988,-1
19,F,0,1,26,5,1,102,2,2520,0,1.28239E-07,6.51551,0,-1
19,F,0,1,26,6,1,101,1,1809,0,2.81504E-08,6.354639,0,-1
19,F,0,1,26,7,2,104,4,1264,0,0.6150038,12.37566,2.819042,-1
19,F,0,1,26,8,2,103,3,1865,0,0.1219897,12.19806,0.5637122,-1
19,F,0,1,27,1,2,108,4,1153,0,0.2614892,12.38463,1.183164,-1
19,F,0,1,27,2,1,105,1,1843,0,0.1234814,6.358139,1.060541,-1
19,F,0,1,27,3,1,107,3,1742,0,1.246484E-07,6.253873,0,-1
19,F,0,1,27,4,2,106,2,953,0,0.6558582,12.38693,2.939382,-1
19,F,0,1,27,5,1,108,4,4098,1,0.04340767,6.523024,0.364769,-1
19,F,0,1,27,6,2,105,1,3765,0,0.3079165,12.26786,1.41056,-1
19,F,0,1,27,7,1,106,2,2876,0,0.001030169,6.522986,0,-1
19,F,0,1,27,8,2,107,3,2409,1,0.9747232,12.14931,4.546269,-1
19,F,0,1,28,1,2,109,1,1753,0,0.4865699,12.21318,2.235371,-1
19,F,0,1,28,2,2,112,4,1442,0,0.8026094,12.38188,3.688916,-1
19,F,0,1,28,3,1,110,2,6976,2,0.07766018,6.469645,0.6516207,-1
19,F,0,1,28,4,1,111,3,3787,0,0.01423745,6.259902,0.1235407,-1
19,F,0,1,28,5,2,110,2,1520,0,0.2835848,12.38726,1.291649,-1
19,F,0,1,28,6,2,111,3,2253,0,0.3849936,12.19163,1.784654,-1
19,F,0,1,28,7,1,112,4,4042,1,0.4299569,6.526626,3.575441,-1
19,F,0,1,28,8,1,109,1,1431,0,8.809636E-08,6.354516,0,-1
19,F,0,1,29,1,2,115,3,6642,3,0.8402444,12.18949,3.871864,-1
19,F,0,1,29,2,1,116,4,2642,0,4.095093E-08,6.516483,0,-1
19,F,0,1,29,3,1,113,1,2331,0,8.354785E-08,6.350671,0,-1
19,F,0,1,29,4,1,115,3,2742,0,0.4412549,6.253368,3.816904,-1
19,F,0,1,29,5,2,113,1,1254,0,0.7094501,12.21917,3.257624,-1
19,F,0,1,29,6,1,114,2,3809,0,8.598418E-08,6.515671,0,-1
19,F,0,1,29,7,2,116,4,876,0,0.3990676,12.38403,1.816177,-1
19,F,0,1,29,8,2,114,2,1842,1,0.8507325,12.39795,3.889071,-1
19,F,0,1,30,1,2,117,1,3954,0,0.5926,12.213,2.755485,-1
19,F,0,1,30,2,2,118,2,3631,1,0.4410732,12.37502,1.990857,-1
19,F,0,1,30,3,2,119,3,2298,0,0.2298104,12.20019,1.060725,-1
19,F,0,1,30,4,1,118,2,2276,0,0.1819997,6.51037,1.550407,-1
19,F,0,1,30,5,2,120,4,1153,0,0.8210021,12.38092,3.76754,-1
19,F,0,1,30,6,1,117,1,1387,0,0.1396116,6.350489,1.200567,-1
19,F,0,1,30,7,1,120,4,3487,0,0.09002702,6.514579,0.7527748,-1
19,F,0,1,30,8,1,119,3,4109,1,0.3324859,6.276815,2.927169,-1
19,F,0,1,31,1,2,124,4,1098,0,0.4696306,12.39341,2.146395,-1
19,F,0,1,31,2,1,122,2,1887,0,0.1871698,6.509223,1.568603,-1
19,F,0,1,31,3,2,121,1,2164,0,0.06038324,12.21819,0.2783625,-1
19,F,0,1,31,4,2,123,3,2042,0,0.3923474,12.19609,1.818115,-1
19,F,0,1,31,5,2,122,2,1187,0,0.4002336,12.39552,1.82842,-1
19,F,0,1,31,6,1,123,3,3387,0,4.249138E-07,6.269816,0,-1
19,F,0,1,31,7,1,124,4,3031,0,5.89352E-08,6.517247,0,-1
19,F,0,1,31,8,1,121,1,1420,0,0.06887086,6.361701,0.5944612,-1
19,F,0,1,32,1,2,128,4,909,0,0.4295028,12.37168,1.960545,-1
19,F,0,1,32,2,1,126,2,1342,0,0.1153336,6.50118,0.96773,-1
19,F,0,1,32,3,2,127,3,1576,0,0.7292854,12.19835,3.386106,-1
19,F,0,1,32,4,2,125,1,1365,0,0.6898518,12.22937,3.183769,-1
19,F,0,1,32,5,1,128,4,3642,0,0.03907607,6.521441,0.3262592,-1
19,F,0,1,32,6,1,125,1,1676,0,7.385304E-09,6.356605,0,-1
19,F,0,1,32,7,2,126,2,2031,1,0.07451838,12.39354,0.3363003,-1
19,F,0,1,32,8,1,127,3,2942,1,1.182076E-07,6.268281,0,-1
19,F,0,1,33,1,1,130,2,2076,1,0.03560675,6.517044,0.2980514,-1
19,F,0,1,33,2,1,131,3,4087,1,0.05139983,6.273342,0.4471871,-1
19,F,0,1,33,3,2,130,2,931,0,0.6600174,12.40604,3.017269,-1
19,F,0,1,33,4,2,131,3,2242,0,0.2717628,12.21036,1.259743,-1
19,F,0,1,33,5,2,129,1,3208,1,0.9872644,12.22612,4.599768,-1
19,F,0,1,33,6,2,132,4,1053,0,0.3997098,12.39408,1.794714,-1
19,F,0,1,33,7,1,129,1,1398,0,0.4361452,6.367578,3.743922,-1
19,F,0,1,33,8,1,132,4,4142,0,3.018965E-08,6.534626,0,-1
19,F,0,1,34,1,1,133,1,1876,0,0.5044842,6.344372,4.378688,-1
19,F,0,1,34,2,2,136,4,687,0,0.6344415,12.34607,2.914301,-1
19,F,0,1,34,3,2,133,1,1242,0,0.3204269,12.20496,1.482794,-1
19,F,0,1,34,4,1,134,2,1665,0,0.03636643,6.458547,0.3083766,-1
19,F,0,1,34,5,1,136,4,1742,0,0.2108625,6.530301,1.753458,-1
19,F,0,1,34,6,1,135,3,2220,0,0.2721045,6.300494,2.378416,-1
19,F,0,1,34,7,2,134,2,1376,0,0.2894802,12.36519,1.320862,-1
19,F,0,1,34,8,2,135,3,2342,0,0.9202384,12.20244,4.27173,-1
19,F,0,1,35,1,2,140,4,820,0,0.4759939,12.37229,2.148401,-1
19,F,0,1,35,2,1,138,2,3420,1,0.04214197,6.459699,0.3571801,-1
19,F,0,1,35,3,1,137,1,2220,0,0.4552,6.311652,3.939499,-1
19,F,0,1,35,4,2,138,2,1065,0,0.9759974,12.43757,4.446556,-1
19,F,0,1,35,5,1,139,3,8876,4,0.1328323,6.214963,1.154366,-1
19,F,0,1,35,6,1,140,4,2220,0,0.2284975,6.49893,1.903103,-1
19,F,0,1,35,7,2,137,1,1731,0,0.3251947,12.21635,1.504152,-1
19,F,0,1,35,8,2,139,3,2020,0,0.9141516,12.19325,4.259701,-1
19,F,0,1,37,1,3,145,1,2876,0,0.07666073,6.382992,0.6617518,-1
19,F,0,1,37,2,4,147,3,1509,0,0.5754212,12.17107,2.682996,-1
19,F,0,1,37,3,4,145,1,1987,0,0.5842287,12.18114,2.714763,-1
19,F,0,1,37,4,3,148,4,2065,0,0.1664325,6.518784,1.395496,-1
19,F,0,1,37,5,4,146,2,1442,0,0.8233777,12.43614,3.71051,-1
19,F,0,1,37,6,3,147,3,2031,0,0.2545884,6.251186,2.240182,-1
19,F,0,1,37,7,4,148,4,1376,0,0.7042665,12.40744,3.159759,-1
19,F,0,1,37,8,3,146,2,5053,2,1.469315E-07,6.248016,0,-1
19,F,0,1,38,1,3,149,1,2254,0,0.5280681,6.356775,4.628974,-1
19,F,0,1,38,2,4,152,4,3576,0,0.3171075,12.32353,1.438174,-1
19,F,0,1,38,3,4,149,1,3042,1,0.1314897,12.13035,0.6071628,-1
19,F,0,1,38,4,3,152,4,2565,0,0.08357818,6.467931,0.7030433,-1
19,F,0,1,38,5,3,150,2,1831,0,0.5042701,6.411059,4.281257,-1
19,F,0,1,38,6,4,151,3,3309,1,0.3676001,12.13721,1.705595,-1
19,F,0,1,38,7,4,150,2,976,0,0.07216866,12.31619,0.3286494,-1
19,F,0,1,38,8,3,151,3,5353,1,0.05025376,6.186639,0.4414621,-1
19,F,0,1,39,1,4,153,1,9999,4,-1,-1,-1,-1
19,F,0,1,39,2,4,154,2,6576,4,0.3254804,12.28406,1.496456,-1
19,F,0,1,39,3,3,155,3,2076,0,0.1094836,6.217278,0.9644893,-1
19,F,0,1,39,4,3,156,4,2731,0,0.544427,6.461517,4.51423,-1
19,F,0,1,39,5,3,154,2,1420,0,0.1163598,6.484981,0.9859589,-1
19,F,0,1,39,6,4,155,3,2753,1,0.8509369,12.11744,3.987081,-1
19,F,0,1,39,7,3,153,1,1376,0,0.160885,6.356128,1.392267,-1
19,F,0,1,39,8,4,156,4,8464,3,0.7739505,12.37794,3.563263,-1
19,F,0,1,40,1,3,158,2,1442,0,0.277483,6.449901,2.324058,-1
19,F,0,1,40,2,3,160,4,3654,1,0.2126982,6.486101,1.78991,-1
19,F,0,1,40,3,4,158,2,831,0,0.1415561,12.34811,0.6422443,-1
19,F,0,1,40,4,3,159,3,2531,0,0.278492,6.276177,2.452559,-1
19,F,0,1,40,5,4,157,1,2598,0,0.3214739,12.18616,1.490691,-1
19,F,0,1,40,6,4,159,3,2664,1,0.9820449,12.18,4.49414,-1
19,F,0,1,40,7,3,157,1,1587,0,0.2497409,6.364011,2.151223,-1
19,F,0,1,40,8,4,160,4,820,0,0.9518909,12.37324,4.27063,-1
19,F,0,1,41,1,1,163,3,2420,0,0.1820788,6.303423,1.561726,-1
19,F,0,1,41,2,1,164,4,2597,0,0.04688666,6.547964,0.3911712,-1
19,F,0,1,41,3,2,163,3,1776,0,0.1742999,12.23884,0.8030819,-1
19,F,0,1,41,4,2,161,1,2631,0,0.4140041,12.25614,1.894859,-1
19,F,0,1,41,5,2,162,2,820,0,0.7791315,12.41246,3.482453,-1
19,F,0,1,41,6,1,161,1,3576,1,0.1161194,6.359871,1.003272,-1
19,F,0,1,41,7,2,164,4,809,0,0.3080435,12.41894,1.400256,-1
19,F,0,1,41,8,1,162,2,2920,0,0.5182804,6.522236,4.409444,-1
19,F,0,1,42,1,1,167,3,1787,0,8.924696E-08,6.303339,0,-1
19,F,0,1,42,2,1,168,4,2308,1,0.1468523,6.550513,1.235906,-1
19,F,0,1,42,3,2,165,1,1298,0,0.5965911,12.24692,2.751646,-1
19,F,0,1,42,4,1,166,2,1542,0,0.02892056,6.531615,0.2414744,-1
19,F,0,1,42,5,2,168,4,975,0,0.113638,12.42028,0.5132,-1
19,F,0,1,42,6,1,165,1,1364,0,0.04825133,6.373986,0.4154301,-1
19,F,0,1,42,7,2,167,3,2053,0,0.6276613,12.24197,2.904477,-1
19,F,0,1,42,8,2,166,2,1153,0,0.5161322,12.4241,2.355428,-1
19,F,0,1,43,1,1,171,3,2420,0,0.1206767,6.299701,1.050902,-1
19,F,0,1,43,2,1,172,4,4719,2,0.1239776,6.552427,1.042865,-1
19,F,0,1,43,3,1,169,1,1642,0,0.1772424,6.385401,1.528415,-1
19,F,0,1,43,4,2,170,2,1198,0,0.4276941,12.42542,1.92925,-1
19,F,0,1,43,5,2,172,4,1020,0,0.9252877,12.43022,4.219558,-1
19,F,0,1,43,6,2,171,3,2065,0,0.2332578,12.24816,1.068994,-1
19,F,0,1,43,7,2,169,1,1787,0,0.5061775,12.26342,2.324142,-1
19,F,0,1,43,8,1,170,2,1487,0,0.5477924,6.530579,4.580436,-1
19,F,0,1,44,1,2,173,1,1453,0,0.9129611,12.25662,4.206076,-1
19,F,0,1,44,2,1,176,4,5076,1,0.2375567,6.570083,2.009447,-1
19,F,0,1,44,3,1,174,2,1998,1,6.311174E-08,6.523161,0,-1
19,F,0,1,44,4,1,175,3,3820,0,0.1775784,6.306606,1.5557,-1
19,F,0,1,44,5,1,173,1,1409,0,0.374808,6.372789,3.21065,-1
19,F,0,1,44,6,2,174,2,1198,0,0.04787515,12.41126,0.2158,-1
19,F,0,1,44,7,2,175,3,3487,0,0.336765,12.23586,1.54459,-1
19,F,0,1,44,8,2,176,4,965,0,0.3292199,12.41291,1.478697,-1
19,F,0,1,45,1,2,179,3,1876,0,0.5451401,12.23105,2.523751,-1
19,F,0,1,45,2,1,180,4,3242,1,1.511557E-07,6.55599,0,-1
19,F,0,1,45,3,1,179,3,2620,0,0.4305839,6.296569,3.787342,-1
19,F,0,1,45,4,2,178,2,3254,2,0.7351537,12.40987,3.35713,-1
19,F,0,1,45,5,1,177,1,2498,1,3.548166E-08,6.356954,0,-1
19,F,0,1,45,6,1,178,2,2798,1,0.1070325,6.517029,0.8902143,-1
19,F,0,1,45,7,2,177,1,2220,0,0.8918342,12.24375,4.091033,-1
19,F,0,1,45,8,2,180,4,1009,0,0.1470592,12.4115,0.6620474,-1
19,F,0,1,46,1,1,183,3,8064,1,0.2370432,6.308907,2.076506,-1
19,F,0,1,46,2,1,184,4,2587,0,0.3684844,6.554467,3.101162,-1
19,F,0,1,46,3,2,182,2,1287,0,0.5028334,12.40891,2.279759,-1
19,F,0,1,46,4,2,181,1,2831,0,0.5604621,12.23077,2.575647,-1
19,F,0,1,46,5,1,182,2,1242,0,0.228476,6.574743,1.927931,-1
19,F,0,1,46,6,2,184,4,4931,2,0.3846206,12.31525,1.739789,-1
19,F,0,1,46,7,1,181,1,1253,0,0.1891836,6.26029,1.660715,-1
19,F,0,1,46,8,2,183,3,2253,0,0.1150729,12.2593,0.5286014,-1
19,F,0,1,47,1,1,186,2,1409,0,0.3351364,6.542313,2.795124,-1
19,F,0,1,47,2,2,187,3,2342,0,1.049779,12.27734,4.85922,-1
19,F,0,1,47,3,2,188,4,1631,1,0.628977,12.4598,2.86006,-1
19,F,0,1,47,4,1,185,1,2942,1,0.4365322,6.377761,3.77154,-1
19,F,0,1,47,5,2,186,2,876,0,0.0274778,12.36824,0.1235407,-1
19,F,0,1,47,6,2,185,1,1631,0,0.9098638,12.20406,4.184743,-1
19,F,0,1,47,7,1,188,4,3431,1,3.783569E-08,6.529213,0,-1
19,F,0,1,47,8,1,187,3,2298,0,0.2973541,6.261508,2.584144,-1
19,F,0,1,48,1,2,189,1,1676,0,0.6818888,12.15793,3.184875,-1
19,F,0,1,48,2,2,190,2,1176,0,0.9168555,12.37537,4.213288,-1
19,F,0,1,48,3,2,192,4,3498,1,0.1605639,12.37655,0.7249676,-1
19,F,0,1,48,4,1,191,3,2265,0,0.3190139,6.27136,2.748372,-1
19,F,0,1,48,5,1,192,4,2465,0,0.00469446,6.515318,0.04423466,-1
19,F,0,1,48,6,2,191,3,4153,2,0.4602617,12.21784,2.138539,-1
19,F,0,1,48,7,1,190,2,1698,0,1.76399E-07,6.498692,0.01978234,-1
19,F,0,1,48,8,1,189,1,1787,0,0.2633309,6.346197,2.264426,-1
19,F,0,1,49,1,1,196,4,2565,0,0.3834687,6.546899,3.210955,-1
19,F,0,1,49,2,1,194,2,1254,0,0.3624184,6.514338,3.001136,-1
19,F,0,1,49,3,1,193,1,1920,0,0.04900054,6.356071,0.4215088,-1
19,F,0,1,49,4,2,195,3,1798,0,0.2846526,12.22491,1.316855,-1
19,F,0,1,49,5,2,194,2,1009,0,0.3993903,12.40214,1.799397,-1
19,F,0,1,49,6,1,195,3,2476,0,0.236355,6.308128,2.025647,-1
19,F,0,1,49,7,2,193,1,2231,1,0.695737,12.23706,3.201857,-1
19,F,0,1,49,8,2,196,4,753,0,0.7149223,12.41738,3.279248,-1
19,F,0,1,50,1,1,198,2,1354,0,0.2103508,6.515306,1.757249,-1
19,F,0,1,50,2,1,197,1,1365,0,0.2139385,6.354783,1.83856,-1
19,F,0,1,50,3,2,200,4,931,0,0.6321604,12.41545,2.88473,-1
19,F,0,1,50,4,2,197,1,2165,1,0.7698651,12.23038,3.577084,-1
19,F,0,1,50,5,2,199,3,1476,0,0.2015699,12.22657,0.9312522,-1
19,F,0,1,50,6,1,200,4,1931,0,4.404399E-08,6.553449,0,-1
19,F,0,1,50,7,1,199,3,3631,1,0.2292574,6.309266,1.971296,-1
19,F,0,1,50,8,2,198,2,965,0,0.3555689,12.40968,1.596794,-1
19,F,0,1,51,1,1,203,3,1931,0,0.1344744,6.304206,1.161633,-1
19,F,0,1,51,2,2,202,2,787,0,0.4179094,12.41479,1.873253,-1
19,F,0,1,51,3,2,203,3,3587,2,0.8022929,12.21603,3.720154,-1
19,F,0,1,51,4,2,204,4,942,0,0.6593198,12.41796,3.008172,-1
19,F,0,1,51,5,1,202,2,1242,0,0.2892093,6.519245,2.414029,-1
19,F,0,1,51,6,2,201,1,1276,0,0.9473526,12.2289,4.430758,-1
19,F,0,1,51,7,1,204,4,2031,0,0.3289894,6.550157,2.754064,-1
19,F,0,1,51,8,1,201,1,1642,0,0.3658054,6.364716,3.137312,-1
19,F,0,1,52,1,2,207,3,3953,0,0.734987,12.23276,3.406168,-1
19,F,0,1,52,2,2,208,4,1064,0,9.524881E-08,12.37175,0.01978234,-1
19,F,0,1,52,3,1,205,1,1320,0,0.4680695,6.32223,4.107181,-1
19,F,0,1,52,4,1,206,2,2287,1,0.4282348,6.464285,3.5831,-1
19,F,0,1,52,5,1,207,3,4465,0,0.2244174,6.287782,1.972586,-1
19,F,0,1,52,6,1,208,4,2865,0,0.3334203,6.534868,2.7919,-1
19,F,0,1,52,7,2,206,2,998,0,0.2616076,12.35535,1.181343,-1
19,F,0,1,52,8,2,205,1,1431,0,0.8068712,12.18727,3.770034,-1
19,F,0,1,53,1,2,211,3,2109,0,0.1321466,12.18713,0.608772,-1
19,F,0,1,53,2,1,209,1,1609,1,1.328563E-07,6.300661,0,-1
19,F,0,1,53,3,1,211,3,2309,0,0.1931694,6.286587,1.6876,-1
19,F,0,1,53,4,1,210,2,1831,0,0.4117009,6.464027,3.446169,-1
19,F,0,1,53,5,2,209,1,2642,0,0.4252409,12.18059,1.961842,-1
19,F,0,1,53,6,2,212,4,2120,1,0.08628193,12.36455,0.3901695,-1
19,F,0,1,53,7,2,210,2,1053,0,1.039361,12.35174,4.66703,-1
19,F,0,1,53,8,1,212,4,6009,2,0.4399571,6.539156,3.712726,-1
19,F,0,1,54,1,2,213,1,1920,0,0.375203,12.18167,1.742711,-1
19,F,0,1,54,2,1,215,3,2609,0,0.01560623,6.286774,0.1370561,-1
19,F,0,1,54,3,1,213,1,1387,0,0.4046202,6.292901,3.531582,-1
19,F,0,1,54,4,1,214,2,1687,0,0.1451845,6.460633,1.225411,-1
19,F,0,1,54,5,2,216,4,853,0,0.5673885,12.36071,2.601432,-1
19,F,0,1,54,6,2,214,2,1031,0,0.245377,12.34989,1.119775,-1
19,F,0,1,54,7,1,216,4,3965,1,0.1659344,6.526968,1.391283,-1
19,F,0,1,54,8,2,215,3,4842,2,0.1581211,12.16567,0.7316842,-1
19,F,0,1,55,1,2,220,4,853,0,0.1510188,12.35913,0.6827098,-1
19,F,0,1,55,2,2,218,2,3120,1,0.1331131,12.35139,0.605226,-1
19,F,0,1,55,3,1,220,4,3020,0,0.1222316,6.525419,1.017795,-1
19,F,0,1,55,4,1,217,1,1976,0,0.4481944,6.285097,3.944914,-1
19,F,0,1,55,5,1,218,2,2109,0,0.1179425,6.528644,0.9783881,-1
19,F,0,1,55,6,2,219,3,4309,3,0.7897795,12.22169,3.629521,-1
19,F,0,1,55,7,2,217,1,3020,0,0.5866075,12.24655,2.694063,-1
19,F,0,1,55,8,1,219,3,3020,1,0.3285994,6.301972,2.828816,-1
19,F,0,1,56,1,2,222,2,976,0,0.8230324,12.40462,3.677274,-1
19,F,0,1,56,2,2,224,4,1687,1,0.6068022,12.41077,2.77354,-1
19,F,0,1,56,3,1,222,2,3154,1,0.5272341,6.506866,4.423813,-1
19,F,0,1,56,4,1,224,4,1720,0,0.1450745,6.553144,1.201871,-1
19,F,0,1,56,5,2,221,1,2331,1,0.004167158,12.23326,0.01978234,-1
19,F,0,1,56,6,1,223,3,3242,0,0.2614256,6.3094,2.284391,-1
19,F,0,1,56,7,1,221,1,1709,0,0.02499705,6.343374,0.2158,-1
19,F,0,1,56,8,2,223,3,2342,0,7.834649E-08,12.19499,0,-1
19,F,0,1,57,1,3,226,2,2365,1,0.4005811,6.512219,3.355789,-1
19,F,0,1,57,2,4,227,3,1431,0,0.3751129,12.21188,1.741475,-1
19,F,0,1,57,3,3,228,4,4898,0,0.2684055,6.560515,2.281562,-1
19,F,0,1,57,4,3,225,1,1442,0,0.5130319,6.348361,4.435575,-1
19,F,0,1,57,5,4,228,4,1231,0,0.6945901,12.45315,3.109483,-1
19,F,0,1,57,6,4,226,2,853,0,0.7571239,12.40725,3.391941,-1
19,F,0,1,57,7,4,225,1,954,0,6.809731E-08,12.20361,0.01978234,-1
19,F,0,1,57,8,3,227,3,2931,0,0.03173283,6.304281,0.2755364,-1
19,F,0,1,58,1,4,229,1,2820,0,0.7739801,12.22965,3.550823,-1
19,F,0,1,58,2,3,231,3,2420,0,0.1052893,6.308644,0.9155711,-1
19,F,0,1,58,3,4,232,4,5987,0,0.06784342,12.41574,0.3058279,-1
19,F,0,1,58,4,3,229,1,2131,0,0.1466803,6.35492,1.265477,-1
19,F,0,1,58,5,3,232,4,2909,0,0.5114118,6.528204,4.27732,-1
19,F,0,1,58,6,4,230,2,1142,0,0.8228571,12.44459,3.689978,-1
19,F,0,1,58,7,4,231,3,2465,0,0.1265486,12.20841,0.5808088,-1
19,F,0,1,58,8,3,230,2,1365,0,0.3792365,6.503294,3.181923,-1
19,F,0,1,59,1,3,235,3,2942,0,0.3292934,6.282761,2.890289,-1
19,F,0,1,59,2,4,234,2,742,0,0.6194001,12.36601,2.797364,-1
19,F,0,1,59,3,4,236,4,1120,0,0.5243771,12.41056,2.401022,-1
19,F,0,1,59,4,3,233,1,1653,0,1.247318E-07,6.273246,0,-1
19,F,0,1,59,5,3,234,2,2542,1,1.864713E-07,6.46682,0,-1
19,F,0,1,59,6,4,233,1,3098,1,0.9811954,12.19944,4.575473,-1
19,F,0,1,59,7,4,235,3,2665,1,0.3562827,12.2089,1.643301,-1
19,F,0,1,59,8,3,236,4,3620,1,1.757944E-07,6.459871,0,-1
19,F,0,1,60,1,3,239,3,3320,0,0.4811495,6.262317,4.167251,-1
19,F,0,1,60,2,3,238,2,1842,0,0.03084626,6.418183,0.2609472,-1
19,F,0,1,60,3,3,240,4,3153,1,0.1644779,6.473948,1.377998,-1
19,F,0,1,60,4,4,237,1,5931,2,0.5117587,12.19216,2.357587,-1
19,F,0,1,60,5,4,238,2,1065,0,0.8291233,12.3613,3.813824,-1
19,F,0,1,60,6,4,239,3,4220,1,0.9070665,12.17552,4.23457,-1
19,F,0,1,60,7,3,237,1,1853,0,0.5126905,6.376958,4.460103,-1
19,F,0,1,60,8,4,240,4,865,0,0.1437813,12.39508,0.6546168,-1
19,F,0,1,61,1,2,242,2,1887,1,0.6521074,12.34525,2.95519,-1
19,F,0,1,61,2,2,243,3,2098,0,0.1711184,12.21307,0.7910526,-1
19,F,0,1,61,3,1,241,1,1854,0,0.2430855,6.319848,2.119233,-1
19,F,0,1,61,4,1,244,4,2609,0,0.5330129,6.469473,4.461683,-1
19,F,0,1,61,5,1,243,3,4453,1,0.5213931,6.258124,4.62618,-1
19,F,0,1,61,6,1,242,2,1953,0,0.3370664,6.469253,2.892726,-1
19,F,0,1,61,7,2,241,1,6875,2,0.6561843,12.16332,3.023362,-1
19,F,0,1,61,8,2,244,4,898,0,0.4869638,12.35264,2.229409,-1
19,F,0,1,62,1,1,245,1,1365,0,0.2146588,6.313579,1.871371,-1
19,F,0,1,62,2,2,246,2,1031,0,0.4296431,12.3194,1.975263,-1
19,F,0,1,62,3,2,247,3,2665,1,0.3679619,12.15742,1.713151,-1
19,F,0,1,62,4,1,246,2,1420,0,7.595568E-08,6.45914,0,-1
19,F,0,1,62,5,2,248,4,776,0,0.03180842,12.32209,0.14537,-1
19,F,0,1,62,6,2,245,1,2187,0,7.494736E-08,12.18225,0,-1
19,F,0,1,62,7,1,247,3,2376,0,0.2033931,6.24798,1.761475,-1
19,F,0,1,62,8,1,248,4,2764,0,0.311115,6.500199,2.63923,-1
19,F,0,1,1,1,5,3,3,2763,0,8.032616E-08,6.25864,0,-1
19,F,0,1,1,2,5,1,1,3542,0,6.359143,6.390473,84.30642,-1
19,F,0,1,1,3,7,3,3,5698,0,6.382413,6.382413,91.55359,-1
19,F,0,1,1,4,6,2,2,1653,0,5.712862,12.33802,27.58275,-1
19,F,0,1,1,5,8,4,4,5098,0,0.09252896,12.38401,0.4196478,-1
19,F,0,1,1,6,6,3,3,6741,0,6.251386,12.19678,30.83343,-1
19,F,0,1,1,7,7,1,1,2842,0,4.737914,6.346522,48.25771,-1
19,F,0,1,1,8,7,2,2,4953,0,1.846164,6.468671,15.84429,-1
19,F,0,1,1,9,7,4,4,3620,0,4.319498,6.492121,40.04671,-1
19,F,0,1,1,10,8,2,2,3753,0,4.652437,12.35495,22.12105,-1
19,F,0,1,1,11,8,1,1,4820,0,6.87561,12.21099,34.2682,-1
19,F,0,1,1,12,6,4,4,1798,0,3.781295,12.35028,17.73931,-1
19,F,0,1,1,13,8,3,3,2309,0,9.76241,12.20317,53.1291,-1
19,F,0,1,1,14,5,4,4,3053,0,1.105322,6.501073,9.414402,-1
19,F,0,1,1,15,5,2,2,2887,0,4.683778,6.495958,46.13955,-1
19,F,0,1,1,16,6,1,1,2653,0,3.836447,12.20022,18.32804,-1
19,F,0,1,2,1,8,4,4,2131,0,6.062296,12.37719,29.32715,-1
19,F,0,1,2,2,5,1,1,1609,0,4.662922,6.357722,47.107,-1
19,F,0,1,2,3,7,4,4,1365,0,5.198667,6.504851,53.05363,-1
19,F,0,1,2,4,8,3,3,3698,0,9.642105,12.20462,52.18899,-1
19,F,0,1,2,5,5,2,2,2187,0,3.866847,6.494812,34.54023,-1
19,F,0,1,2,6,7,3,3,1231,0,4.605809,6.322659,44.2219,-1
19,F,0,1,2,7,6,1,1,1431,0,4.042027,12.20452,19.21609,-1
19,F,0,1,2,8,6,3,3,4487,0,4.078878,12.20559,19.33335,-1
19,F,0,1,2,9,6,2,2,4098,0,6.65464,12.35625,32.58598,-1
19,F,0,1,2,10,6,4,4,1598,0,3.307198,12.35386,15.22762,-1
19,F,0,1,2,11,8,1,1,1742,0,3.649085,12.20303,17.28782,-1
19,F,0,1,2,12,7,2,2,3442,0,6.446236,6.505562,82.25627,-1
19,F,0,1,2,13,5,4,4,1953,0,5.997009,6.518566,66.92449,-1
19,F,0,1,2,14,8,2,2,1553,0,5.129732,12.34085,24.56157,-1
19,F,0,1,2,15,5,3,3,1187,0,5.819409,6.292991,67.62987,-1
19,F,0,1,2,16,7,1,1,1042,0,5.533654,6.347264,60.58811,-1
