Age, Gender, Awareness Type, Session, Block, Trial, Set, Pattern, Quadrant, Response Time, Num Mistakes, Distance From Target, Camera Distance From Target, Angle Error (Degrees), FC Response
19,F,0,1,1,1,2,2,2,1264,0,0.6707472,12.35635,3.022909,-1
19,F,0,1,1,2,1,3,3,2720,0,0.01019424,6.175773,0.09065409,-1
19,F,0,1,1,3,1,1,1,5409,0,9.45758E-08,6.21285,0,-1
19,F,0,1,1,4,1,4,4,4531,0,0.4353884,6.29526,3.815467,-1
19,F,0,1,1,5,2,3,3,1498,0,0.3431815,12.15145,1.585849,-1
19,F,0,1,1,6,1,2,2,4420,0,0.5038448,6.454478,4.204679,-1
19,F,0,1,1,7,2,1,1,1331,0,1.049134,12.25152,4.772534,-1
19,F,0,1,1,8,2,4,4,2998,0,0.1969522,12.22995,0.8989637,-1
19,F,0,1,2,1,2,7,3,2853,0,0.1431955,12.13695,0.6629335,-1
19,F,0,1,2,2,1,8,4,5509,1,1.234795E-07,6.270883,0.01978234,-1
19,F,0,1,2,3,1,6,2,3320,1,2.513789E-07,6.452729,0,-1
19,F,0,1,2,4,1,7,3,4598,0,1.134872E-07,6.185992,0,-1
19,F,0,1,2,5,2,5,1,4376,0,0.8466153,12.23779,3.920415,-1
19,F,0,1,2,6,2,8,4,9999,4,-1,-1,-1,-1
19,F,0,1,2,7,1,5,1,2053,0,4.542645E-08,6.161883,0,-1
19,F,0,1,2,8,2,6,2,3875,2,0.01439797,12.3219,0.0656106,-1
19,F,0,1,3,1,1,12,4,3442,0,0.04393065,6.252128,0.3846134,-1
19,F,0,1,3,2,2,9,1,2464,0,0.4432733,12.22122,2.044784,-1
19,F,0,1,3,3,2,10,2,2164,1,0.4634413,12.32258,2.097232,-1
19,F,0,1,3,4,1,11,3,3498,0,0.5099531,6.145513,4.612823,-1
19,F,0,1,3,5,1,9,1,1853,0,0.0176122,6.153273,0.1557664,-1
19,F,0,1,3,6,2,12,4,3164,0,0.2705993,12.20618,1.238279,-1
19,F,0,1,3,7,2,11,3,2531,0,0.864077,12.11859,4.02555,-1
19,F,0,1,3,8,1,10,2,6676,2,0.2753981,6.432595,2.374793,-1
19,F,0,1,4,1,2,15,3,2787,0,0.7733417,12.13496,3.601088,-1
19,F,0,1,4,2,1,16,4,3886,0,0.3779425,6.264655,3.318063,-1
19,F,0,1,4,3,2,14,2,1731,0,0.9231449,12.31683,4.169224,-1
19,F,0,1,4,4,1,13,1,2476,0,0.08173534,6.162455,0.7233464,-1
19,F,0,1,4,5,1,14,2,1787,0,0.3349899,6.420054,2.841107,-1
19,F,0,1,4,6,2,16,4,2175,0,0.2999261,12.199,1.383808,-1
19,F,0,1,4,7,1,15,3,3664,0,0.2937924,6.15615,2.635891,-1
19,F,0,1,4,8,2,13,1,5864,1,0.1791515,12.22499,0.8244823,-1
19,F,0,1,5,1,2,18,2,2264,1,0.04156104,12.31958,0.1887116,-1
19,F,0,1,5,2,2,17,1,2131,0,0.4117821,12.2198,1.878678,-1
19,F,0,1,5,3,1,20,4,3598,0,0.2789495,6.236165,2.466169,-1
19,F,0,1,5,4,1,19,3,2131,0,0.4946918,6.147844,4.413085,-1
19,F,0,1,5,5,1,17,1,1776,0,0.2731962,6.15427,2.431319,-1
19,F,0,1,5,6,1,18,2,3676,2,0.236776,6.416493,2.019551,-1
19,F,0,1,5,7,2,20,4,1542,0,0.871021,12.1947,3.97434,-1
19,F,0,1,5,8,2,19,3,2331,0,2.470029E-07,12.11108,0,-1
19,F,0,1,6,1,2,22,2,3953,0,4.876417E-08,12.31991,0,-1
19,F,0,1,6,2,1,24,4,3120,0,0.3618368,6.247442,3.194205,-1
19,F,0,1,6,3,1,22,2,2787,0,0.3162886,6.409961,2.663887,-1
19,F,0,1,6,4,2,21,1,1520,0,0.3389957,12.21316,1.559594,-1
19,F,0,1,6,5,2,23,3,2098,0,0.6617241,12.10233,3.097119,-1
19,F,0,1,6,6,1,21,1,1831,0,0.4298364,6.152987,3.896767,-1
19,F,0,1,6,7,2,24,4,1831,0,0.01010499,12.19927,0.04845664,-1
19,F,0,1,6,8,1,23,3,3009,0,0.2835881,6.147062,2.534509,-1
19,F,0,1,7,1,1,28,4,3665,0,0.2690881,6.250061,2.344934,-1
19,F,0,1,7,2,2,26,2,3153,0,0.4798735,12.31468,2.199625,-1
19,F,0,1,7,3,2,25,1,3076,0,0.2315871,12.22629,1.073196,-1
19,F,0,1,7,4,2,27,3,1320,0,0.05364704,12.12071,0.2486604,-1
19,F,0,1,7,5,1,25,1,2498,0,2.771805E-07,6.174314,0,-1
19,F,0,1,7,6,1,27,3,1854,0,0.1935504,6.166713,1.72873,-1
19,F,0,1,7,7,1,26,2,4031,2,0.1968611,6.427414,1.689223,-1
19,F,0,1,7,8,2,28,4,1086,0,0.8638442,12.20926,4.005213,-1
19,F,0,1,8,1,2,30,2,3631,0,0.01648597,12.32115,0.07401875,-1
19,F,0,1,8,2,2,31,3,4064,0,0.2281452,12.12428,1.061647,-1
19,F,0,1,8,3,2,29,1,1698,0,0.1093691,12.22808,0.501241,-1
19,F,0,1,8,4,1,32,4,2531,0,0.4618296,6.257252,4.071648,-1
19,F,0,1,8,5,1,29,1,2131,0,0.04046962,6.158121,0.3609945,-1
19,F,0,1,8,6,1,30,2,4253,2,0.3453954,6.426346,2.949089,-1
19,F,0,1,8,7,1,31,3,1587,0,0.2168442,6.145019,1.944205,-1
19,F,0,1,8,8,2,32,4,5209,0,1.763069E-07,12.20234,0,-1
19,F,0,1,9,1,1,35,3,1442,0,0.2425273,6.175572,2.152223,-1
19,F,0,1,9,2,1,34,2,2731,0,0.3717629,6.442915,3.113133,-1
19,F,0,1,9,3,2,36,4,1042,0,0.6591756,12.21335,3.018177,-1
19,F,0,1,9,4,2,35,3,1220,0,0.368958,12.12767,1.716232,-1
19,F,0,1,9,5,2,33,1,1853,0,0.3512481,12.23138,1.629668,-1
19,F,0,1,9,6,1,36,4,4076,0,0.1569311,6.256195,1.368307,-1
19,F,0,1,9,7,1,33,1,3098,0,0.1114099,6.16222,0.9905132,-1
19,F,0,1,9,8,2,34,2,3098,0,0.9504089,12.31676,4.290122,-1
19,F,0,1,10,1,1,37,1,2287,0,6.132166E-08,6.173743,0,-1
19,F,0,1,10,2,2,40,4,1909,0,0.4104955,12.21078,1.864981,-1
19,F,0,1,10,3,1,38,2,1653,0,0.5462196,6.417441,4.63743,-1
19,F,0,1,10,4,1,40,4,1342,0,0.2444451,6.255926,2.12946,-1
19,F,0,1,10,5,1,39,3,3431,0,0.1031451,6.176837,0.9155711,-1
19,F,0,1,10,6,2,37,1,2253,0,0.3968448,12.22412,1.8426,-1
19,F,0,1,10,7,2,38,2,2253,1,0.6574736,12.32162,3.026986,-1
19,F,0,1,10,8,2,39,3,1876,0,0.7114394,12.12726,3.315289,-1
19,F,0,1,11,1,1,41,1,2842,0,1.157766E-07,6.157713,0,-1
19,F,0,1,11,2,2,43,3,1731,0,0.1062733,12.12,0.4933717,-1
19,F,0,1,11,3,2,44,4,1220,0,0.8525851,12.208,3.874442,-1
19,F,0,1,11,4,1,42,2,2353,0,0.1976806,6.415607,1.668474,-1
19,F,0,1,11,5,2,41,1,1354,0,0.3552702,12.22082,1.621603,-1
19,F,0,1,11,6,1,43,3,1564,0,0.09890591,6.159266,0.8829308,-1
19,F,0,1,11,7,1,44,4,2320,0,0.1787421,6.248783,1.576691,-1
19,F,0,1,11,8,2,42,2,2498,0,0.3123529,12.31316,1.417065,-1
19,F,0,1,12,1,1,48,4,4087,1,0.06522059,6.244987,0.5699261,-1
19,F,0,1,12,2,2,45,1,1720,0,0.1135292,12.21693,0.5226451,-1
19,F,0,1,12,3,2,47,3,2076,0,0.4014662,12.11159,1.872208,-1
19,F,0,1,12,4,1,46,2,2031,0,0.3593461,6.408226,3.029184,-1
19,F,0,1,12,5,1,47,3,1464,0,0.3985066,6.162955,3.545195,-1
19,F,0,1,12,6,2,46,2,1376,0,0.4438387,12.31956,2.032688,-1
19,F,0,1,12,7,2,48,4,1364,0,0.4846026,12.19968,2.21302,-1
19,F,0,1,12,8,1,45,1,1987,0,0.04503739,6.162395,0.4020255,-1
19,F,0,1,13,1,1,51,3,2420,0,0.2391958,6.167734,2.126425,-1
19,F,0,1,13,2,1,50,2,1731,0,0.1211347,6.428928,1.024311,-1
19,F,0,1,13,3,1,52,4,2720,0,0.2699188,6.252586,2.369512,-1
19,F,0,1,13,4,1,49,1,1754,0,1.331925E-07,6.163064,0,-1
19,F,0,1,13,5,2,51,3,1487,0,1.001388,12.10957,4.700863,-1
19,F,0,1,13,6,2,52,4,1431,0,0.7263513,12.2093,3.294971,-1
19,F,0,1,13,7,2,50,2,1687,1,0.5719123,12.31452,2.59533,-1
19,F,0,1,13,8,2,49,1,3109,0,0.3809572,12.2266,1.768129,-1
19,F,0,1,14,1,1,54,2,3198,1,6.329124E-08,6.431546,0,-1
19,F,0,1,14,2,2,56,4,1009,0,0.268616,12.20857,1.227007,-1
19,F,0,1,14,3,2,55,3,4442,0,0.6421998,12.14099,2.985046,-1
19,F,0,1,14,4,1,53,1,2398,0,0.1456345,6.165616,1.296337,-1
19,F,0,1,14,5,2,54,2,1753,0,0.1981768,12.32156,0.8996165,-1
19,F,0,1,14,6,1,55,3,3120,0,4.619976E-07,6.176504,0,-1
19,F,0,1,14,7,2,53,1,3976,0,0.893375,12.25699,4.138957,-1
19,F,0,1,14,8,1,56,4,3709,0,0.3174242,6.266596,2.758325,-1
19,F,0,1,15,1,2,59,3,1487,0,0.1461231,12.13172,0.6743467,-1
19,F,0,1,15,2,2,58,2,1231,0,0.3853572,12.33212,1.745179,-1
19,F,0,1,15,3,1,59,3,3442,0,0.01274411,6.182004,0.1119058,-1
19,F,0,1,15,4,1,60,4,3142,0,1.645065E-07,6.265554,0,-1
19,F,0,1,15,5,1,57,1,3142,0,1.488089E-07,6.171348,0,-1
19,F,0,1,15,6,1,58,2,1787,0,0.3828994,6.420824,3.247331,-1
19,F,0,1,15,7,2,60,4,1542,0,0.4299763,12.20734,1.991348,-1
19,F,0,1,15,8,2,57,1,1387,0,0.5166827,12.22595,2.384498,-1
19,F,0,1,16,1,1,64,4,3565,0,1.464037E-07,6.264949,0,-1
19,F,0,1,16,2,2,62,2,5453,0,0.6633777,12.3317,3.050436,-1
19,F,0,1,16,3,1,63,3,2098,0,0.1477108,6.169469,1.311942,-1
19,F,0,1,16,4,2,64,4,1742,0,0.003815203,12.21348,0.01978234,-1
19,F,0,1,16,5,2,61,1,1364,0,0.3250637,12.22545,1.50792,-1
19,F,0,1,16,6,1,62,2,1976,0,0.15881,6.421818,1.340129,-1
19,F,0,1,16,7,2,63,3,4831,0,0.8642202,12.13769,4.0342,-1
19,F,0,1,16,8,1,61,1,1342,0,7.939999E-08,6.1725,0,-1
19,F,0,1,17,1,4,66,2,1453,0,0.4640214,12.33092,2.118495,-1
19,F,0,1,17,2,3,65,1,1476,0,0.1075628,6.203639,0.9518273,-1
19,F,0,1,17,3,3,67,3,3320,0,0.2961513,6.163328,2.652989,-1
19,F,0,1,17,4,4,65,1,1720,0,0.08356071,12.24877,0.3846134,-1
19,F,0,1,17,5,4,68,4,2442,0,0.1837606,12.2507,0.8400003,-1
19,F,0,1,17,6,4,67,3,3820,0,0.1195343,12.06358,0.5546138,-1
19,F,0,1,17,7,3,66,2,3242,0,6.635504E-08,6.431369,0,-1
19,F,0,1,17,8,3,68,4,2187,0,0.4335575,6.243283,3.817057,-1
19,F,0,1,18,1,3,70,2,1398,0,0.2741973,6.43332,2.312915,-1
19,F,0,1,18,2,4,72,4,2742,0,0.6680881,12.23283,3.073261,-1
19,F,0,1,18,3,4,71,3,1709,0,0.5059963,12.05962,2.35933,-1
19,F,0,1,18,4,4,70,2,1797,0,0.8824491,12.33094,3.985263,-1
19,F,0,1,18,5,4,69,1,1365,0,0.8658589,12.2399,4.004382,-1
19,F,0,1,18,6,3,71,3,2642,0,2.143197E-07,6.168569,0,-1
19,F,0,1,18,7,3,69,1,1776,0,0.08078188,6.175311,0.7181882,-1
19,F,0,1,18,8,3,72,4,3765,0,0.1634951,6.231898,1.42807,-1
19,F,0,1,19,1,4,75,3,3531,0,0.1214137,12.12978,0.5623221,-1
19,F,0,1,19,2,3,76,4,3687,1,0.1748586,6.247289,1.538878,-1
19,F,0,1,19,3,3,74,2,1620,0,0.2053927,6.457472,1.759586,-1
19,F,0,1,19,4,4,73,1,1620,0,0.5598381,12.23961,2.585734,-1
19,F,0,1,19,5,3,75,3,3564,0,2.576102E-09,6.139412,0,-1
19,F,0,1,19,6,3,73,1,1465,0,0.3742691,6.160882,3.319833,-1
19,F,0,1,19,7,4,74,2,2976,0,0.1403621,12.38002,0.6407191,-1
19,F,0,1,19,8,4,76,4,1665,0,0.4802552,12.23278,2.182744,-1
19,F,0,1,20,1,3,79,3,2654,0,0.07755769,6.149517,0.6884183,-1
19,F,0,1,20,2,4,80,4,1354,0,0.2198747,12.20977,1.00736,-1
19,F,0,1,20,3,4,78,2,1620,0,0.9361148,12.37075,4.225912,-1
19,F,0,1,20,4,3,77,1,1709,0,9.19885E-08,6.167996,0,-1
19,F,0,1,20,5,3,78,2,1898,0,0.2454971,6.462074,2.065828,-1
19,F,0,1,20,6,4,79,3,1620,0,2.664701E-07,12.06055,0,-1
19,F,0,1,20,7,3,80,4,3098,0,0.1755524,6.225105,1.543069,-1
19,F,0,1,20,8,4,77,1,1253,0,1.218421E-07,12.18837,0,-1
19,F,0,1,20,1,1,79,3,1965,0,0.04599348,6.146826,0.4102162,-1
19,F,0,1,20,2,2,78,2,2087,0,0.4859267,12.33006,2.2062,-1
19,F,0,1,20,3,1,77,1,2120,1,0.3467454,6.165779,3.097498,-1
19,F,0,1,20,4,2,80,4,1876,0,0.6581574,12.22075,2.987013,-1
19,F,0,1,20,5,2,79,3,1342,0,0.6893946,12.12823,3.209186,-1
19,F,0,1,20,6,1,80,4,3831,0,0.2356526,6.245899,2.05538,-1
19,F,0,1,20,7,1,78,2,2865,0,1.146479E-07,6.431785,0,-1
19,F,0,1,20,8,2,77,1,3131,0,0.3436732,12.22573,1.595446,-1
19,F,0,1,21,1,2,82,2,1087,0,0.552947,12.34997,2.494028,-1
19,F,0,1,21,2,2,83,3,1486,0,1.025059,12.16823,4.722358,-1
19,F,0,1,21,3,2,84,4,4264,0,1.026426,12.23517,4.668834,-1
19,F,0,1,21,4,1,81,1,1787,0,0.2909619,6.201776,2.570169,-1
19,F,0,1,21,5,1,83,3,2365,0,2.039172E-07,6.167011,0,-1
19,F,0,1,21,6,1,84,4,2998,0,2.113658E-08,6.275401,0,-1
19,F,0,1,21,7,1,82,2,2242,0,0.1750422,6.479158,1.4642,-1
19,F,0,1,21,8,2,81,1,1765,0,1.363076E-07,12.26123,0,-1
19,F,0,1,22,1,1,86,2,2942,0,0.4367063,6.478175,3.64889,-1
19,F,0,1,22,2,1,87,3,3276,0,0.09028231,6.15908,0.8060005,-1
19,F,0,1,22,3,1,88,4,2187,0,0.008642809,6.277536,0.07401875,-1
19,F,0,1,22,4,2,85,1,1353,0,0.06670814,12.25448,0.3045456,-1
19,F,0,1,22,5,2,86,2,1087,0,0.7937825,12.35995,3.572867,-1
19,F,0,1,22,6,2,87,3,2364,0,0.05916139,12.1384,0.2748253,-1
19,F,0,1,22,7,1,85,1,1531,0,8.719105E-08,6.179481,0,-1
19,F,0,1,22,8,2,88,4,1887,0,0.9766203,12.23198,4.474702,-1
19,F,0,1,23,1,1,89,1,1365,0,0.1522436,6.186357,1.358835,-1
19,F,0,1,23,2,1,92,4,2820,0,0.1207314,6.267292,1.050716,-1
19,F,0,1,23,3,1,91,3,3142,0,0.09401476,6.173745,0.8341562,-1
19,F,0,1,23,4,2,89,1,1287,0,0.1965772,12.26662,0.9035233,-1
19,F,0,1,23,5,1,90,2,1376,0,0.08278385,6.486883,0.6935157,-1
19,F,0,1,23,6,2,91,3,1576,0,0.6260827,12.14389,2.918328,-1
19,F,0,1,23,7,2,90,2,1054,0,0.8493458,12.37869,3.824796,-1
19,F,0,1,23,8,2,92,4,2409,0,0.6490829,12.24509,2.987144,-1
19,F,0,1,24,1,1,93,1,1553,0,9.970135E-08,6.195116,0,-1
19,F,0,1,24,2,1,95,3,2542,0,4.704701E-08,6.161661,0,-1
19,F,0,1,24,3,2,94,2,1109,0,0.1234855,12.36699,0.5595313,-1
19,F,0,1,24,4,2,93,1,1587,0,0.6140472,12.25348,2.829785,-1
19,F,0,1,24,5,2,95,3,1987,0,0.9698496,12.13298,4.514881,-1
19,F,0,1,24,6,2,96,4,2442,0,0.4561255,12.23544,2.076694,-1
19,F,0,1,24,7,1,94,2,1609,1,0.1295127,6.475756,1.085164,-1
19,F,0,1,24,8,1,96,4,2953,0,9.601304E-08,6.287958,0,-1
19,F,0,1,25,1,2,98,2,1042,0,0.5482204,12.37691,2.467597,-1
19,F,0,1,25,2,2,97,1,2231,1,0.2748579,12.26829,1.26176,-1
19,F,0,1,25,3,2,99,3,1409,0,0.5616947,12.13781,2.611795,-1
19,F,0,1,25,4,1,100,4,3376,0,0.1019873,6.275142,0.8941622,-1
19,F,0,1,25,5,1,97,1,2487,1,1.932842E-08,6.188931,0,-1
19,F,0,1,25,6,2,100,4,2809,0,0.3833123,12.24157,1.760253,-1
19,F,0,1,25,7,1,98,2,1487,0,0.5388233,6.477577,4.476453,-1
19,F,0,1,25,8,1,99,3,2020,0,0.2377552,6.158222,2.115999,-1
19,F,0,1,26,1,1,101,1,1587,0,0.008231957,6.197939,0.07401875,-1
19,F,0,1,26,2,2,104,4,2631,0,0.7350706,12.24153,3.327667,-1
19,F,0,1,26,3,1,102,2,1554,0,0.3012441,6.485487,2.510454,-1
19,F,0,1,26,4,2,103,3,2531,0,0.3761068,12.13593,1.748988,-1
19,F,0,1,26,5,2,101,1,1254,0,0.5973479,12.26021,2.751504,-1
19,F,0,1,26,6,2,102,2,1031,0,0.765036,12.36867,3.441621,-1
19,F,0,1,26,7,1,103,3,2242,0,0.1924598,6.180181,1.706971,-1
19,F,0,1,26,8,1,104,4,3987,0,0.2373674,6.269919,2.062225,-1
19,F,0,1,27,1,1,105,1,2798,0,0.05862055,6.199953,0.5200178,-1
19,F,0,1,27,2,1,107,3,1587,0,0.1540111,6.178474,1.365301,-1
19,F,0,1,27,3,2,108,4,2575,0,0.3730288,12.23892,1.699157,-1
19,F,0,1,27,4,2,105,1,1742,0,0.3571049,12.25426,1.653984,-1
19,F,0,1,27,5,2,106,2,1853,0,0.0854521,12.38866,0.3871488,-1
19,F,0,1,27,6,2,107,3,4231,3,0.4960319,12.11762,2.309782,-1
19,F,0,1,27,7,1,108,4,2876,0,0.1836357,6.246341,1.60291,-1
19,F,0,1,27,8,1,106,2,1798,0,0.01364239,6.433177,0.1153499,-1
19,F,0,1,28,1,1,112,4,2520,0,0.03232153,6.26428,0.2832403,-1
19,F,0,1,28,2,1,111,3,1842,0,0.01231692,6.169882,0.1065312,-1
19,F,0,1,28,3,2,110,2,1465,0,0.8714473,12.33619,3.985706,-1
19,F,0,1,28,4,2,111,3,6798,0,0.3003436,12.15896,1.386492,-1
19,F,0,1,28,5,2,109,1,1120,0,0.08008417,12.26321,0.3669084,-1
19,F,0,1,28,6,2,112,4,1509,0,0.5719146,12.23572,2.603764,-1
19,F,0,1,28,7,1,109,1,1431,0,0.07018141,6.20131,0.6255757,-1
19,F,0,1,28,8,1,110,2,1564,0,0.1436686,6.452332,1.228123,-1
19,F,0,1,29,1,2,113,1,1387,0,0.6573344,12.22826,3.037831,-1
19,F,0,1,29,2,1,116,4,3953,2,0.2683532,6.246096,2.362149,-1
19,F,0,1,29,3,1,114,2,1865,0,1.518694E-07,6.445753,0,-1
19,F,0,1,29,4,1,115,3,1865,0,0.3133156,6.143822,2.796944,-1
19,F,0,1,29,5,2,116,4,1253,0,0.4187129,12.21722,1.900222,-1
19,F,0,1,29,6,2,114,2,1498,0,0.729577,12.31957,3.296456,-1
19,F,0,1,29,7,1,113,1,1809,0,5.054308E-08,6.1875,0,-1
19,F,0,1,29,8,2,115,3,1853,0,0.9898005,12.10094,4.619061,-1
19,F,0,1,30,1,2,117,1,1198,0,0.6327007,12.23279,2.935917,-1
19,F,0,1,30,2,2,118,2,1131,0,1.047737,12.30085,4.733462,-1
19,F,0,1,30,3,1,117,1,1765,0,0.1284474,6.197974,1.148077,-1
19,F,0,1,30,4,1,119,3,2776,0,0.1185661,6.180188,1.051833,-1
19,F,0,1,30,5,2,120,4,1587,0,0.5946646,12.23232,2.706242,-1
19,F,0,1,30,6,1,118,2,2131,0,0.2614736,6.449184,2.192317,-1
19,F,0,1,30,7,1,120,4,2542,0,0.1727173,6.298236,1.510643,-1
19,F,0,1,30,8,2,119,3,1398,0,0.5603503,12.16565,2.578912,-1
19,F,0,1,31,1,1,124,4,2620,0,0.06438132,6.272062,0.5647526,-1
19,F,0,1,31,2,1,123,3,2398,0,0.1124659,6.183205,0.9972074,-1
19,F,0,1,31,3,2,122,2,2298,0,0.3819235,12.33085,1.736073,-1
19,F,0,1,31,4,2,124,4,1654,0,0.2429158,12.21291,1.120649,-1
19,F,0,1,31,5,2,123,3,4676,0,0.4619924,12.1522,2.133225,-1
19,F,0,1,31,6,1,121,1,3031,0,0.0478151,6.194748,0.4261257,-1
19,F,0,1,31,7,1,122,2,1387,0,0.3480104,6.455399,2.909662,-1
19,F,0,1,31,8,2,121,1,1142,0,0.5723239,12.24329,2.653358,-1
19,F,0,1,32,1,1,126,2,1287,0,0.2175883,6.458561,1.82349,-1
19,F,0,1,32,2,1,128,4,2720,0,0.2698522,6.27126,2.372649,-1
19,F,0,1,32,3,2,126,2,1176,0,0.6109159,12.35832,2.779885,-1
19,F,0,1,32,4,2,128,4,1198,0,0.8216113,12.25331,3.720102,-1
19,F,0,1,32,5,2,125,1,3109,2,0.2198199,12.25188,1.015293,-1
19,F,0,1,32,6,1,127,3,1865,0,0.01292638,6.16958,0.1119058,-1
19,F,0,1,32,7,1,125,1,1331,0,0.03379585,6.201102,0.2987072,-1
19,F,0,1,32,8,2,127,3,1365,0,0.6769218,12.1293,3.14983,-1
19,F,0,1,33,1,1,132,4,2198,1,0.4777066,6.261915,4.152751,-1
19,F,0,1,33,2,1,129,1,1220,0,0.2445057,6.195149,2.182654,-1
19,F,0,1,33,3,1,130,2,1909,0,0.3828754,6.456934,3.198554,-1
19,F,0,1,33,4,2,129,1,1853,0,0.720651,12.24157,3.342226,-1
19,F,0,1,33,5,2,132,4,3220,0,0.6736412,12.22138,3.109421,-1
19,F,0,1,33,6,1,131,3,2142,0,1.055113E-07,6.190372,0,-1
19,F,0,1,33,7,2,130,2,2420,0,0.572007,12.32598,2.611195,-1
19,F,0,1,33,8,2,131,3,2276,0,0.8608606,12.14468,4.001985,-1
19,F,0,1,34,1,2,133,1,1887,0,0.8392648,12.25467,3.889172,-1
19,F,0,1,34,2,2,136,4,1553,0,0.1281796,12.24528,0.5841681,-1
19,F,0,1,34,3,1,133,1,2109,0,0.2235217,6.192665,1.985541,-1
19,F,0,1,34,4,2,134,2,909,0,0.6029061,12.34693,2.721604,-1
19,F,0,1,34,5,1,136,4,2987,0,0.2031465,6.265039,1.780592,-1
19,F,0,1,34,6,2,135,3,1498,0,0.01897086,12.14514,0.08846933,-1
19,F,0,1,34,7,1,134,2,1654,0,0.2136287,6.437572,1.803959,-1
19,F,0,1,34,8,1,135,3,2265,0,1.697502E-07,6.199934,0,-1
19,F,0,1,35,1,2,140,4,2431,0,0.3799058,12.2521,1.728277,-1
19,F,0,1,35,2,1,138,2,2176,0,0.04339545,6.464878,0.365305,-1
19,F,0,1,35,3,1,139,3,2320,0,0.4691182,6.187142,4.160336,-1
19,F,0,1,35,4,1,140,4,2120,0,0.1546333,6.264454,1.360419,-1
19,F,0,1,35,5,2,137,1,1353,0,0.7554656,12.27265,3.483858,-1
19,F,0,1,35,6,2,139,3,1797,0,0.7545677,12.13876,3.526756,-1
19,F,0,1,35,7,1,137,1,1387,0,0.03121084,6.197596,0.276953,-1
19,F,0,1,35,8,2,138,2,1142,0,0.08578307,12.3469,0.3896677,-1
19,F,0,1,37,1,3,147,3,2820,0,0.01961036,6.192765,0.1735894,-1
19,F,0,1,37,2,3,146,2,2198,0,0.3637645,6.506304,3.06107,-1
19,F,0,1,37,3,3,145,1,2676,0,0.1919968,6.208637,1.713379,-1
19,F,0,1,37,4,4,147,3,1976,1,0.3715441,12.12922,1.72181,-1
19,F,0,1,37,5,4,146,2,2076,1,0.3123079,12.34166,1.412362,-1
19,F,0,1,37,6,4,148,4,1087,0,0.6069071,12.25042,2.764067,-1
19,F,0,1,37,7,4,145,1,1087,0,0.7707472,12.2478,3.572319,-1
19,F,0,1,37,8,3,148,4,3487,0,0.07925241,6.275409,0.6892704,-1
19,F,0,1,38,1,4,149,1,1198,0,0.3373208,12.24707,1.557585,-1
19,F,0,1,38,2,4,151,3,1187,0,0.675274,12.12115,3.15275,-1
19,F,0,1,38,3,4,150,2,1153,0,0.4613267,12.3448,2.084502,-1
19,F,0,1,38,4,4,152,4,1909,1,0.5769848,12.26951,2.615016,-1
19,F,0,1,38,5,3,151,3,2542,0,1.649779E-07,6.212491,0,-1
19,F,0,1,38,6,3,149,1,2331,0,0.5073916,6.221813,4.487379,-1
19,F,0,1,38,7,3,150,2,1375,0,0.190187,6.481636,1.58967,-1
19,F,0,1,38,8,3,152,4,2264,0,0.1691789,6.244601,1.469936,-1
19,F,0,1,39,1,4,154,2,1242,0,0.9610941,12.34671,4.38508,-1
19,F,0,1,39,2,3,153,1,2942,0,1.436066E-07,6.207371,0,-1
19,F,0,1,39,3,3,154,2,3387,0,4.395398E-07,6.48637,0,-1
19,F,0,1,39,4,3,155,3,2620,0,8.022631E-08,6.162302,0,-1
19,F,0,1,39,5,4,156,4,1331,0,0.1360359,12.23274,0.6208661,-1
19,F,0,1,39,6,4,153,1,1787,0,0.9250479,12.21316,4.296235,-1
19,F,0,1,39,7,3,156,4,2353,0,0.07529412,6.263844,0.6555129,-1
19,F,0,1,39,8,4,155,3,6964,3,0.168112,12.14475,0.7770769,-1
19,F,0,1,40,1,3,157,1,1998,0,0.05298498,6.219442,0.466462,-1
19,F,0,1,40,2,4,158,2,898,0,0.9446614,12.33738,4.258828,-1
19,F,0,1,40,3,3,160,4,2442,0,0.1402695,6.260798,1.225731,-1
19,F,0,1,40,4,3,158,2,1654,0,0.3356794,6.487294,2.856019,-1
19,F,0,1,40,5,3,159,3,2375,0,0.07694561,6.177791,0.6792617,-1
19,F,0,1,40,6,4,157,1,1831,0,0.9395256,12.23828,4.358737,-1
19,F,0,1,40,7,4,160,4,1365,0,0.4934154,12.21915,2.287559,-1
19,F,0,1,40,8,4,159,3,1854,0,0.2270074,12.10757,1.049412,-1
19,F,0,1,41,1,1,161,1,1198,0,0.1354839,6.18598,1.199915,-1
19,F,0,1,41,2,2,163,3,1042,0,2.584684E-07,12.14409,0,-1
19,F,0,1,41,3,2,162,2,1176,0,0.4000097,12.36857,1.819299,-1
19,F,0,1,41,4,1,163,3,2376,0,0.04884518,6.172871,0.4347627,-1
19,F,0,1,41,5,1,164,4,2542,0,0.0558655,6.263079,0.4893896,-1
19,F,0,1,41,6,2,161,1,1275,0,0.2136383,12.29119,0.9841712,-1
19,F,0,1,41,7,2,164,4,1431,0,0.3059593,12.21509,1.415545,-1
19,F,0,1,41,8,1,162,2,3598,0,0.03604796,6.449015,0.3051875,-1
19,F,0,1,42,1,1,168,4,2297,0,0.4825906,6.269632,4.212079,-1
19,F,0,1,42,2,1,165,1,1243,0,0.198497,6.215949,1.749659,-1
19,F,0,1,42,3,2,167,3,2431,0,8.576173E-08,12.13612,0,-1
19,F,0,1,42,4,2,165,1,1186,0,0.5341027,12.24867,2.460766,-1
19,F,0,1,42,5,2,166,2,2431,1,0.3801663,12.34853,1.718283,-1
19,F,0,1,42,6,1,167,3,1664,0,0.4227917,6.163197,3.762911,-1
19,F,0,1,42,7,2,168,4,6164,0,3.433839E-07,12.23783,0,-1
19,F,0,1,42,8,1,166,2,2920,0,0.1861903,6.448076,1.582761,-1
19,F,0,1,43,1,1,169,1,1387,0,1.367016E-07,6.185289,0,-1
19,F,0,1,43,2,2,170,2,986,0,0.4331164,12.31387,1.962241,-1
19,F,0,1,43,3,1,171,3,1920,0,0.1111764,6.151436,0.9940628,-1
19,F,0,1,43,4,1,172,4,2820,1,1.100208E-07,6.279576,0,-1
19,F,0,1,43,5,2,169,1,2453,0,0.9741694,12.26291,4.512364,-1
19,F,0,1,43,6,2,171,3,2942,0,0.3494343,12.12827,1.625219,-1
19,F,0,1,43,7,2,172,4,1653,0,0.8098266,12.2125,3.753533,-1
19,F,0,1,43,8,1,170,2,2108,0,0.1802543,6.456109,1.533528,-1
19,F,0,1,44,1,2,173,1,1620,1,0.6807554,12.25575,3.153246,-1
19,F,0,1,44,2,2,176,4,1531,0,0.2734859,12.21239,1.25445,-1
19,F,0,1,44,3,2,174,2,1120,0,0.1417921,12.3446,0.6452838,-1
19,F,0,1,44,4,1,175,3,1953,0,1.97711E-07,6.180251,0,-1
19,F,0,1,44,5,1,173,1,1509,0,1.464499E-08,6.206521,0,-1
19,F,0,1,44,6,1,176,4,2053,0,0.155843,6.264937,1.356962,-1
19,F,0,1,44,7,2,175,3,1409,0,0.3207205,12.12364,1.491478,-1
19,F,0,1,44,8,1,174,2,1954,0,0.2022803,6.454995,1.697313,-1
19,F,0,1,45,1,1,179,3,1587,0,0.2639376,6.171063,2.344183,-1
19,F,0,1,45,2,2,177,1,1209,0,0.9919642,12.25479,4.598064,-1
19,F,0,1,45,3,1,180,4,3475,0,0.1387544,6.249966,1.211115,-1
19,F,0,1,45,4,2,178,2,876,0,0.6385235,12.3466,2.880248,-1
19,F,0,1,45,5,1,177,1,1464,0,0.145643,6.205645,1.289982,-1
19,F,0,1,45,6,2,180,4,3009,0,0.9676159,12.21849,4.411798,-1
19,F,0,1,45,7,1,178,2,3065,0,0.3466325,6.459369,2.896851,-1
19,F,0,1,45,8,2,179,3,1631,0,0.7452193,12.12698,3.468708,-1
19,F,0,1,46,1,2,184,4,1642,1,0.2999492,12.21742,1.369022,-1
19,F,0,1,46,2,1,181,1,1409,0,1.439306E-07,6.188876,0,-1
19,F,0,1,46,3,1,182,2,1320,0,7.485674E-08,6.456222,0,-1
19,F,0,1,46,4,1,183,3,1598,0,0.1686443,6.146038,1.510772,-1
19,F,0,1,46,5,2,182,2,920,0,0.5648603,12.33913,2.550829,-1
19,F,0,1,46,6,2,183,3,1831,0,0.8068616,12.11944,3.758277,-1
19,F,0,1,46,7,2,181,1,2642,0,0.7238271,12.2704,3.349306,-1
19,F,0,1,46,8,1,184,4,3275,0,0.05973904,6.265909,0.5203939,-1
19,F,0,1,47,1,2,186,2,831,0,0.727568,12.36234,3.27644,-1
19,F,0,1,47,2,2,188,4,1565,0,0.5708451,12.21994,2.641306,-1
19,F,0,1,47,3,1,187,3,2465,0,1.327037E-08,6.166446,0,-1
19,F,0,1,47,4,1,188,4,2965,0,6.159166E-08,6.265716,0,-1
19,F,0,1,47,5,1,186,2,2365,0,0.3753653,6.443053,3.142674,-1
19,F,0,1,47,6,2,185,1,1754,0,0.6966045,12.23657,3.231982,-1
19,F,0,1,47,7,2,187,3,2231,0,0.4307174,12.11372,2.008766,-1
19,F,0,1,47,8,1,185,1,1398,0,0.0520387,6.192946,0.4609765,-1
19,F,0,1,48,1,1,191,3,2665,0,7.816082E-08,6.14166,0,-1
19,F,0,1,48,2,1,192,4,3420,0,0.3343103,6.249719,2.949952,-1
19,F,0,1,48,3,2,190,2,1653,1,0.2816938,12.33296,1.280389,-1
19,F,0,1,48,4,2,191,3,1832,0,0.8939754,12.11214,4.192598,-1
19,F,0,1,48,5,1,189,1,1565,0,0.139418,6.18634,1.224932,-1
19,F,0,1,48,6,1,190,2,1453,0,8.710164E-08,6.451765,0,-1
19,F,0,1,48,7,2,192,4,2365,0,0.286904,12.20219,1.327954,-1
19,F,0,1,48,8,2,189,1,2442,0,0.476155,12.24248,2.207264,-1
19,F,0,1,49,1,1,194,2,1198,0,0.3785227,6.442206,3.200206,-1
19,F,0,1,49,2,2,196,4,1920,0,0.4210915,12.21175,1.931582,-1
19,F,0,1,49,3,2,195,3,1898,0,0.4715752,12.14153,2.187581,-1
19,F,0,1,49,4,1,193,1,1453,0,0.1196874,6.194075,1.059063,-1
19,F,0,1,49,5,1,196,4,2576,0,0.06786311,6.240787,0.5941319,-1
19,F,0,1,49,6,2,193,1,2065,0,4.534418E-08,12.23631,0,-1
19,F,0,1,49,7,2,194,2,1542,0,0.04209936,12.33781,0.1907741,-1
19,F,0,1,49,8,1,195,3,4153,0,0.09009384,6.130886,0.8050289,-1
19,F,0,1,50,1,2,200,4,2264,0,0.08045452,12.19986,0.3679734,-1
19,F,0,1,50,2,1,199,3,2787,0,0.2058603,6.144206,1.83675,-1
19,F,0,1,50,3,1,197,1,1509,0,0.06209861,6.170805,0.5496522,-1
19,F,0,1,50,4,2,198,2,1209,0,0.6630409,12.32541,2.994279,-1
19,F,0,1,50,5,1,200,4,2520,0,0.2038104,6.243072,1.79918,-1
19,F,0,1,50,6,2,199,3,1320,0,1.758555E-07,12.1139,0,-1
19,F,0,1,50,7,1,198,2,2487,0,0.152505,6.433449,1.284966,-1
19,F,0,1,50,8,2,197,1,1453,0,0.9364906,12.2212,4.352217,-1
19,F,0,1,51,1,2,202,2,1164,0,0.4504953,12.31931,2.039129,-1
19,F,0,1,51,2,2,201,1,1454,0,0.8097499,12.21763,3.76338,-1
19,F,0,1,51,3,1,202,2,2142,0,0.3895682,6.424411,3.272674,-1
19,F,0,1,51,4,1,204,4,3265,0,0.4892761,6.237903,4.311344,-1
19,F,0,1,51,5,1,203,3,2631,0,0.2863066,6.146667,2.553513,-1
19,F,0,1,51,6,1,201,1,1354,0,5.672976E-08,6.164665,0,-1
19,F,0,1,51,7,2,203,3,1609,0,0.2410879,12.11677,1.123439,-1
19,F,0,1,51,8,2,204,4,1664,0,0.3109812,12.21004,1.42189,-1
19,F,0,1,52,1,1,206,2,1943,0,0.163474,6.433053,1.37743,-1
19,F,0,1,52,2,1,207,3,2287,0,0.04485305,6.14619,0.3995845,-1
19,F,0,1,52,3,2,206,2,1053,0,0.6574606,12.32426,2.990943,-1
19,F,0,1,52,4,2,208,4,1664,0,0.4944819,12.20294,2.273397,-1
19,F,0,1,52,5,1,205,1,1776,0,0.01444867,6.153169,0.1282043,-1
19,F,0,1,52,6,1,208,4,2387,0,0.2079552,6.240276,1.837282,-1
19,F,0,1,52,7,2,205,1,1353,0,0.7069044,12.22026,3.232345,-1
19,F,0,1,52,8,2,207,3,3586,2,0.7078695,12.1001,3.304109,-1
19,F,0,1,53,1,2,212,4,2065,0,0.9422637,12.19845,4.302294,-1
19,F,0,1,53,2,1,211,3,2742,0,0.1609891,6.150818,1.434905,-1
19,F,0,1,53,3,2,210,2,1409,1,0.1268213,12.32246,0.5760729,-1
19,F,0,1,53,4,1,212,4,3409,0,0.07001483,6.251173,0.6116581,-1
19,F,0,1,53,5,1,209,1,1165,0,0.00407717,6.1658,0.03426402,-1
19,F,0,1,53,6,2,211,3,1787,0,0.2669451,12.11334,1.241908,-1
19,F,0,1,53,7,1,210,2,1831,0,0.3156116,6.432645,2.671957,-1
19,F,0,1,53,8,2,209,1,1242,0,2.588034E-07,12.22962,0,-1
19,F,0,1,54,1,1,216,4,2165,0,0.07635009,6.261359,0.6691033,-1
19,F,0,1,54,2,1,214,2,2598,0,0.3650087,6.424753,3.094084,-1
19,F,0,1,54,3,1,213,1,1320,0,0.01269938,6.179346,0.1119058,-1
19,F,0,1,54,4,2,215,3,2642,0,0.005093461,12.11912,0,-1
19,F,0,1,54,5,2,216,4,1853,0,0.3574273,12.21483,1.622447,-1
19,F,0,1,54,6,2,213,1,1353,0,1.808274E-07,12.23581,0,-1
19,F,0,1,54,7,2,214,2,1298,0,2.350572E-07,12.35152,0,-1
19,F,0,1,54,8,1,215,3,2998,0,2.232803E-08,6.146088,0,-1
19,F,0,1,55,1,1,218,2,1553,0,9.201974E-08,6.458217,0,-1
19,F,0,1,55,2,2,219,3,1498,0,2.146268E-07,12.10995,0,-1
19,F,0,1,55,3,1,217,1,1998,0,0.09031482,6.169716,0.8023506,-1
19,F,0,1,55,4,1,219,3,2709,0,0.3535991,6.135173,3.170706,-1
19,F,0,1,55,5,2,220,4,1731,0,0.5889565,12.20457,2.721389,-1
19,F,0,1,55,6,2,218,2,1153,0,0.5458239,12.33292,2.465692,-1
19,F,0,1,55,7,1,220,4,2798,0,0.02878698,6.249514,0.2525642,-1
19,F,0,1,55,8,2,217,1,1309,0,0.04178134,12.22956,0.191797,-1
19,F,0,1,56,1,1,223,3,2076,0,6.894104E-08,6.142673,0,-1
19,F,0,1,56,2,2,224,4,1798,0,0.289736,12.21017,1.336766,-1
19,F,0,1,56,3,2,221,1,1542,0,8.386589E-08,12.23111,0,-1
19,F,0,1,56,4,2,223,3,1742,0,1.624621E-07,12.11063,0.01978234,-1
19,F,0,1,56,5,1,222,2,3109,0,0.1976775,6.440299,1.66201,-1
19,F,0,1,56,6,1,224,4,2631,0,0.03719115,6.250823,0.3268584,-1
19,F,0,1,56,7,1,221,1,1587,0,1.076296E-07,6.162458,0,-1
19,F,0,1,56,8,2,222,2,1165,0,0.1721388,12.33423,0.7825971,-1
19,F,0,1,57,1,3,225,1,1276,0,0.2582818,6.208538,2.285076,-1
19,F,0,1,57,2,3,228,4,3276,0,0.3902071,6.239892,3.432735,-1
19,F,0,1,57,3,4,226,2,1020,0,0.2982238,12.39976,1.355086,-1
19,F,0,1,57,4,4,228,4,2853,0,0.6067026,12.25773,2.743453,-1
19,F,0,1,57,5,4,227,3,1576,0,0.4576961,12.12626,2.129736,-1
19,F,0,1,57,6,3,226,2,1864,0,0.269376,6.476429,2.283191,-1
19,F,0,1,57,7,4,225,1,1265,0,0.1783362,12.21003,0.8151737,-1
19,F,0,1,57,8,3,227,3,1865,0,0.2563877,6.176564,2.284391,-1
19,F,0,1,58,1,4,232,4,2331,0,0.7196123,12.2737,3.286166,-1
19,F,0,1,58,2,3,230,2,2153,0,0.2930039,6.469193,2.476781,-1
19,F,0,1,58,3,4,231,3,2331,0,0.343883,12.1251,1.601933,-1
19,F,0,1,58,4,3,229,1,1865,0,0.3257419,6.17065,2.886358,-1
19,F,0,1,58,5,3,231,3,2920,0,1.254645E-07,6.173851,0,-1
19,F,0,1,58,6,3,232,4,2676,0,8.925291E-08,6.253707,0,-1
19,F,0,1,58,7,4,230,2,1431,1,0.4156732,12.39268,1.87899,-1
19,F,0,1,58,8,4,229,1,1842,1,1.041115E-07,12.19474,0,-1
19,F,0,1,59,1,3,234,2,2354,0,0.2716346,6.472598,2.313423,-1
19,F,0,1,59,2,4,233,1,1509,0,3.84321E-07,12.24416,0,-1
19,F,0,1,59,3,3,235,3,2076,0,0.1029342,6.123477,0.9196228,-1
19,F,0,1,59,4,3,236,4,3509,0,7.847223E-08,6.256489,0,-1
19,F,0,1,59,5,3,233,1,1409,0,7.457137E-08,6.171462,0,-1
19,F,0,1,59,6,4,234,2,1031,0,0.6501224,12.3415,2.933315,-1
19,F,0,1,59,7,4,236,4,3331,0,0.2706204,12.22247,1.237172,-1
19,F,0,1,59,8,4,235,3,3064,0,0.02078005,12.07228,0.09278741,-1
19,F,0,1,60,1,3,240,4,3209,0,0.01307071,6.256797,0.1153499,-1
19,F,0,1,60,2,4,237,1,1487,0,0.3712596,12.23997,1.721356,-1
19,F,0,1,60,3,4,238,2,942,0,0.7652091,12.34815,3.462493,-1
19,F,0,1,60,4,4,239,3,1254,0,0.1406942,12.09065,0.6504185,-1
19,F,0,1,60,5,4,240,4,1409,0,0.2118786,12.23694,0.9761857,-1
19,F,0,1,60,6,3,237,1,1765,0,6.496389E-08,6.174447,0,-1
19,F,0,1,60,7,3,238,2,1731,0,0.04396487,6.467523,0.3711503,-1
19,F,0,1,60,8,3,239,3,2198,0,1.06428E-07,6.122507,0,-1
19,F,0,1,61,1,2,241,1,1420,0,0.169222,12.37212,0.7697397,-1
19,F,0,1,61,2,1,242,2,1976,0,0.3985066,6.546885,3.317001,-1
19,F,0,1,61,3,1,244,4,2431,0,0.2769809,6.349267,2.383102,-1
19,F,0,1,61,4,2,243,3,2220,0,0.9647245,12.24195,4.462605,-1
19,F,0,1,61,5,1,241,1,2487,0,0.3414738,6.269113,3.039377,-1
19,F,0,1,61,6,2,244,4,3109,1,0.898589,12.32439,4.128676,-1
19,F,0,1,61,7,1,243,3,2687,0,0.145677,6.243833,1.279013,-1
19,F,0,1,61,8,2,242,2,1109,0,0.3974702,12.47476,1.790019,-1
19,F,0,1,62,1,2,247,3,1476,0,0.2873721,12.23289,1.325742,-1
19,F,0,1,62,2,2,246,2,1065,0,0.8040741,12.46789,3.588942,-1
19,F,0,1,62,3,1,248,4,3031,0,0.1944307,6.346221,1.688991,-1
19,F,0,1,62,4,1,246,2,2020,0,1.152695E-07,6.569757,0,-1
19,F,0,1,62,5,2,245,1,1741,0,0.1489938,12.34753,0.6798376,-1
19,F,0,1,62,6,1,247,3,1609,0,0.08320132,6.254522,0.7319516,-1
19,F,0,1,62,7,2,248,4,1709,0,0.5094966,12.33671,2.333136,-1
19,F,0,1,62,8,1,245,1,1898,0,0.07895876,6.290828,0.6887025,-1
19,F,0,1,1,1,5,4,4,4474,0,3.981454,6.342399,37.15886,-1
19,F,0,1,1,2,6,1,1,1809,0,0.7831252,12.34849,3.541271,-1
19,F,0,1,1,3,8,2,2,4331,0,4.701173,12.4681,22.09154,-1
19,F,0,1,1,4,8,3,3,4220,0,3.478661,12.23572,16.28102,-1
19,F,0,1,1,5,8,4,4,4342,0,3.234439,12.35903,15.16175,-1
19,F,0,1,1,6,8,1,1,3653,0,0.5240119,12.37028,2.398983,-1
19,F,0,1,1,7,6,4,4,6020,0,11.55445,12.36039,69.19527,-1
19,F,0,1,1,8,7,2,2,3820,0,5.11769,6.584563,51.00724,-1
19,F,0,1,1,9,5,3,3,3176,0,1.144537,6.245718,10.18932,-1
19,F,0,1,1,10,6,2,2,2664,0,4.038236,12.44969,18.87481,-1
19,F,0,1,1,11,7,1,1,2720,0,4.856049,6.258818,50.88427,-1
19,F,0,1,1,12,7,3,3,5109,0,2.638091E-07,6.241981,0,-1
19,F,0,1,1,13,7,4,4,4142,0,0.1577103,6.332458,1.382676,-1
19,F,0,1,1,14,5,2,2,8453,0,3.946647,6.545051,34.98338,-1
19,F,0,1,1,15,5,1,1,5975,0,3.353192,6.286206,32.23686,-1
19,F,0,1,1,16,6,3,3,9131,0,7.656044,12.24252,38.709,-1
19,F,0,1,2,1,7,3,3,6987,0,0.1290763,6.240012,1.136772,-1
19,F,0,1,2,2,6,4,4,6131,0,6.902907,12.32992,34.04544,-1
19,F,0,1,2,3,7,1,1,8120,0,1.14392,6.240988,9.927353,-1
19,F,0,1,2,4,8,4,4,7587,0,3.63314,12.36879,16.69246,-1
19,F,0,1,2,5,5,2,2,7587,0,3.687479,6.544873,32.39332,-1
19,F,0,1,2,6,6,3,3,1364,0,6.523949,12.23881,32.21205,-1
19,F,0,1,2,7,6,1,1,6942,0,0.6027971,12.34236,2.759389,-1
19,F,0,1,2,8,6,2,2,6864,0,4.402353,12.44171,20.72224,-1
19,F,0,1,2,9,5,3,3,5276,0,1.149206,6.227726,10.15821,-1
19,F,0,1,2,10,5,4,4,7187,0,3.087543,6.317197,28.04642,-1
19,F,0,1,2,11,5,1,1,8453,0,3.161433,6.280534,29.85782,-1
19,F,0,1,2,12,7,2,2,5265,0,4.81519,6.577904,47.05643,-1
19,F,0,1,2,13,8,3,3,7986,0,5.238361,12.22402,25.34247,-1
19,F,0,1,2,14,8,1,1,5376,0,3.08912,12.36015,14.13401,-1
19,F,0,1,2,15,8,2,2,6842,0,3.657922,12.45112,17.08455,-1
19,F,0,1,2,16,7,4,4,5753,0,0.8528023,6.3117,7.521935,-1
