Age, Gender, Awareness Type, Session, Block, Trial, Set, Pattern, Quadrant, Response Time, Num Mistakes, Distance From Target, Camera Distance From Target, Angle Error (Degrees), FC Response
19,F,0,1,1,1,2,3,3,2009,0,0.7894439,12.14357,3.645561,-1
19,F,0,1,1,2,2,1,1,2398,0,0.1828646,12.26538,0.8353283,-1
19,F,0,1,1,3,2,2,2,4698,0,0.4570692,12.35351,2.097419,-1
19,F,0,1,1,4,1,4,4,2954,0,0.12987,6.370076,1.122045,-1
19,F,0,1,1,5,1,1,1,3120,0,0.4407135,6.164124,3.884638,-1
19,F,0,1,1,6,2,4,4,3987,0,0.3423949,12.35188,1.567729,-1
19,F,0,1,1,7,1,2,2,2498,0,0.3357174,6.536294,2.842072,-1
19,F,0,1,1,8,1,3,3,3098,0,0.299749,6.212253,2.654464,-1
19,F,0,1,2,1,1,5,1,4031,1,0.2896084,6.169421,2.547681,-1
19,F,0,1,2,2,2,7,3,5076,0,0.1237248,12.1414,0.5716401,-1
19,F,0,1,2,3,1,8,4,3420,0,0.2565126,6.366165,2.234671,-1
19,F,0,1,2,4,2,6,2,3520,1,0.44057,12.35008,2.02023,-1
19,F,0,1,2,5,1,7,3,3376,0,0.3231874,6.217005,2.861292,-1
19,F,0,1,2,6,2,8,4,9999,0,-1,-1,-1,-1
19,F,0,1,2,7,2,5,1,2098,0,0.2927766,12.2572,1.337644,-1
19,F,0,1,2,8,1,6,2,2042,0,0.401699,6.550073,3.418619,-1
19,F,0,1,3,1,1,12,4,2287,0,0.5192967,6.381601,4.429653,-1
19,F,0,1,3,2,2,11,3,2320,0,0.9337972,12.14203,4.333772,-1
19,F,0,1,3,3,1,10,2,4131,1,0.2096875,6.538436,1.764695,-1
19,F,0,1,3,4,2,9,1,2653,0,0.5405439,12.2592,2.45798,-1
19,F,0,1,3,5,2,10,2,2509,1,0.7818802,12.36837,3.581897,-1
19,F,0,1,3,6,1,9,1,1809,0,0.1980492,6.147,1.752342,-1
19,F,0,1,3,7,1,11,3,2887,0,0.3544737,6.220986,3.137936,-1
19,F,0,1,3,8,2,12,4,3142,0,1.002782,12.3698,4.587359,-1
19,F,0,1,4,1,2,15,3,3553,0,0.7857593,12.1393,3.650124,-1
19,F,0,1,4,2,2,14,2,2542,1,0.6993335,12.36961,3.21735,-1
19,F,0,1,4,3,1,15,3,2998,0,0.2687733,6.215858,2.377511,-1
19,F,0,1,4,4,2,13,1,2042,0,0.7506167,12.2669,3.397939,-1
19,F,0,1,4,5,1,16,4,2620,0,0.4201859,6.385382,3.651465,-1
19,F,0,1,4,6,1,14,2,2020,0,0.5086137,6.543778,4.273931,-1
19,F,0,1,4,7,1,13,1,1698,0,0.3647763,6.147886,3.204057,-1
19,F,0,1,4,8,2,16,4,4120,0,1.036042,12.36426,4.741939,-1
19,F,0,1,5,1,2,19,3,3453,0,0.9406124,12.14412,4.37466,-1
19,F,0,1,5,2,1,18,2,1809,0,0.532923,6.554643,4.555609,-1
19,F,0,1,5,3,2,20,4,2853,0,0.6052769,12.36207,2.768737,-1
19,F,0,1,5,4,2,17,1,1887,0,0.9478099,12.27053,4.313069,-1
19,F,0,1,5,5,1,19,3,3453,0,0.3250212,6.213635,2.872967,-1
19,F,0,1,5,6,1,17,1,1520,0,0.4357326,6.160307,3.820595,-1
19,F,0,1,5,7,2,18,2,1809,1,0.852407,12.36693,3.927102,-1
19,F,0,1,5,8,1,20,4,3365,0,0.2632651,6.368773,2.29354,-1
19,F,0,1,6,1,2,22,2,2465,1,1.028021,12.36141,4.714221,-1
19,F,0,1,6,2,2,23,3,2364,0,1.039693,12.13533,4.812551,-1
19,F,0,1,6,3,1,21,1,2854,1,1.670714E-07,6.139227,0,-1
19,F,0,1,6,4,1,23,3,2898,0,0.2712919,6.202845,2.404687,-1
19,F,0,1,6,5,2,24,4,3187,0,0.7266188,12.36472,3.323723,-1
19,F,0,1,6,6,1,22,2,2787,1,0.36455,6.536613,3.097372,-1
19,F,0,1,6,7,2,21,1,1465,0,0.8506782,12.26167,3.905752,-1
19,F,0,1,6,8,1,24,4,2031,0,0.3980415,6.379946,3.394422,-1
19,F,0,1,7,1,2,27,3,3609,1,0.8240916,12.13743,3.850258,-1
19,F,0,1,7,2,2,25,1,2431,1,6.30163E-08,12.25441,0.01978234,-1
19,F,0,1,7,3,2,26,2,9309,4,0.8772278,12.34309,4.027447,-1
19,F,0,1,7,4,1,25,1,1820,0,0.3888486,6.145472,3.426284,-1
19,F,0,1,7,5,2,28,4,4065,2,0.4927238,12.36733,2.261226,-1
19,F,0,1,7,6,1,27,3,2687,0,0.3924968,6.208122,3.483858,-1
19,F,0,1,7,7,1,26,2,1509,0,0.5085311,6.550878,4.350821,-1
19,F,0,1,7,8,1,28,4,3353,0,0.4013995,6.383327,3.421653,-1
19,F,0,1,8,1,2,31,3,3876,1,0.9347199,12.13419,4.365607,-1
19,F,0,1,8,2,1,29,1,1331,0,0.4632053,6.147281,4.083174,-1
19,F,0,1,8,3,2,30,2,2653,1,0.5908905,12.36014,2.710072,-1
19,F,0,1,8,4,1,32,4,2442,0,0.3538751,6.380147,3.038862,-1
19,F,0,1,8,5,2,29,1,1431,0,0.6338429,12.26812,2.897459,-1
19,F,0,1,8,6,1,30,2,1542,0,0.4761671,6.549159,4.085044,-1
19,F,0,1,8,7,2,32,4,4731,0,0.9901456,12.35429,4.54019,-1
19,F,0,1,8,8,1,31,3,3709,1,0.2042863,6.225748,1.803742,-1
19,F,0,1,9,1,2,36,4,2398,0,0.5936853,12.36224,2.715628,-1
19,F,0,1,9,2,1,33,1,2764,1,0.01515947,6.147176,0.132704,-1
19,F,0,1,9,3,2,34,2,3509,2,0.3643389,12.36642,1.666831,-1
19,F,0,1,9,4,2,35,3,1831,0,0.392987,12.13364,1.814991,-1
19,F,0,1,9,5,1,36,4,2620,0,0.2534037,6.371948,2.205046,-1
19,F,0,1,9,6,1,34,2,2231,0,0.3063234,6.552141,2.615315,-1
19,F,0,1,9,7,2,33,1,1387,0,0.5310867,12.26284,2.430755,-1
19,F,0,1,9,8,1,35,3,2531,0,0.2649139,6.209467,2.345519,-1
19,F,0,1,10,1,2,40,4,3409,0,0.7240869,12.3644,3.328197,-1
19,F,0,1,10,2,1,39,3,3198,0,0.3448785,6.223664,3.052039,-1
19,F,0,1,10,3,1,40,4,2387,0,0.3445564,6.384811,2.9838,-1
19,F,0,1,10,4,2,39,3,3409,1,1.132598E-07,12.1354,0,-1
19,F,0,1,10,5,2,37,1,1387,0,0.1739274,12.25786,0.7959845,-1
19,F,0,1,10,6,1,38,2,1876,0,0.4378424,6.550692,3.750611,-1
19,F,0,1,10,7,1,37,1,1053,0,0.08111309,6.142745,0.7187329,-1
19,F,0,1,10,8,2,38,2,3176,0,1.054502,12.36325,4.861638,-1
19,F,0,1,11,1,2,41,1,965,0,0.2331572,12.26436,1.065327,-1
19,F,0,1,11,2,1,43,3,1976,0,0.318821,6.223901,2.819875,-1
19,F,0,1,11,3,2,44,4,3165,1,0.8648438,12.37851,3.970938,-1
19,F,0,1,11,4,1,41,1,2353,1,0.07045289,6.139337,0.6262009,-1
19,F,0,1,11,5,1,42,2,1553,0,0.228219,6.539207,1.939267,-1
19,F,0,1,11,6,1,44,4,2742,0,0.2489022,6.384234,2.161298,-1
19,F,0,1,11,7,2,43,3,2131,0,0.9943686,12.16522,4.590134,-1
19,F,0,1,11,8,2,42,2,3264,2,0.6356328,12.36263,2.910738,-1
19,F,0,1,12,1,2,47,3,1831,0,1.014017,12.15324,4.684959,-1
19,F,0,1,12,2,2,48,4,2353,0,0.6547319,12.36296,3.009473,-1
19,F,0,1,12,3,2,46,2,1242,0,0.697893,12.35914,3.207905,-1
19,F,0,1,12,4,1,45,1,1331,0,0.1967655,6.158028,1.738776,-1
19,F,0,1,12,5,1,48,4,2353,0,0.267898,6.380376,2.295758,-1
19,F,0,1,12,6,1,46,2,1720,0,0.3515608,6.545077,2.97368,-1
19,F,0,1,12,7,2,45,1,1987,1,0.8827983,12.26917,3.990076,-1
19,F,0,1,12,8,1,47,3,2153,0,0.3119152,6.225186,2.740098,-1
19,F,0,1,13,1,2,50,2,2187,1,0.6959411,12.37825,3.191323,-1
19,F,0,1,13,2,2,49,1,1176,0,0.539441,12.28393,2.464898,-1
19,F,0,1,13,3,1,52,4,1842,0,0.2253315,6.368684,1.958447,-1
19,F,0,1,13,4,2,51,3,1431,0,0.8337088,12.15649,3.846849,-1
19,F,0,1,13,5,1,50,2,1876,0,0.4368258,6.552821,3.691357,-1
19,F,0,1,13,6,1,49,1,1198,0,0.5238962,6.180087,4.597042,-1
19,F,0,1,13,7,1,51,3,2531,0,0.3836695,6.217447,3.403178,-1
19,F,0,1,13,8,2,52,4,3909,2,0.4667962,12.36341,2.13918,-1
19,F,0,1,14,1,1,53,1,1520,0,0.2687871,6.159277,2.373144,-1
19,F,0,1,14,2,1,56,4,2253,0,0.3168463,6.374283,2.766686,-1
19,F,0,1,14,3,1,55,3,2709,0,0.4357114,6.209938,3.869992,-1
19,F,0,1,14,4,1,54,2,1409,0,0.3458915,6.549132,2.919669,-1
19,F,0,1,14,5,2,56,4,2531,0,1.09824E-07,12.35302,0,-1
19,F,0,1,14,6,2,55,3,2631,1,0.7387733,12.13858,3.412198,-1
19,F,0,1,14,7,2,54,2,1765,0,0.8738574,12.36214,4.021364,-1
19,F,0,1,14,8,2,53,1,1265,0,0.3665082,12.25879,1.68249,-1
19,F,0,1,15,1,1,60,4,2953,0,0.3643351,6.367783,3.127125,-1
19,F,0,1,15,2,1,57,1,1564,0,0.4709383,6.155227,4.154684,-1
19,F,0,1,15,3,2,58,2,3353,2,0.6160291,12.3674,2.835382,-1
19,F,0,1,15,4,2,59,3,1987,0,0.2890343,12.13846,1.334715,-1
19,F,0,1,15,5,1,58,2,2664,1,0.3658599,6.556408,3.120042,-1
19,F,0,1,15,6,2,57,1,2264,0,0.3931009,12.26295,1.783557,-1
19,F,0,1,15,7,2,60,4,2542,1,0.7317814,12.37427,3.35538,-1
19,F,0,1,15,8,1,59,3,3520,0,0.2804104,6.214861,2.481123,-1
19,F,0,1,16,1,1,62,2,1398,0,0.2057557,6.550089,1.742037,-1
19,F,0,1,16,2,1,63,3,3243,0,0.2525098,6.214752,2.233532,-1
19,F,0,1,16,3,2,64,4,3109,1,0.981603,12.37908,4.508717,-1
19,F,0,1,16,4,2,61,1,1309,0,0.2142099,12.27039,0.9845687,-1
19,F,0,1,16,5,1,64,4,3042,1,0.3622688,6.383546,3.170953,-1
19,F,0,1,16,6,1,61,1,1365,0,0.2171098,6.14629,1.921423,-1
19,F,0,1,16,7,2,62,2,3242,2,0.6667543,12.37315,3.065863,-1
19,F,0,1,16,8,2,63,3,2087,0,0.8800136,12.14335,4.065919,-1
19,F,0,1,17,1,4,65,1,1664,0,0.8801339,12.27961,4.030023,-1
19,F,0,1,17,2,3,68,4,1965,0,0.4784114,6.359122,4.089309,-1
19,F,0,1,17,3,4,66,2,1298,0,1.007925,12.36643,4.619866,-1
19,F,0,1,17,4,4,67,3,1842,0,0.7861432,12.13892,3.628388,-1
19,F,0,1,17,5,3,65,1,3276,1,0.2211205,6.167061,1.954446,-1
19,F,0,1,17,6,3,66,2,2753,1,0.2057286,6.552661,1.71817,-1
19,F,0,1,17,7,4,68,4,2587,0,0.3489489,12.33543,1.599121,-1
19,F,0,1,17,8,3,67,3,3575,1,0.3060872,6.184052,2.70776,-1
19,F,0,1,18,1,4,70,2,2453,1,0.7596831,12.36628,3.480484,-1
19,F,0,1,18,2,4,72,4,5309,2,0.149274,12.35946,0.680413,-1
19,F,0,1,18,3,4,69,1,5464,0,0.7015428,12.31394,3.214123,-1
19,F,0,1,18,4,3,70,2,2098,0,0.2457798,6.545189,2.065165,-1
19,F,0,1,18,5,3,69,1,5842,0,0.4464198,6.149832,3.947693,-1
19,F,0,1,18,6,4,71,3,1709,0,0.4820549,12.1207,2.227126,-1
19,F,0,1,18,7,3,72,4,4354,0,0.4167771,6.362211,3.56046,-1
19,F,0,1,18,8,3,71,3,4842,2,0.4949049,6.182983,4.39396,-1
19,F,0,1,19,1,3,76,4,2731,0,0.4354325,6.376752,3.773356,-1
19,F,0,1,19,2,4,74,2,3342,1,0.7338777,12.36457,3.366099,-1
19,F,0,1,19,3,3,75,3,2753,0,0.3254375,6.207409,2.885884,-1
19,F,0,1,19,4,4,76,4,3798,0,0.9153823,12.33874,4.227348,-1
19,F,0,1,19,5,3,74,2,5064,0,0.2655872,6.548405,2.240094,-1
19,F,0,1,19,6,4,73,1,2209,0,0.8914034,12.27537,4.061679,-1
19,F,0,1,19,7,4,75,3,2564,0,0.6671163,12.1587,3.082737,-1
19,F,0,1,19,8,3,73,1,2854,1,0.433606,6.158484,3.822286,-1
19,F,0,1,20,1,4,78,2,3465,1,0.6198855,12.35073,2.845926,-1
19,F,0,1,20,2,4,77,1,1531,0,0.6610407,12.2595,3.02705,-1
19,F,0,1,20,3,3,79,3,4442,1,0.5296943,6.186037,4.704196,-1
19,F,0,1,20,4,3,77,1,5709,3,1.012688E-07,6.155226,0,-1
19,F,0,1,20,5,4,80,4,9999,2,-1,-1,-1,-1
19,F,0,1,20,6,3,78,2,1953,0,0.4876277,6.552356,4.140187,-1
19,F,0,1,20,7,4,79,3,3298,1,0.08064935,12.09694,0.3732531,-1
19,F,0,1,20,8,3,80,4,3865,0,0.1054396,6.36699,0.9035233,-1
19,F,0,1,20,1,2,77,1,1564,0,0.5302728,12.25707,2.41411,-1
19,F,0,1,20,2,2,80,4,2353,0,0.9422163,12.37833,4.327441,-1
19,F,0,1,20,3,1,78,2,1820,0,0.178893,6.544057,1.498155,-1
19,F,0,1,20,4,2,79,3,2542,0,0.4949419,12.12063,2.288243,-1
19,F,0,1,20,5,1,77,1,2131,0,0.3397781,6.1401,3.00674,-1
19,F,0,1,20,6,1,80,4,2986,0,0.2809601,6.386408,2.441361,-1
19,F,0,1,20,7,2,78,2,2153,1,0.9427043,12.37574,4.317245,-1
19,F,0,1,20,8,1,79,3,3942,0,0.2877145,6.204,2.550522,-1
19,F,0,1,21,1,1,81,1,1809,0,0.2553876,6.150618,2.257414,-1
19,F,0,1,21,2,1,83,3,2765,0,0.2512171,6.201366,2.226774,-1
19,F,0,1,21,3,1,84,4,4253,0,0.5456331,6.371378,4.738384,-1
19,F,0,1,21,4,2,83,3,1898,0,0.2011609,12.12743,0.9299906,-1
19,F,0,1,21,5,1,82,2,2042,0,0.2909855,6.555755,2.465692,-1
19,F,0,1,21,6,2,84,4,8398,2,0.4573174,12.35357,2.094898,-1
19,F,0,1,21,7,2,82,2,2653,1,0.8524713,12.37464,3.924958,-1
19,F,0,1,21,8,2,81,1,1776,0,0.3641872,12.26711,1.664599,-1
19,F,0,1,22,1,1,86,2,3476,1,0.0444649,6.547956,0.3716771,-1
19,F,0,1,22,2,1,88,4,2931,0,0.2106229,6.376585,1.826599,-1
19,F,0,1,22,3,2,85,1,1920,0,0.3619206,12.25889,1.652327,-1
19,F,0,1,22,4,1,87,3,3176,0,0.2818171,6.207186,2.4974,-1
19,F,0,1,22,5,1,85,1,1698,0,0.2825692,6.151304,2.497165,-1
19,F,0,1,22,6,2,86,2,3042,1,0.8152262,12.38291,3.738322,-1
19,F,0,1,22,7,2,87,3,2053,0,0.960413,12.14068,4.445146,-1
19,F,0,1,22,8,2,88,4,2276,0,0.966855,12.38543,4.421067,-1
19,F,0,1,23,1,2,90,2,1431,0,0.9151511,12.37851,4.19806,-1
19,F,0,1,23,2,1,92,4,2465,0,0.2800194,6.371339,2.389992,-1
19,F,0,1,23,3,2,89,1,1531,0,0.3015935,12.27147,1.377714,-1
19,F,0,1,23,4,1,91,3,2853,0,0.4452923,6.205259,3.957947,-1
19,F,0,1,23,5,2,92,4,4498,0,0.4197941,12.35762,1.920812,-1
19,F,0,1,23,6,1,90,2,1709,0,0.4350836,6.564335,3.64685,-1
19,F,0,1,23,7,2,91,3,2742,1,0.5063564,12.14219,2.334645,-1
19,F,0,1,23,8,1,89,1,1664,0,0.1274412,6.157671,1.127438,-1
19,F,0,1,24,1,1,95,3,3698,1,0.2064332,6.220506,1.824241,-1
19,F,0,1,24,2,2,96,4,2042,0,1.000671,12.37989,4.592437,-1
19,F,0,1,24,3,2,94,2,3864,2,0.3612203,12.36635,1.651498,-1
19,F,0,1,24,4,2,95,3,1709,0,0.6243308,12.13601,2.883508,-1
19,F,0,1,24,5,1,93,1,1565,0,0.5035297,6.154099,4.444794,-1
19,F,0,1,24,6,1,96,4,2720,0,0.2992774,6.375987,2.552976,-1
19,F,0,1,24,7,1,94,2,2220,0,0.3062642,6.554686,2.587097,-1
19,F,0,1,24,8,2,93,1,1542,0,0.5639222,12.2711,2.580051,-1
19,F,0,1,25,1,1,99,3,2376,0,0.1877826,6.216464,1.6593,-1
19,F,0,1,25,2,1,100,4,2787,0,0.125332,6.374538,1.069543,-1
19,F,0,1,25,3,1,98,2,1398,0,6.08303E-08,6.559402,0,-1
19,F,0,1,25,4,2,99,3,1698,0,0.26063,12.14573,1.202847,-1
19,F,0,1,25,5,2,98,2,2398,1,0.5279035,12.38417,2.414435,-1
19,F,0,1,25,6,1,97,1,1442,0,4.705091E-09,6.150373,0,-1
19,F,0,1,25,7,2,100,4,2565,0,0.4809533,12.384,2.198735,-1
19,F,0,1,25,8,2,97,1,1409,0,0.1748149,12.28101,0.7979487,-1
19,F,0,1,26,1,2,104,4,3465,0,0.455445,12.36617,2.092093,-1
19,F,0,1,26,2,2,103,3,2065,0,0.1591537,12.14937,0.7343537,-1
19,F,0,1,26,3,1,102,2,1365,0,0.4875213,6.557234,4.17978,-1
19,F,0,1,26,4,1,101,1,1465,0,0.09606528,6.154625,0.8506485,-1
19,F,0,1,26,5,2,102,2,1442,0,0.7439643,12.40366,3.398342,-1
19,F,0,1,26,6,1,103,3,2398,0,0.07242675,6.212171,0.6398023,-1
19,F,0,1,26,7,2,101,1,1242,0,0.4010478,12.27244,1.852029,-1
19,F,0,1,26,8,1,104,4,2653,0,0.4310733,6.38704,3.683445,-1
19,F,0,1,27,1,2,105,1,1387,0,0.3592415,12.27925,1.640321,-1
19,F,0,1,27,2,2,106,2,2020,1,0.3841393,12.387,1.756246,-1
19,F,0,1,27,3,1,108,4,2676,0,0.1474833,6.39189,1.271801,-1
19,F,0,1,27,4,1,107,3,2942,0,0.1977547,6.213922,1.748093,-1
19,F,0,1,27,5,2,108,4,2009,0,0.6906351,12.37863,3.165144,-1
19,F,0,1,27,6,1,105,1,1442,0,0.1201994,6.15908,1.063673,-1
19,F,0,1,27,7,2,107,3,1598,0,0.601571,12.17955,2.806097,-1
19,F,0,1,27,8,1,106,2,1587,0,0.4599556,6.530397,3.960915,-1
19,F,0,1,28,1,1,111,3,2598,0,1.108958E-07,6.252213,0,-1
19,F,0,1,28,2,1,110,2,1276,0,0.1896168,6.54448,1.578056,-1
19,F,0,1,28,3,1,112,4,2831,0,3.255688E-07,6.402066,0,-1
19,F,0,1,28,4,2,109,1,1109,0,0.1617751,12.27142,0.7386047,-1
19,F,0,1,28,5,2,111,3,1531,0,0.4445044,12.14901,2.050137,-1
19,F,0,1,28,6,2,110,2,3342,2,0.1091069,12.37683,0.4949555,-1
19,F,0,1,28,7,1,109,1,1465,0,7.573482E-08,6.137567,0,-1
19,F,0,1,28,8,2,112,4,3453,1,0.3543552,12.39562,1.61289,-1
19,F,0,1,29,1,1,114,2,1431,0,0.1681075,6.562258,1.416236,-1
19,F,0,1,29,2,2,113,1,1198,0,0.3576601,12.27104,1.637455,-1
19,F,0,1,29,3,2,115,3,1631,0,0.3148115,12.15596,1.451583,-1
19,F,0,1,29,4,2,116,4,3220,0,0.9405599,12.39268,4.29505,-1
19,F,0,1,29,5,2,114,2,1220,0,0.7617157,12.38002,3.486105,-1
19,F,0,1,29,6,1,116,4,2387,0,0.08940522,6.395535,0.7648944,-1
19,F,0,1,29,7,1,113,1,1409,0,4.642657E-08,6.165801,0,-1
19,F,0,1,29,8,1,115,3,2697,0,0.1090008,6.236202,0.9594038,-1
19,F,0,1,30,1,2,118,2,2209,1,0.7390146,12.38135,3.381825,-1
19,F,0,1,30,2,1,119,3,3431,0,0.01656167,6.226767,0.1467098,-1
19,F,0,1,30,3,1,118,2,1409,0,0.2129723,6.555474,1.8032,-1
19,F,0,1,30,4,1,120,4,3076,0,0.2388652,6.396108,2.050518,-1
19,F,0,1,30,5,2,117,1,1376,0,0.06484056,12.28654,0.2954137,-1
19,F,0,1,30,6,2,120,4,2098,0,0.903551,12.37868,4.146946,-1
19,F,0,1,30,7,1,117,1,1542,0,0.08666085,6.165698,0.7664279,-1
19,F,0,1,30,8,2,119,3,1865,0,0.3945135,12.16809,1.82349,-1
19,F,0,1,31,1,2,122,2,2409,1,0.7089562,12.38053,3.244315,-1
19,F,0,1,31,2,1,124,4,2042,0,0.1194622,6.395723,1.016063,-1
19,F,0,1,31,3,1,122,2,1309,0,0.3506677,6.567273,2.968474,-1
19,F,0,1,31,4,1,121,1,1220,0,0.1280268,6.166106,1.131423,-1
19,F,0,1,31,5,2,124,4,3198,1,0.3515301,12.37797,1.606081,-1
19,F,0,1,31,6,1,123,3,2476,0,0.2266623,6.237105,1.997334,-1
19,F,0,1,31,7,2,121,1,1242,0,0.0350569,12.2728,0.1582588,-1
19,F,0,1,31,8,2,123,3,1853,0,0.1721323,12.14767,0.7945082,-1
19,F,0,1,32,1,2,126,2,2176,1,0.5734289,12.3817,2.62346,-1
19,F,0,1,32,2,2,128,4,2709,0,0.7566006,12.38537,3.45723,-1
19,F,0,1,32,3,2,127,3,2542,0,0.4435861,12.15593,2.044784,-1
19,F,0,1,32,4,1,125,1,1476,0,9.7542E-08,6.14981,0,-1
19,F,0,1,32,5,1,127,3,3931,0,0.2062252,6.235537,1.817254,-1
19,F,0,1,32,6,2,125,1,1320,0,0.2353965,12.27316,1.073925,-1
19,F,0,1,32,7,1,126,2,1165,0,0.3397031,6.550514,2.886697,-1
19,F,0,1,32,8,1,128,4,2376,0,0.265842,6.399078,2.274086,-1
19,F,0,1,33,1,1,129,1,1865,0,0.03618507,6.164308,0.3202056,-1
19,F,0,1,33,2,2,132,4,1842,0,0.4040235,12.39875,1.849385,-1
19,F,0,1,33,3,2,131,3,1842,0,1.64212E-08,12.1585,0,-1
19,F,0,1,33,4,1,132,4,2209,0,0.07888883,6.389665,0.6743467,-1
19,F,0,1,33,5,1,131,3,2487,0,0.02483907,6.234667,0.2193969,-1
19,F,0,1,33,6,1,130,2,1154,0,0.343401,6.55572,2.907845,-1
19,F,0,1,33,7,2,129,1,1331,0,0.2265066,12.27065,1.042114,-1
19,F,0,1,33,8,2,130,2,2120,1,0.5695295,12.38817,2.604215,-1
19,F,0,1,34,1,2,136,4,2309,0,0.8458057,12.38939,3.880754,-1
19,F,0,1,34,2,1,135,3,2820,0,2.008139E-07,6.241761,0,-1
19,F,0,1,34,3,2,133,1,1487,0,0.5083894,12.28062,2.323469,-1
19,F,0,1,34,4,1,136,4,2309,0,0.3566577,6.405511,3.030153,-1
19,F,0,1,34,5,2,134,2,1009,0,0.96495,12.37255,4.423945,-1
19,F,0,1,34,6,1,133,1,1220,0,0.1396155,6.151008,1.236381,-1
19,F,0,1,34,7,2,135,3,1798,0,2.864729E-07,12.14421,0,-1
19,F,0,1,34,8,1,134,2,1487,0,0.473489,6.556727,4.060618,-1
19,F,0,1,35,1,2,139,3,1665,0,0.06823129,12.15114,0.315279,-1
19,F,0,1,35,2,2,137,1,1153,0,0.7829863,12.27822,3.587632,-1
19,F,0,1,35,3,2,140,4,1965,0,0.9127232,12.39436,4.182075,-1
19,F,0,1,35,4,1,137,1,1954,0,0.007829376,6.14868,0.06852804,-1
19,F,0,1,35,5,1,138,2,2465,1,0.03293582,6.544271,0.2755364,-1
19,F,0,1,35,6,1,139,3,4342,0,1.709279E-08,6.237626,0,-1
19,F,0,1,35,7,1,140,4,2642,0,0.4362161,6.409241,3.704912,-1
19,F,0,1,35,8,2,138,2,1020,0,0.352851,12.37188,1.612284,-1
19,F,0,1,37,1,3,147,3,2642,0,9.525571E-09,6.212606,0,-1
19,F,0,1,37,2,4,145,1,1264,0,0.4051697,12.26716,1.875654,-1
19,F,0,1,37,3,4,148,4,4020,0,0.5262979,12.38862,2.413786,-1
19,F,0,1,37,4,3,146,2,1098,0,1.241813E-07,6.541458,0,-1
19,F,0,1,37,5,4,147,3,3576,0,0.3641416,12.1515,1.688064,-1
19,F,0,1,37,6,4,146,2,2465,0,0.945673,12.36962,4.355096,-1
19,F,0,1,37,7,3,148,4,3865,0,0.3255285,6.406639,2.779392,-1
19,F,0,1,37,8,3,145,1,1898,0,2.741276E-08,6.146343,0,-1
19,F,0,1,38,1,3,150,2,1598,0,0.4615875,6.557882,3.956562,-1
19,F,0,1,38,2,4,149,1,1531,0,9.602794E-08,12.30832,0,-1
19,F,0,1,38,3,4,152,4,2065,0,0.8254696,12.34844,3.807452,-1
19,F,0,1,38,4,4,150,2,1498,0,0.8301034,12.36493,3.819468,-1
19,F,0,1,38,5,3,149,1,3042,0,0.2159613,6.16957,1.902281,-1
19,F,0,1,38,6,3,151,3,2865,0,0.3506109,6.219266,3.085467,-1
19,F,0,1,38,7,3,152,4,2631,0,0.3344471,6.391912,2.843724,-1
19,F,0,1,38,8,4,151,3,7642,0,0.3647154,12.18344,1.681094,-1
19,F,0,1,39,1,4,153,1,1320,0,0.8642917,12.27946,3.96304,-1
19,F,0,1,39,2,4,155,3,3031,0,0.2063808,12.17495,0.9526493,-1
19,F,0,1,39,3,3,154,2,1798,0,0.3150579,6.547902,2.685621,-1
19,F,0,1,39,4,3,155,3,3220,0,0.09644312,6.24231,0.8481144,-1
19,F,0,1,39,5,3,156,4,3809,1,0.05965272,6.410043,0.5109072,-1
19,F,0,1,39,6,3,153,1,1842,0,0.1336067,6.183686,1.182998,-1
19,F,0,1,39,7,4,154,2,2787,1,0.1879995,12.40258,0.8550079,-1
19,F,0,1,39,8,4,156,4,2220,0,0.5646505,12.36345,2.599324,-1
19,F,0,1,40,1,4,159,3,1698,0,0.1415394,12.1399,0.652521,-1
19,F,0,1,40,2,4,158,2,1453,0,0.4952061,12.39196,2.261832,-1
19,F,0,1,40,3,4,160,4,2464,0,0.5866666,12.37499,2.6921,-1
19,F,0,1,40,4,4,157,1,1653,0,0.2906804,12.27572,1.327364,-1
19,F,0,1,40,5,3,159,3,5142,0,0.3481699,6.230978,3.059791,-1
19,F,0,1,40,6,3,158,2,1898,0,0.02421278,6.55716,0.2017412,-1
19,F,0,1,40,7,3,160,4,2531,0,0.3089063,6.384586,2.650923,-1
19,F,0,1,40,8,3,157,1,1976,0,2.03025E-07,6.20111,0,-1
19,F,0,1,41,1,1,163,3,2642,0,0.1711399,6.241114,1.506362,-1
19,F,0,1,41,2,2,162,2,1209,0,0.6937783,12.38089,3.191814,-1
19,F,0,1,41,3,1,161,1,1742,0,0.1138611,6.1581,1.007748,-1
19,F,0,1,41,4,1,164,4,1898,0,0.3318846,6.402254,2.820708,-1
19,F,0,1,41,5,2,161,1,1542,0,0.21891,12.26819,1.006971,-1
19,F,0,1,41,6,2,163,3,4042,0,0.3402634,12.15031,1.569351,-1
19,F,0,1,41,7,2,164,4,1853,0,0.6986895,12.37548,3.201185,-1
19,F,0,1,41,8,1,162,2,3120,0,0.3434746,6.549207,2.933315,-1
19,F,0,1,42,1,2,167,3,1920,0,0.58801,12.16905,2.707977,-1
19,F,0,1,42,2,1,165,1,4387,0,0.153032,6.153385,1.354508,-1
19,F,0,1,42,3,1,168,4,2831,0,0.3507317,6.39533,2.9838,-1
19,F,0,1,42,4,1,166,2,2131,0,0.09787883,6.556584,0.8197219,-1
19,F,0,1,42,5,2,168,4,3165,0,1.018696,12.37263,4.659931,-1
19,F,0,1,42,6,1,167,3,3409,0,0.001230889,6.21664,0,-1
19,F,0,1,42,7,2,166,2,1276,0,1.053726,12.3838,4.833146,-1
19,F,0,1,42,8,2,165,1,1942,0,0.3997972,12.28042,1.825742,-1
19,F,0,1,43,1,2,172,4,2864,0,0.9381067,12.38848,4.286286,-1
19,F,0,1,43,2,2,171,3,1742,0,1.908149E-07,12.15188,0,-1
19,F,0,1,43,3,1,169,1,2065,0,0.2392815,6.168079,2.115166,-1
19,F,0,1,43,4,1,172,4,2498,0,0.4182827,6.402417,3.563209,-1
19,F,0,1,43,5,2,170,2,2609,1,0.4024594,12.37542,1.841219,-1
19,F,0,1,43,6,2,169,1,1598,0,0.2401208,12.28067,1.095751,-1
19,F,0,1,43,7,1,170,2,1442,0,0.2897101,6.558835,2.457263,-1
19,F,0,1,43,8,1,171,3,2620,0,0.2353743,6.235267,2.075186,-1
19,F,0,1,44,1,1,174,2,1420,0,0.360619,6.561334,3.082928,-1
19,F,0,1,44,2,1,176,4,3542,1,0.04771264,6.400575,0.4083038,-1
19,F,0,1,44,3,2,174,2,1342,0,0.9793705,12.39142,4.479996,-1
19,F,0,1,44,4,2,176,4,2265,0,0.7280294,12.38448,3.329961,-1
19,F,0,1,44,5,1,175,3,2820,0,0.1364385,6.229331,1.202684,-1
19,F,0,1,44,6,2,173,1,1553,0,0.1050491,12.27871,0.4813265,-1
19,F,0,1,44,7,2,175,3,2098,0,0.5435689,12.16464,2.505616,-1
19,F,0,1,44,8,1,173,1,1531,0,6.834838E-08,6.168798,0,-1
19,F,0,1,45,1,1,178,2,1743,0,0.2989256,6.563883,2.492301,-1
19,F,0,1,45,2,2,180,4,2431,0,0.781937,12.39491,3.57785,-1
19,F,0,1,45,3,2,177,1,1365,0,0.1820863,12.29219,0.8348597,-1
19,F,0,1,45,4,2,179,3,2031,0,0.5278087,12.16768,2.430916,-1
19,F,0,1,45,5,1,180,4,2031,0,0.4557038,6.395957,3.877422,-1
19,F,0,1,45,6,1,177,1,1609,0,0.3149712,6.176387,2.771846,-1
19,F,0,1,45,7,2,178,2,1842,1,0.4066406,12.39005,1.854563,-1
19,F,0,1,45,8,1,179,3,2131,0,0.4514855,6.233246,3.995814,-1
19,F,0,1,46,1,2,181,1,1364,0,0.2439871,12.28741,1.113642,-1
19,F,0,1,46,2,1,184,4,2420,0,0.4843075,6.394899,4.134981,-1
19,F,0,1,46,3,2,182,2,1287,0,0.945681,12.38866,4.32821,-1
19,F,0,1,46,4,1,183,3,2176,0,0.0822889,6.220532,0.7260464,-1
19,F,0,1,46,5,1,181,1,1311,0,0.1189741,6.162749,1.052019,-1
19,F,0,1,46,6,2,184,4,3064,1,0.448376,12.37971,2.050805,-1
19,F,0,1,46,7,1,182,2,1654,0,0.3801935,6.558458,3.258946,-1
19,F,0,1,46,8,2,183,3,1742,0,0.1171976,12.1533,0.5406791,-1
19,F,0,1,47,1,1,185,1,1420,0,5.661575E-08,6.164987,0,-1
19,F,0,1,47,2,2,187,3,1976,0,0.941105,12.15944,4.343297,-1
19,F,0,1,47,3,1,188,4,3320,0,0.4827968,6.39776,4.107276,-1
19,F,0,1,47,4,2,185,1,1354,0,0.2279962,12.27769,1.040799,-1
19,F,0,1,47,5,1,186,2,1631,0,0.534698,6.563073,4.583514,-1
19,F,0,1,47,6,1,187,3,3176,0,0.16546,6.237615,1.4571,-1
19,F,0,1,47,7,2,188,4,2031,0,0.9600167,12.39022,4.405445,-1
19,F,0,1,47,8,2,186,2,3165,2,0.3248972,12.37908,1.485299,-1
19,F,0,1,48,1,1,191,3,2309,0,0.2506213,6.227768,2.215849,-1
19,F,0,1,48,2,2,189,1,1376,0,0.1069995,12.2817,0.4877876,-1
19,F,0,1,48,3,1,190,2,1364,0,0.1999964,6.564264,1.688875,-1
19,F,0,1,48,4,1,192,4,2009,0,0.1860649,6.386871,1.593605,-1
19,F,0,1,48,5,2,190,2,1942,1,0.7256455,12.38702,3.319125,-1
19,F,0,1,48,6,1,189,1,1742,0,9.709425E-08,6.155766,0,-1
19,F,0,1,48,7,2,191,3,2109,0,0.5787138,12.16435,2.660136,-1
19,F,0,1,48,8,2,192,4,3186,1,0.7604806,12.37235,3.470513,-1
19,F,0,1,49,1,2,194,2,1042,0,0.4668075,12.37871,2.1357,-1
19,F,0,1,49,2,2,193,1,1331,0,0.8312184,12.30469,3.831395,-1
19,F,0,1,49,3,1,196,4,1887,0,2.30697E-07,6.417766,0,-1
19,F,0,1,49,4,1,195,3,2487,0,0.1045355,6.261053,0.9168525,-1
19,F,0,1,49,5,2,196,4,1753,0,1.02018,12.3808,4.685628,-1
19,F,0,1,49,6,1,194,2,1276,0,0.08703832,6.559351,0.7300779,-1
19,F,0,1,49,7,1,193,1,1242,0,0.44191,6.164877,3.909861,-1
19,F,0,1,49,8,2,195,3,1987,0,0.7224861,12.16266,3.330549,-1
19,F,0,1,50,1,2,198,2,2131,1,0.836802,12.35868,3.837013,-1
19,F,0,1,50,2,1,200,4,2442,0,0.2503655,6.429037,2.138265,-1
19,F,0,1,50,3,2,197,1,1365,0,0.5234349,12.29216,2.413462,-1
19,F,0,1,50,4,2,199,3,1587,0,0.5879934,12.15558,2.725414,-1
19,F,0,1,50,5,1,198,2,1409,0,0.2674031,6.587365,2.245766,-1
19,F,0,1,50,6,1,197,1,1176,0,0.1878446,6.144029,1.663776,-1
19,F,0,1,50,7,1,199,3,1931,0,0.2690887,6.24867,2.374958,-1
19,F,0,1,50,8,2,200,4,1831,0,0.8455613,12.38392,3.881309,-1
19,F,0,1,51,1,2,201,1,1209,0,0.2386538,12.29893,1.087685,-1
19,F,0,1,51,2,1,202,2,1187,0,0.4429051,6.53812,3.791527,-1
19,F,0,1,51,3,1,203,3,2242,0,0.2586152,6.278838,2.267018,-1
19,F,0,1,51,4,1,204,4,2820,0,0.2435304,6.432871,2.061275,-1
19,F,0,1,51,5,1,201,1,1231,0,0.1661217,6.190979,1.461391,-1
19,F,0,1,51,6,2,203,3,2065,0,0.5368999,12.18091,2.470054,-1
19,F,0,1,51,7,2,202,2,2464,1,0.05381395,12.39877,0.2438933,-1
19,F,0,1,51,8,2,204,4,4220,0,0.1314476,12.38361,0.5954478,-1
19,F,0,1,52,1,1,207,3,1943,0,0.1533236,6.276919,1.347701,-1
19,F,0,1,52,2,1,208,4,3209,0,0.1457694,6.440217,1.231941,-1
19,F,0,1,52,3,1,206,2,1853,0,0.2905819,6.581233,2.430191,-1
19,F,0,1,52,4,2,205,1,1176,0,0.1163072,12.27556,0.533025,-1
19,F,0,1,52,5,2,208,4,3742,0,0.2479288,12.37528,1.125875,-1
19,F,0,1,52,6,1,205,1,1109,0,0.03349528,6.173794,0.2973941,-1
19,F,0,1,52,7,2,206,2,1253,0,0.6327429,12.36662,2.907912,-1
19,F,0,1,52,8,2,207,3,1631,0,0.3045037,12.16721,1.402769,-1
19,F,0,1,53,1,1,212,4,2109,0,0.2006377,6.44513,1.718511,-1
19,F,0,1,53,2,2,211,3,1142,0,0.5834724,12.17404,2.680733,-1
19,F,0,1,53,3,2,209,1,1298,0,0.247146,12.30352,1.126917,-1
19,F,0,1,53,4,2,212,4,2031,0,0.2059595,12.37805,0.939828,-1
19,F,0,1,53,5,1,209,1,1431,0,0.09639151,6.183474,0.8529457,-1
19,F,0,1,53,6,2,210,2,1153,0,0.5076878,12.37531,2.329106,-1
19,F,0,1,53,7,1,211,3,1776,0,0.2255634,6.212635,2.00125,-1
19,F,0,1,53,8,1,210,2,5109,0,0.07937945,6.580005,0.6635236,-1
19,F,0,1,54,1,1,216,4,1920,0,0.125099,6.447615,1.067162,-1
19,F,0,1,54,2,2,213,1,1187,0,0.2477896,12.31032,1.128306,-1
19,F,0,1,54,3,2,215,3,1709,0,0.2234991,12.15547,1.035143,-1
19,F,0,1,54,4,1,214,2,1120,0,0.3654006,6.58039,3.112756,-1
19,F,0,1,54,5,2,216,4,3453,0,0.3823691,12.39423,1.730992,-1
19,F,0,1,54,6,1,215,3,3042,0,0.0602035,6.277874,0.5267473,-1
19,F,0,1,54,7,2,214,2,1109,0,0.9450305,12.39144,4.322369,-1
19,F,0,1,54,8,1,213,1,1442,0,7.87731E-08,6.158303,0,-1
19,F,0,1,55,1,1,220,4,1609,0,0.1753767,6.44316,1.50272,-1
19,F,0,1,55,2,2,218,2,842,0,0.5807967,12.3899,2.656086,-1
19,F,0,1,55,3,2,217,1,1087,0,0.04447599,12.27111,0.2027088,-1
19,F,0,1,55,4,1,219,3,2687,0,0.03262866,6.278477,0.2853053,-1
19,F,0,1,55,5,1,218,2,1265,0,0.3648274,6.565622,3.085403,-1
19,F,0,1,55,6,1,217,1,1476,0,0.02381546,6.19213,0.2102893,-1
19,F,0,1,55,7,2,220,4,2442,0,0.6211805,12.39831,2.847026,-1
19,F,0,1,55,8,2,219,3,2253,0,0.2580555,12.18151,1.187621,-1
19,F,0,1,56,1,1,221,1,1287,0,0.1189047,6.201399,1.049038,-1
19,F,0,1,56,2,2,223,3,1798,0,0.1675887,12.17986,0.7715172,-1
19,F,0,1,56,3,2,221,1,1098,0,2.528979E-08,12.27202,0,-1
19,F,0,1,56,4,2,224,4,2009,0,0.8804066,12.38482,4.041136,-1
19,F,0,1,56,5,2,222,2,2320,2,0.4263052,12.36773,1.948328,-1
19,F,0,1,56,6,1,223,3,1942,0,0.02141466,6.28598,0.1866263,-1
19,F,0,1,56,7,1,224,4,2420,0,0.09475131,6.447276,0.7996635,-1
19,F,0,1,56,8,1,222,2,1320,0,0.1375814,6.581852,1.153179,-1
19,F,0,1,57,1,3,227,3,2398,0,0.03285621,6.254907,0.2873554,-1
19,F,0,1,57,2,4,226,2,742,0,0.9090627,12.37308,4.168425,-1
19,F,0,1,57,3,3,225,1,2098,0,0.1432483,6.183353,1.262226,-1
19,F,0,1,57,4,4,228,4,1898,1,0.9964359,12.37475,4.588683,-1
19,F,0,1,57,5,3,226,2,5976,0,0.3046715,6.604386,2.513338,-1
19,F,0,1,57,6,3,228,4,2465,0,0.02449176,6.446413,0.2065338,-1
19,F,0,1,57,7,4,227,3,2087,0,0.141125,12.17674,0.6501176,-1
19,F,0,1,57,8,4,225,1,1420,0,0.03934963,12.32279,0.1791368,-1
19,F,0,1,58,1,3,230,2,4242,0,1.923704E-07,6.585135,0.01978234,-1
19,F,0,1,58,2,3,231,3,5120,0,1.57349E-07,6.293549,0,-1
19,F,0,1,58,3,3,232,4,3964,0,1.834967E-07,6.436826,0,-1
19,F,0,1,58,4,4,229,1,1398,0,0.5195802,12.29875,2.398738,-1
19,F,0,1,58,5,4,231,3,2120,0,0.470175,12.18684,2.175469,-1
19,F,0,1,58,6,4,230,2,1776,0,0.4083587,12.40297,1.860989,-1
19,F,0,1,58,7,3,229,1,2076,0,0.05709422,6.177131,0.5051297,-1
19,F,0,1,58,8,4,232,4,3787,0,0.3907796,12.39886,1.77597,-1
19,F,0,1,59,1,3,235,3,3076,0,0.148662,6.295369,1.297393,-1
19,F,0,1,59,2,4,233,1,1587,0,3.008414E-07,12.2636,0,-1
19,F,0,1,59,3,4,235,3,2020,0,0.3016778,12.20189,1.38748,-1
19,F,0,1,59,4,3,233,1,1642,0,0.3152903,6.180331,2.77742,-1
19,F,0,1,59,5,4,236,4,1787,0,0.7451047,12.34303,3.436099,-1
19,F,0,1,59,6,3,234,2,1320,0,0.4417456,6.539415,3.796998,-1
19,F,0,1,59,7,3,236,4,2520,0,0.4367271,6.451806,3.713306,-1
19,F,0,1,59,8,4,234,2,2331,1,0.1479228,12.35522,0.6737661,-1
19,F,0,1,60,1,3,240,4,2320,0,0.09331772,6.422929,0.7922885,-1
19,F,0,1,60,2,4,238,2,9999,0,-1,-1,-1,-1
19,F,0,1,60,3,4,240,4,2576,0,0.6152611,12.39309,2.816958,-1
19,F,0,1,60,4,3,237,1,1531,0,0.2530695,6.222292,2.270382,-1
19,F,0,1,60,5,3,239,3,2409,0,0.125786,6.250814,1.100207,-1
19,F,0,1,60,6,3,238,2,3798,0,0.002808074,6.591432,0.01978234,-1
19,F,0,1,60,7,4,239,3,1287,0,0.2465998,12.15658,1.141753,-1
19,F,0,1,60,8,4,237,1,2920,0,1.587078E-07,12.32847,0,-1
19,F,0,1,61,1,1,242,2,1298,0,0.01397391,6.554425,0.1153499,-1
19,F,0,1,61,2,2,244,4,2742,0,0.3475488,12.38989,1.569975,-1
19,F,0,1,61,3,1,241,1,1409,0,1.198973E-07,6.206663,0,-1
19,F,0,1,61,4,1,243,3,3020,0,2.076311E-07,6.30986,0,-1
19,F,0,1,61,5,1,244,4,2298,0,0.0437947,6.456033,0.3716771,-1
19,F,0,1,61,6,2,242,2,1031,0,0.6563305,12.42116,2.993298,-1
19,F,0,1,61,7,2,243,3,1831,0,0.09969148,12.1831,0.4597013,-1
19,F,0,1,61,8,2,241,1,1087,0,0.1284272,12.3221,0.5865081,-1
19,F,0,1,62,1,1,246,2,1431,0,0.3398367,6.605177,2.845788,-1
19,F,0,1,62,2,2,245,1,1287,0,0.8625252,12.31052,3.97365,-1
19,F,0,1,62,3,2,246,2,1176,0,0.8454552,12.3657,3.879997,-1
19,F,0,1,62,4,2,247,3,1265,0,1.271685E-07,12.1865,0,-1
19,F,0,1,62,5,2,248,4,2198,0,0.6808058,12.40145,3.119854,-1
19,F,0,1,62,6,1,247,3,2176,0,8.870018E-08,6.278551,0.01978234,-1
19,F,0,1,62,7,1,245,1,1176,0,0.2893384,6.219952,2.55336,-1
19,F,0,1,62,8,1,248,4,1965,0,0.4597736,6.442146,3.959135,-1
19,F,0,1,1,1,7,3,3,3285,0,1.332128,6.306754,11.7349,-1
19,F,0,1,1,2,5,1,1,1853,0,0.2230661,6.181442,1.963836,-1
19,F,0,1,1,3,5,4,4,6064,0,0.9054222,6.431603,7.680533,-1
19,F,0,1,1,4,6,2,2,3642,0,0.05719909,12.39771,0.2586879,-1
19,F,0,1,1,5,7,1,1,7009,0,0.3845191,6.193444,3.378581,-1
19,F,0,1,1,6,6,4,4,7809,0,5.184541,12.41007,24.69381,-1
19,F,0,1,1,7,5,2,2,6353,0,0.9336536,6.558635,8.008101,-1
19,F,0,1,1,8,8,1,1,5509,0,1.523476,12.31044,7.03464,-1
19,F,0,1,1,9,8,3,3,5064,0,5.622196,12.18903,27.31178,-1
19,F,0,1,1,10,7,4,4,1909,0,6.0574,6.414029,70.80387,-1
19,F,0,1,1,11,6,1,1,7553,0,8.120136,12.26892,41.44083,-1
19,F,0,1,1,12,8,2,2,1776,0,4.262555,12.4097,19.98185,-1
19,F,0,1,1,13,5,3,3,4042,0,2.318809,6.324699,20.67749,-1
19,F,0,1,1,14,8,4,4,3120,0,8.805258,12.34929,45.48097,-1
19,F,0,1,1,15,6,3,3,8409,0,5.701725,12.20588,27.84811,-1
19,F,0,1,1,16,7,2,2,3509,0,0.2285715,6.59277,1.880031,-1
19,F,0,1,2,1,8,2,2,7953,0,3.385976,12.41931,15.7394,-1
19,F,0,1,2,2,5,1,1,9275,0,2.271625,6.194392,21.04947,-1
19,F,0,1,2,3,6,2,2,8364,0,7.021617,12.36704,34.59476,-1
19,F,0,1,2,4,5,3,3,5820,0,5.426176,6.307898,59.34123,-1
19,F,0,1,2,5,5,4,4,15242,0,2.370678,6.440654,21.59727,-1
19,F,0,1,2,6,8,3,3,6398,0,7.845098,12.21839,39.94657,-1
19,F,0,1,2,7,8,4,4,3898,0,5.188746,12.35054,24.84234,-1
19,F,0,1,2,8,8,1,1,7898,0,3.469259,12.32426,16.21386,-1
19,F,0,1,2,9,5,2,2,8675,0,2.269557,6.56307,19.78097,-1
19,F,0,1,2,10,6,3,3,4287,0,4.235559,12.18963,20.33277,-1
19,F,0,1,2,11,7,2,2,11742,0,3.248249,6.487744,29.23311,-1
19,F,0,1,2,12,7,1,1,13075,0,0.1423299,6.193837,1.25445,-1
19,F,0,1,2,13,6,4,4,5364,0,1.928846,12.38952,8.708135,-1
19,F,0,1,2,14,7,3,3,2076,0,1.471356,6.322395,12.95293,-1
19,F,0,1,2,15,7,4,4,5987,0,6.194965,6.457219,73.61463,-1
19,F,0,1,2,16,6,1,1,3242,0,5.631577,12.29161,27.26871,-1
