Age, Gender, Awareness Type, Session, Block, Trial, Set, Pattern, Quadrant, Response Time, Num Mistakes, Distance From Target, Camera Distance From Target, Angle Error (Degrees), FC Response
19,F,0,1,1,1,1,1,1,3797,1,0.1125521,6.218036,0.9827783,-1
19,F,0,1,1,2,2,3,3,2831,0,0.6847359,12.17597,3.17521,-1
19,F,0,1,1,3,2,4,4,4031,1,0.8480949,12.2254,3.845373,-1
19,F,0,1,1,4,1,2,2,1709,0,0.4703908,6.368713,4.004577,-1
19,F,0,1,1,5,1,4,4,6398,3,0.1915206,6.516472,1.593605,-1
19,F,0,1,1,6,2,2,2,4153,0,0.9978557,12.27403,4.552469,-1
19,F,0,1,1,7,2,1,1,2064,0,0.8783189,12.07,4.141417,-1
19,F,0,1,1,8,1,3,3,2975,0,0.1050349,6.172502,0.9312522,-1
19,F,0,1,2,1,2,6,2,2020,0,0.7390049,12.29217,3.35987,-1
19,F,0,1,2,2,2,7,3,2531,0,0.6090452,12.19709,2.812716,-1
19,F,0,1,2,3,1,5,1,3498,0,0.2098444,6.229998,1.850972,-1
19,F,0,1,2,4,2,8,4,2453,0,0.9257081,12.2413,4.196613,-1
19,F,0,1,2,5,2,5,1,2375,0,0.2142493,12.1104,0.9942597,-1
19,F,0,1,2,6,1,7,3,3642,0,0.2567921,6.187708,2.262264,-1
19,F,0,1,2,7,1,6,2,3320,1,0.2229962,6.391887,1.895272,-1
19,F,0,1,2,8,1,8,4,5542,2,0.3216975,6.510939,2.679565,-1
19,F,0,1,3,1,2,11,3,2632,0,0.6390379,12.2186,2.914233,-1
19,F,0,1,3,2,1,12,4,5664,3,0.07290872,6.518863,0.6074851,-1
19,F,0,1,3,3,2,9,1,3676,0,0.9964076,12.1219,4.675249,-1
19,F,0,1,3,4,1,11,3,3476,0,3.953361E-08,6.190473,0,-1
19,F,0,1,3,5,2,12,4,4753,0,0.5001961,12.25198,2.261918,-1
19,F,0,1,3,6,2,10,2,2131,0,0.5819915,12.32381,2.639453,-1
19,F,0,1,3,7,1,9,1,4353,0,0.2332516,6.245666,2.053761,-1
19,F,0,1,3,8,1,10,2,3154,0,0.2953577,6.401779,2.502802,-1
19,F,0,1,4,1,1,15,3,3864,0,0.1293727,6.190043,1.139351,-1
19,F,0,1,4,2,1,16,4,2242,0,0.5045851,6.481347,4.213938,-1
19,F,0,1,4,3,2,13,1,2154,0,0.5152923,12.11485,2.410053,-1
19,F,0,1,4,4,2,14,2,2008,0,0.7799339,12.31474,3.529142,-1
19,F,0,1,4,5,2,16,4,3008,0,0.9384047,12.24679,4.248191,-1
19,F,0,1,4,6,1,13,1,4398,0,0.2228235,6.243479,1.961842,-1
19,F,0,1,4,7,1,14,2,4097,0,0.2620574,6.404504,2.220437,-1
19,F,0,1,4,8,2,15,3,2009,0,0.5948281,12.2051,2.721532,-1
19,F,0,1,5,1,2,17,1,1820,0,0.873046,12.11608,4.098828,-1
19,F,0,1,5,2,2,19,3,2476,0,0.1970038,12.20454,0.9069818,-1
19,F,0,1,5,3,1,20,4,3098,1,0.5369772,6.484556,4.407845,-1
19,F,0,1,5,4,2,18,2,2009,0,0.4565422,12.32869,2.076223,-1
19,F,0,1,5,5,2,20,4,2776,0,0.2941782,12.25893,1.339691,-1
19,F,0,1,5,6,1,17,1,3331,0,0.02482698,6.253561,0.2167048,-1
19,F,0,1,5,7,1,18,2,3487,0,0.5456884,6.405435,4.616855,-1
19,F,0,1,5,8,1,19,3,3220,0,0.02064909,6.198314,0.1802258,-1
19,F,0,1,6,1,1,21,1,4476,0,0.2413351,6.251362,2.125228,-1
19,F,0,1,6,2,1,22,2,3409,0,0.3465715,6.409034,2.944771,-1
19,F,0,1,6,3,2,24,4,2109,0,0.6120544,12.25588,2.768667,-1
19,F,0,1,6,4,2,23,3,1676,0,0.5219468,12.21483,2.399228,-1
19,F,0,1,6,5,2,21,1,2442,1,0.2382303,12.12906,1.104113,-1
19,F,0,1,6,6,2,22,2,1720,0,0.5296404,12.32634,2.401429,-1
19,F,0,1,6,7,1,24,4,3387,1,0.4361176,6.488248,3.626714,-1
19,F,0,1,6,8,1,23,3,3665,0,0.05446656,6.194421,0.4805128,-1
19,F,0,1,7,1,1,26,2,2198,0,0.2828247,6.411118,2.394573,-1
19,F,0,1,7,2,1,27,3,4009,0,0.2714549,6.193517,2.388927,-1
19,F,0,1,7,3,1,28,4,2042,0,0.5126244,6.48784,4.283315,-1
19,F,0,1,7,4,2,25,1,2175,0,0.7482216,12.12154,3.509113,-1
19,F,0,1,7,5,2,28,4,1909,0,0.5393722,12.25538,2.457502,-1
19,F,0,1,7,6,1,25,1,4909,0,0.1100377,6.249822,0.9646922,-1
19,F,0,1,7,7,2,26,2,3475,1,1.039999,12.32591,4.719288,-1
19,F,0,1,7,8,2,27,3,4453,0,0.7922615,12.20092,3.618878,-1
19,F,0,1,8,1,1,29,1,4275,0,0.07326617,6.252025,0.6416347,-1
19,F,0,1,8,2,2,31,3,3142,0,0.09294862,12.20658,0.4261257,-1
19,F,0,1,8,3,2,30,2,4642,1,0.3629528,12.33143,1.646157,-1
19,F,0,1,8,4,2,32,4,3386,1,0.4583142,12.25283,2.087598,-1
19,F,0,1,8,5,1,30,2,3497,0,7.041895E-08,6.409404,0,-1
19,F,0,1,8,6,2,29,1,2064,0,0.3898476,12.1164,1.819945,-1
19,F,0,1,8,7,1,32,4,4220,1,0.08757865,6.486108,0.7316842,-1
19,F,0,1,8,8,1,31,3,3053,0,2.804769E-07,6.202371,0.01978234,-1
19,F,0,1,9,1,2,36,4,3475,1,0.6500955,12.25077,2.94078,-1
19,F,0,1,9,2,1,35,3,3454,0,0.03057937,6.197768,0.2690692,-1
19,F,0,1,9,3,1,33,1,4331,0,2.864405E-07,6.243104,0,-1
19,F,0,1,9,4,1,36,4,3764,2,0.1802435,6.492937,1.498286,-1
19,F,0,1,9,5,2,35,3,1642,0,0.08389668,12.2176,0.3846134,-1
19,F,0,1,9,6,2,34,2,2397,0,0.3107229,12.32888,1.4201,-1
19,F,0,1,9,7,2,33,1,2465,0,1.532657E-07,12.12237,0,-1
19,F,0,1,9,8,1,34,2,4041,0,0.09976032,6.402428,0.8444148,-1
19,F,0,1,10,1,2,37,1,2387,0,0.1525725,12.10097,0.707759,-1
19,F,0,1,10,2,1,38,2,4176,0,0.1941193,6.400118,1.647345,-1
19,F,0,1,10,3,1,39,3,4831,0,1.872976E-07,6.18713,0,-1
19,F,0,1,10,4,1,40,4,2775,0,1.150776E-07,6.491469,0,-1
19,F,0,1,10,5,2,39,3,2687,0,0.2121395,12.20258,0.9729732,-1
19,F,0,1,10,6,2,40,4,2364,0,0.1026891,12.25014,0.4689721,-1
19,F,0,1,10,7,2,38,2,2320,0,0.1474755,12.32428,0.6693957,-1
19,F,0,1,10,8,1,37,1,4442,0,1.988039E-07,6.249644,0.01978234,-1
19,F,0,1,11,1,1,44,4,3709,0,0.05746337,6.486223,0.4813265,-1
19,F,0,1,11,2,2,41,1,2431,0,0.04165867,12.12152,0.1928145,-1
19,F,0,1,11,3,2,44,4,2231,0,0.03155579,12.24788,0.1440177,-1
19,F,0,1,11,4,1,43,3,3376,0,1.213406E-07,6.190759,0,-1
19,F,0,1,11,5,2,42,2,1776,0,0.1964028,12.33171,0.8941622,-1
19,F,0,1,11,6,2,43,3,1942,0,0.2754708,12.20505,1.263775,-1
19,F,0,1,11,7,1,42,2,3298,0,0.2009217,6.407182,1.703183,-1
19,F,0,1,11,8,1,41,1,3786,0,0.009396275,6.252309,0.08156469,-1
19,F,0,1,12,1,1,47,3,2942,0,0.02223703,6.193087,0.1958353,-1
19,F,0,1,12,2,2,46,2,4298,0,0.5703759,12.3307,2.615689,-1
19,F,0,1,12,3,2,47,3,2298,0,0.3584572,12.20673,1.652208,-1
19,F,0,1,12,4,1,45,1,3242,0,0.06228292,6.250359,0.5453635,-1
19,F,0,1,12,5,1,48,4,2809,0,0.2559175,6.493351,2.137075,-1
19,F,0,1,12,6,2,45,1,1975,0,1.439451E-07,12.11965,0,-1
19,F,0,1,12,7,1,46,2,3620,0,2.16922E-07,6.417476,0,-1
19,F,0,1,12,8,2,48,4,2175,0,0.585713,12.25044,2.649298,-1
19,F,0,1,13,1,2,49,1,1298,0,0.4646251,12.11929,2.163922,-1
19,F,0,1,13,2,2,50,2,2731,1,0.7689403,12.31476,3.489193,-1
19,F,0,1,13,3,1,51,3,3009,0,0.1372008,6.206153,1.212892,-1
19,F,0,1,13,4,1,52,4,3809,0,0.399895,6.497498,3.304761,-1
19,F,0,1,13,5,2,51,3,2219,0,0.4026706,12.19965,1.855513,-1
19,F,0,1,13,6,1,49,1,2865,0,2.004079E-07,6.233088,0,-1
19,F,0,1,13,7,2,52,4,1897,0,1.45577E-07,12.25377,0,-1
19,F,0,1,13,8,1,50,2,3553,0,0.00510511,6.410333,0.04423466,-1
19,F,0,1,14,1,1,56,4,2142,0,0.3522099,6.506875,2.927169,-1
19,F,0,1,14,2,2,53,1,2076,0,0.1110767,12.10919,0.5143426,-1
19,F,0,1,14,3,1,55,3,3031,0,2.477148E-07,6.192302,0,-1
19,F,0,1,14,4,1,54,2,2520,0,0.1780754,6.403518,1.511549,-1
19,F,0,1,14,5,1,53,1,2697,0,2.357553E-07,6.238581,0,-1
19,F,0,1,14,6,2,55,3,2020,0,0.3531303,12.21535,1.614103,-1
19,F,0,1,14,7,2,54,2,1754,0,0.2757162,12.32807,1.25117,-1
19,F,0,1,14,8,2,56,4,2353,0,1.346688E-07,12.2629,0,-1
19,F,0,1,15,1,1,58,2,2687,0,0.2783837,6.40627,2.358583,-1
19,F,0,1,15,2,1,57,1,4364,0,0.2938785,6.243631,2.594048,-1
19,F,0,1,15,3,1,59,3,3220,0,7.297415E-08,6.199518,0,-1
19,F,0,1,15,4,2,60,4,3131,0,0.5775371,12.2647,2.609396,-1
19,F,0,1,15,5,2,57,1,1698,0,0.2295619,12.1211,1.064592,-1
19,F,0,1,15,6,1,60,4,4064,0,0.06640716,6.499566,0.5549665,-1
19,F,0,1,15,7,2,59,3,2242,0,0.01906643,12.21909,0.08622923,-1
19,F,0,1,15,8,2,58,2,1542,0,0.3369133,12.33679,1.527262,-1
19,F,0,1,16,1,1,64,4,2009,1,0.5330961,6.498265,4.430538,-1
19,F,0,1,16,2,2,62,2,1331,0,0.3339159,12.32862,1.511938,-1
19,F,0,1,16,3,1,61,1,3420,0,0.09441647,6.258848,0.8244823,-1
19,F,0,1,16,4,2,64,4,2742,1,0.14884,12.26027,0.6760855,-1
19,F,0,1,16,5,2,61,1,1575,0,0.9963924,12.10868,4.680525,-1
19,F,0,1,16,6,2,63,3,2264,0,0.5325392,12.20577,2.458935,-1
19,F,0,1,16,7,1,62,2,3209,0,0.2794487,6.403496,2.367942,-1
19,F,0,1,16,8,1,63,3,3242,0,0.1118188,6.193816,0.9899204,-1
19,F,0,1,17,1,3,66,2,4542,0,0.2583696,6.333724,2.254899,-1
19,F,0,1,17,2,4,68,4,1653,0,0.2131823,12.22186,0.9691444,-1
19,F,0,1,17,3,3,65,1,1476,0,0.2598414,6.148461,2.285076,-1
19,F,0,1,17,4,4,66,2,1698,0,0.004562222,12.22268,0,-1
19,F,0,1,17,5,4,65,1,1220,0,0.2342957,12.0477,1.087505,-1
19,F,0,1,17,6,4,67,3,2998,0,0.5032868,12.1417,2.322542,-1
19,F,0,1,17,7,3,68,4,2020,0,0.4386477,6.454966,3.674504,-1
19,F,0,1,17,8,3,67,3,1986,0,4.468921E-08,6.210685,0,-1
19,F,0,1,18,1,4,69,1,2364,0,0.3845078,12.042,1.801136,-1
19,F,0,1,18,2,4,71,3,1831,0,0.334772,12.16642,1.556957,-1
19,F,0,1,18,3,3,72,4,2564,0,0.3164299,6.452549,2.628603,-1
19,F,0,1,18,4,4,70,2,1475,0,0.6928834,12.21442,3.203446,-1
19,F,0,1,18,5,4,72,4,1698,0,0.04629903,12.20761,0.2121421,-1
19,F,0,1,18,6,3,69,1,2154,0,1.14449E-07,6.160055,0,-1
19,F,0,1,18,7,3,70,2,1798,0,0.1586172,6.309299,1.353352,-1
19,F,0,1,18,8,3,71,3,2253,0,0.18011,6.195146,1.589547,-1
19,F,0,1,19,1,4,73,1,1809,0,0.1387316,12.03849,0.6452838,-1
19,F,0,1,19,2,4,74,2,5298,0,8.636901E-08,12.22676,0,-1
19,F,0,1,19,3,3,76,4,5331,0,6.441949E-08,6.467792,0.01978234,-1
19,F,0,1,19,4,4,75,3,2209,0,0.4455701,12.11245,2.036728,-1
19,F,0,1,19,5,3,74,2,3498,0,0.4240471,6.301516,3.631732,-1
19,F,0,1,19,6,4,76,4,4320,0,0.597694,12.22239,2.768172,-1
19,F,0,1,19,7,3,73,1,3142,0,0.2953513,6.144315,2.62838,-1
19,F,0,1,19,8,3,75,3,2953,0,0.09367814,6.20043,0.8294513,-1
19,F,0,1,20,1,3,78,2,1653,0,0.1495586,6.29683,1.28816,-1
19,F,0,1,20,2,3,77,1,8019,0,0.3233767,6.16316,2.886765,-1
19,F,0,1,20,3,4,79,3,2198,0,0.322926,12.10995,1.495017,-1
19,F,0,1,20,4,4,80,4,1309,0,0.4656234,12.19313,2.122555,-1
19,F,0,1,20,5,4,77,1,1398,0,0.6161543,12.05308,2.860197,-1
19,F,0,1,20,6,3,80,4,2887,1,0.2839272,6.432898,2.397596,-1
19,F,0,1,20,7,4,78,2,2387,0,0.2439874,12.17779,1.119076,-1
19,F,0,1,20,8,3,79,3,3476,0,0.3700668,6.204239,3.287833,-1
19,F,0,1,20,1,2,80,4,1608,0,0.1402949,12.18856,0.6410245,-1
19,F,0,1,20,2,2,77,1,6164,0,0.7897488,12.02395,3.694857,-1
19,F,0,1,20,3,2,78,2,1542,0,0.09641091,12.21893,0.4436728,-1
19,F,0,1,20,4,2,79,3,1465,0,0.1061633,12.14054,0.4889896,-1
19,F,0,1,20,5,1,80,4,2476,0,0.4851133,6.439784,4.088111,-1
19,F,0,1,20,6,1,79,3,3564,0,0.1929609,6.16729,1.719308,-1
19,F,0,1,20,7,1,78,2,3198,0,0.1672871,6.288177,1.440078,-1
19,F,0,1,20,8,1,77,1,3042,0,3.174769E-07,6.129104,0,-1
19,F,0,1,21,1,2,84,4,2310,0,0.2253881,12.23883,1.025075,-1
19,F,0,1,21,2,1,82,2,3032,0,0.2818584,6.330064,2.414759,-1
19,F,0,1,21,3,1,83,3,2598,0,0.4786313,6.221234,4.23739,-1
19,F,0,1,21,4,2,81,1,1464,0,0.3088685,12.07829,1.442115,-1
19,F,0,1,21,5,2,83,3,1773,0,0.059722,12.20803,0.2733977,-1
19,F,0,1,21,6,2,82,2,1396,0,1.041031,12.26789,4.746481,-1
19,F,0,1,21,7,1,84,4,2376,1,0.3312042,6.491143,2.735235,-1
19,F,0,1,21,8,1,81,1,2921,0,0.2580038,6.163615,2.302738,-1
19,F,0,1,22,1,2,87,3,1498,0,5.236801E-08,12.20362,0,-1
19,F,0,1,22,2,2,86,2,1743,0,2.708188E-07,12.17908,0,-1
19,F,0,1,22,3,1,88,4,3820,1,0.133575,6.501424,1.111531,-1
19,F,0,1,22,4,1,86,2,2687,0,0.2437165,6.320771,2.091251,-1
19,F,0,1,22,5,1,85,1,2531,0,0.04401586,6.163317,0.3906707,-1
19,F,0,1,22,6,1,87,3,2764,0,0.0600423,6.227395,0.5278606,-1
19,F,0,1,22,7,2,88,4,1686,0,0.6097124,12.24414,2.774105,-1
19,F,0,1,22,8,2,85,1,1576,0,0.2573855,12.05833,1.200078,-1
19,F,0,1,23,1,2,91,3,2298,0,0.6933182,12.18948,3.201368,-1
19,F,0,1,23,2,2,89,1,1953,0,0.5531988,12.06969,2.603688,-1
19,F,0,1,23,3,2,90,2,2520,1,1.427976E-07,12.26659,0,-1
19,F,0,1,23,4,1,91,3,2587,0,0.2099376,6.225631,1.854563,-1
19,F,0,1,23,5,1,90,2,1676,0,0.07798427,6.332097,0.6676395,-1
19,F,0,1,23,6,2,92,4,1409,0,0.5308146,12.24515,2.419132,-1
19,F,0,1,23,7,1,89,1,1942,0,0.04187741,6.169483,0.3716771,-1
19,F,0,1,23,8,1,92,4,2165,0,0.4344217,6.484344,3.587086,-1
19,F,0,1,24,1,1,95,3,2731,0,0.08597216,6.225528,0.7569224,-1
19,F,0,1,24,2,1,96,4,5120,2,0.4449557,6.495718,3.71768,-1
19,F,0,1,24,3,1,94,2,2209,0,0.2649719,6.33355,2.27021,-1
19,F,0,1,24,4,2,96,4,1709,0,0.8572719,12.24066,3.965708,-1
19,F,0,1,24,5,2,95,3,1887,0,0.7077017,12.19727,3.261588,-1
19,F,0,1,24,6,1,93,1,4498,0,2.572014E-07,6.16642,0.01978234,-1
19,F,0,1,24,7,2,94,2,2209,0,0.6530906,12.26415,3.022455,-1
19,F,0,1,24,8,2,93,1,2442,0,0.1667555,12.0648,0.7740492,-1
19,F,0,1,25,1,1,99,3,2755,0,0.05726909,6.234007,0.5028,-1
19,F,0,1,25,2,2,97,1,1365,0,0.1335087,12.08451,0.6199199,-1
19,F,0,1,25,3,2,99,3,1687,0,0.2954859,12.2136,1.355808,-1
19,F,0,1,25,4,1,98,2,2142,0,0.4783807,6.334178,4.090554,-1
19,F,0,1,25,5,2,100,4,1631,0,0.9207615,12.25673,4.197453,-1
19,F,0,1,25,6,1,97,1,3276,0,1.458387E-08,6.193599,0,-1
19,F,0,1,25,7,2,98,2,4353,2,0.6458415,12.25124,2.947097,-1
19,F,0,1,25,8,1,100,4,2120,0,0.3817392,6.475599,3.198554,-1
19,F,0,1,26,1,2,103,3,1676,0,0.1620534,12.23761,0.7488656,-1
19,F,0,1,26,2,2,104,4,1731,0,2.433476E-07,12.28886,0.01978234,-1
19,F,0,1,26,3,1,103,3,2720,0,0.0715548,6.262223,0.6233823,-1
19,F,0,1,26,4,1,101,1,2864,0,0.05711722,6.201839,0.5070629,-1
19,F,0,1,26,5,1,102,2,2742,0,0.3240069,6.35913,2.815846,-1
19,F,0,1,26,6,2,101,1,1687,0,0.3572742,12.10229,1.66307,-1
19,F,0,1,26,7,2,102,2,1565,0,0.3685593,12.31534,1.69812,-1
19,F,0,1,26,8,1,104,4,2165,0,0.4386992,6.527041,3.63938,-1
19,F,0,1,27,1,2,107,3,3154,0,0.3830897,12.24794,1.742598,-1
19,F,0,1,27,2,2,105,1,2464,0,0.5235385,12.1134,2.441842,-1
19,F,0,1,27,3,1,106,2,1953,0,0.04722865,6.359257,0.4039677,-1
19,F,0,1,27,4,1,105,1,3376,0,0.1216594,6.202896,1.080284,-1
19,F,0,1,27,5,2,106,2,1409,0,5.083624E-08,12.30944,0,-1
19,F,0,1,27,6,2,108,4,1320,0,0.4949805,12.28771,2.232305,-1
19,F,0,1,27,7,1,107,3,2687,0,0.1801633,6.267638,1.572466,-1
19,F,0,1,27,8,1,108,4,2120,0,0.5440495,6.532855,4.522164,-1
19,F,0,1,28,1,2,110,2,1798,0,0.3857411,12.3072,1.752565,-1
19,F,0,1,28,2,1,112,4,2842,0,0.5321956,6.523377,4.385928,-1
19,F,0,1,28,3,2,111,3,1631,0,1.183849E-07,12.24631,0,-1
19,F,0,1,28,4,2,112,4,2698,0,0.3921233,12.29282,1.771778,-1
19,F,0,1,28,5,2,109,1,1676,0,0.335423,12.10789,1.563229,-1
19,F,0,1,28,6,1,111,3,3064,0,0.2123695,6.25513,1.852135,-1
19,F,0,1,28,7,1,109,1,3687,0,4.224622E-08,6.206312,0,-1
19,F,0,1,28,8,1,110,2,2753,0,0.0048939,6.368704,0.04423466,-1
19,F,0,1,29,1,2,115,3,1398,0,0.2516554,12.25361,1.145176,-1
19,F,0,1,29,2,1,113,1,2775,0,0.007779593,6.216903,0.0656106,-1
19,F,0,1,29,3,1,115,3,3464,0,0.02038744,6.271666,0.1780411,-1
19,F,0,1,29,4,1,114,2,2931,0,0.01863687,6.370882,0.1594904,-1
19,F,0,1,29,5,1,116,4,2098,0,0.540769,6.527719,4.498147,-1
19,F,0,1,29,6,2,113,1,1231,0,0.1872918,12.12458,0.8690815,-1
19,F,0,1,29,7,2,114,2,1153,0,0.3003426,12.31627,1.380693,-1
19,F,0,1,29,8,2,116,4,1131,0,0.6796525,12.29303,3.064522,-1
19,F,0,1,30,1,1,117,1,3342,0,0.0349174,6.215002,0.3058279,-1
19,F,0,1,30,2,1,118,2,2509,0,0.004506724,6.370745,0.03956468,-1
19,F,0,1,30,3,1,120,4,3320,1,0.1790374,6.532559,1.486748,-1
19,F,0,1,30,4,1,119,3,3387,0,0.2099227,6.26128,1.832376,-1
19,F,0,1,30,5,2,117,1,1676,0,0.06615739,12.12921,0.3058279,-1
19,F,0,1,30,6,2,119,3,1620,0,0.5279261,12.25783,2.412164,-1
19,F,0,1,30,7,2,120,4,1264,0,0.5158901,12.30066,2.324395,-1
19,F,0,1,30,8,2,118,2,1531,0,0.3545939,12.31813,1.604497,-1
19,F,0,1,31,1,2,121,1,2176,0,0.1125211,12.12253,0.5203939,-1
19,F,0,1,31,2,1,123,3,2220,0,0.009620761,6.265482,0.08156469,-1
19,F,0,1,31,3,2,124,4,1376,0,0.3347293,12.30294,1.519169,-1
19,F,0,1,31,4,1,122,2,2965,0,2.311501E-07,6.370245,0,-1
19,F,0,1,31,5,1,124,4,2398,1,0.2928722,6.531084,2.433009,-1
19,F,0,1,31,6,2,122,2,5431,0,0.08405405,12.32048,0.3820612,-1
19,F,0,1,31,7,1,121,1,3098,0,7.94338E-08,6.208479,0,-1
19,F,0,1,31,8,2,123,3,2009,0,0.3842269,12.24889,1.775309,-1
19,F,0,1,32,1,2,125,1,1753,0,1.307293E-07,12.12172,0,-1
19,F,0,1,32,2,1,128,4,4965,1,0.3252303,6.538111,2.675837,-1
19,F,0,1,32,3,2,127,3,2031,0,0.2565914,12.25786,1.167011,-1
19,F,0,1,32,4,1,125,1,2687,0,2.430955E-07,6.207307,0,-1
19,F,0,1,32,5,2,126,2,2376,0,5.514622E-08,12.32486,0,-1
19,F,0,1,32,6,1,127,3,3365,0,0.02539812,6.266875,0.2220564,-1
19,F,0,1,32,7,1,126,2,2942,0,1.491149E-07,6.375456,0,-1
19,F,0,1,32,8,2,128,4,1342,0,0.7085797,12.29661,3.216985,-1
19,F,0,1,33,1,2,130,2,1176,1,0.2085176,12.32195,0.9446045,-1
19,F,0,1,33,2,2,131,3,1398,0,0.2678678,12.25701,1.218043,-1
19,F,0,1,33,3,2,132,4,2076,0,0.3693957,12.30606,1.675614,-1
19,F,0,1,33,4,1,129,1,3054,0,1.370402E-07,6.222358,0,-1
19,F,0,1,33,5,1,130,2,2542,0,0.08570376,6.373932,0.7316842,-1
19,F,0,1,33,6,2,129,1,1376,0,8.844713E-08,12.11711,0,-1
19,F,0,1,33,7,1,131,3,2553,0,1.716684E-07,6.263831,0,-1
19,F,0,1,33,8,1,132,4,3631,1,0.04166443,6.534936,0.3466151,-1
19,F,0,1,34,1,2,134,2,1453,0,0.2738378,12.32054,1.239226,-1
19,F,0,1,34,2,1,136,4,1831,0,0.3288074,6.530552,2.732085,-1
19,F,0,1,34,3,1,135,3,3564,0,0.1840249,6.263367,1.614952,-1
19,F,0,1,34,4,1,134,2,2831,0,1.401309E-07,6.374305,0,-1
19,F,0,1,34,5,2,136,4,2031,0,0.6894233,12.29754,3.12969,-1
19,F,0,1,34,6,2,133,1,1620,0,0.1381318,12.11653,0.640108,-1
19,F,0,1,34,7,2,135,3,2787,0,0.0006142289,12.25386,0,-1
19,F,0,1,34,8,1,133,1,4198,0,2.551479E-07,6.219119,0,-1
19,F,0,1,35,1,2,139,3,1887,0,0.144469,12.26092,0.6587883,-1
19,F,0,1,35,2,1,137,1,3742,0,0.04413929,6.219011,0.3911712,-1
19,F,0,1,35,3,1,140,4,2364,0,0.3506496,6.528128,2.88378,-1
19,F,0,1,35,4,1,138,2,2720,0,9.853837E-08,6.376375,0,-1
19,F,0,1,35,5,1,139,3,3820,0,5.967163E-08,6.262538,0,-1
19,F,0,1,35,6,2,137,1,1376,0,0.02055606,12.12739,0.09691329,-1
19,F,0,1,35,7,2,140,4,1998,0,2.3384E-07,12.30782,0,-1
19,F,0,1,35,8,2,138,2,1698,0,4.183637E-08,12.32722,0,-1
19,F,0,1,37,1,4,145,1,2587,0,0.5484108,12.13834,2.554739,-1
19,F,0,1,37,2,3,148,4,3509,1,0.2207436,6.531155,1.831842,-1
19,F,0,1,37,3,3,145,1,3465,0,2.061732E-07,6.244204,0,-1
19,F,0,1,37,4,3,147,3,4209,0,0.08191369,6.289838,0.7165515,-1
19,F,0,1,37,5,4,146,2,2020,0,0.6258841,12.29747,2.819875,-1
19,F,0,1,37,6,4,148,4,1920,0,0.3522107,12.30338,1.587083,-1
19,F,0,1,37,7,3,146,2,1865,0,1.239853E-07,6.383034,0,-1
19,F,0,1,37,8,4,147,3,2120,0,0.4237398,12.22819,1.9202,-1
19,F,0,1,38,1,4,150,2,1209,0,7.351224E-08,12.30881,0,-1
19,F,0,1,38,2,3,152,4,1553,0,0.09888744,6.532145,0.8218675,-1
19,F,0,1,38,3,3,151,3,1887,0,0.4893857,6.268203,4.26751,-1
19,F,0,1,38,4,3,150,2,1309,0,0.1301016,6.377542,1.109064,-1
19,F,0,1,38,5,4,149,1,2387,0,0.2802865,12.13945,1.300858,-1
19,F,0,1,38,6,4,151,3,1498,0,0.2659047,12.23291,1.219489,-1
19,F,0,1,38,7,3,149,1,2676,0,0.125591,6.2221,1.091457,-1
19,F,0,1,38,8,4,152,4,1987,1,0.2289875,12.31646,1.034387,-1
19,F,0,1,39,1,3,153,1,2309,0,1.095916E-07,6.257304,0,-1
19,F,0,1,39,2,3,155,3,2064,0,0.4229102,6.276626,3.672478,-1
19,F,0,1,39,3,4,156,4,2287,0,0.2340686,12.31169,1.055918,-1
19,F,0,1,39,4,4,155,3,1831,0,0.474014,12.23645,2.146852,-1
19,F,0,1,39,5,3,154,2,3342,0,0.0414265,6.39198,0.354982,-1
19,F,0,1,39,6,3,156,4,2553,0,0.4333882,6.542507,3.595755,-1
19,F,0,1,39,7,4,153,1,1398,0,0.2725681,12.14528,1.25523,-1
19,F,0,1,39,8,4,154,2,1820,0,0.242792,12.31012,1.09807,-1
19,F,0,1,40,1,4,157,1,1620,0,0.4840493,12.15374,2.229322,-1
19,F,0,1,40,2,3,159,3,2487,0,0.1495144,6.273627,1.305063,-1
19,F,0,1,40,3,3,158,2,1376,0,0.1819515,6.400994,1.5557,-1
19,F,0,1,40,4,3,160,4,2787,1,0.2177827,6.550678,1.820482,-1
19,F,0,1,40,5,3,157,1,2309,0,0.002284747,6.256219,0.01978234,-1
19,F,0,1,40,6,4,160,4,1565,0,4.977748E-08,12.31044,0,-1
19,F,0,1,40,7,4,159,3,1931,0,0.01364037,12.22487,0.06255726,-1
19,F,0,1,40,8,4,158,2,998,0,0.926217,12.30235,4.274985,-1
19,F,0,1,41,1,1,163,3,3109,0,5.13201E-08,6.296489,0,-1
19,F,0,1,41,2,1,164,4,2142,1,0.256122,6.552812,2.120526,-1
19,F,0,1,41,3,2,162,2,2375,1,0.4523281,12.3327,2.050614,-1
19,F,0,1,41,4,2,161,1,1397,0,0.2768229,12.15401,1.274107,-1
19,F,0,1,41,5,2,163,3,1031,0,0.1478412,12.28615,0.6760855,-1
19,F,0,1,41,6,1,162,2,2775,0,4.337286E-08,6.391855,0,-1
19,F,0,1,41,7,1,161,1,8820,0,5.813709E-08,6.246472,0,-1
19,F,0,1,41,8,2,164,4,4109,1,0.8110684,12.2795,3.668798,-1
19,F,0,1,42,1,2,166,2,3087,0,1.434769E-07,12.27814,0,-1
19,F,0,1,42,2,2,165,1,2031,0,0.354332,12.09621,1.650075,-1
19,F,0,1,42,3,2,167,3,1498,0,0.7161291,12.23615,3.261468,-1
19,F,0,1,42,4,1,165,1,2576,0,0.08847156,6.195445,0.7858408,-1
19,F,0,1,42,5,1,167,3,3931,0,0.3384218,6.274833,2.950483,-1
19,F,0,1,42,6,2,168,4,1153,0,0.4152531,12.29002,1.872208,-1
19,F,0,1,42,7,1,166,2,2542,0,6.255168E-08,6.360969,0,-1
19,F,0,1,42,8,1,168,4,1765,0,0.3938239,6.524513,3.276022,-1
19,F,0,1,43,1,2,171,3,1209,0,0.1734012,12.24005,0.7915472,-1
19,F,0,1,43,2,2,172,4,1142,0,0.6693737,12.28631,3.019799,-1
19,F,0,1,43,3,1,171,3,2998,0,1.252623E-07,6.261745,0,-1
19,F,0,1,43,4,1,172,4,4431,1,0.3601425,6.523504,2.996174,-1
19,F,0,1,43,5,1,170,2,3787,2,0.12427,6.351324,1.073196,-1
19,F,0,1,43,6,2,169,1,1431,0,0.647558,12.10802,3.025563,-1
19,F,0,1,43,7,2,170,2,3120,0,0.567565,12.30525,2.617634,-1
19,F,0,1,43,8,1,169,1,2031,0,0.01111525,6.206232,0.09891172,-1
19,F,0,1,44,1,2,175,3,1820,0,0.4762223,12.24279,2.167266,-1
19,F,0,1,44,2,1,174,2,2231,1,2.092183E-07,6.364146,0.01978234,-1
19,F,0,1,44,3,2,176,4,1398,0,0.5501128,12.29049,2.48065,-1
19,F,0,1,44,4,2,174,2,1631,0,0.1926094,12.31116,0.8758101,-1
19,F,0,1,44,5,1,176,4,2965,0,0.1998425,6.543151,1.657176,-1
19,F,0,1,44,6,1,173,1,2076,0,2.829609E-07,6.218222,0,-1
19,F,0,1,44,7,1,175,3,2498,0,0.2091214,6.267489,1.82767,-1
19,F,0,1,44,8,2,173,1,1798,0,0.3142741,12.1299,1.460185,-1
19,F,0,1,45,1,1,179,3,2620,0,0.03142861,6.268666,0.2741124,-1
19,F,0,1,45,2,1,178,2,3520,0,0.2022501,6.369932,1.723969,-1
19,F,0,1,45,3,2,177,1,1609,0,0.03729524,12.12803,0.1724585,-1
19,F,0,1,45,4,2,180,4,2175,0,0.5128297,12.30395,2.311476,-1
19,F,0,1,45,5,1,177,1,2720,0,1.636406E-07,6.228181,0,-1
19,F,0,1,45,6,2,179,3,2142,1,0.3616284,12.25037,1.661186,-1
19,F,0,1,45,7,2,178,2,1531,0,0.4213156,12.32282,1.905262,-1
19,F,0,1,45,8,1,180,4,2798,0,0.4162013,6.526007,3.461023,-1
19,F,0,1,46,1,2,183,3,1465,0,0.8680581,12.25017,4.012443,-1
19,F,0,1,46,2,2,181,1,1686,0,0.3297371,12.12681,1.531102,-1
19,F,0,1,46,3,1,184,4,2487,0,0.2494996,6.522663,2.074997,-1
19,F,0,1,46,4,1,181,1,4653,0,0.08531976,6.224198,0.7430948,-1
19,F,0,1,46,5,1,182,2,2353,0,0.1552942,6.375026,1.339253,-1
19,F,0,1,46,6,1,183,3,3276,0,0.3554388,6.26353,3.105704,-1
19,F,0,1,46,7,2,184,4,1887,0,0.7469969,12.28965,3.410534,-1
19,F,0,1,46,8,2,182,2,998,0,0.6469532,12.31504,2.927436,-1
19,F,0,1,47,1,2,187,3,1042,0,0.1356834,12.25286,0.6221254,-1
19,F,0,1,47,2,2,186,2,864,0,0.9720075,12.3105,4.415126,-1
19,F,0,1,47,3,1,185,1,3464,0,0.2690097,6.226468,2.365296,-1
19,F,0,1,47,4,2,188,4,1031,0,0.231294,12.2834,1.051647,-1
19,F,0,1,47,5,2,185,1,1231,0,0.1182848,12.1171,0.5471546,-1
19,F,0,1,47,6,1,186,2,2109,0,2.067369E-07,6.376975,0,-1
19,F,0,1,47,7,1,188,4,1942,1,0.2530549,6.531219,2.102265,-1
19,F,0,1,47,8,1,187,3,2476,0,0.2612782,6.260056,2.277698,-1
19,F,0,1,48,1,1,192,4,2942,1,0.2540215,6.537945,2.108308,-1
19,F,0,1,48,2,1,189,1,4820,0,3.32456E-07,6.213783,0,-1
19,F,0,1,48,3,1,190,2,2142,0,0.1203677,6.368649,1.027363,-1
19,F,0,1,48,4,1,191,3,2886,0,1.180518E-07,6.265852,0,-1
19,F,0,1,48,5,2,190,2,2887,0,0.5239859,12.30555,2.405745,-1
19,F,0,1,48,6,2,191,3,1098,0,0.6417574,12.24229,2.931179,-1
19,F,0,1,48,7,2,192,4,1809,0,0.6953301,12.29237,3.145165,-1
19,F,0,1,48,8,2,189,1,1665,0,0.1925607,12.12718,0.8928481,-1
19,F,0,1,49,1,1,195,3,2842,0,0.1208732,6.238531,1.063121,-1
19,F,0,1,49,2,2,194,2,1387,0,0.6515039,12.27431,2.956713,-1
19,F,0,1,49,3,2,195,3,1120,0,0.9779086,12.22385,4.460761,-1
19,F,0,1,49,4,1,196,4,2209,1,0.5153332,6.516401,4.293864,-1
19,F,0,1,49,5,2,193,1,1742,0,0.4491281,12.07943,2.099377,-1
19,F,0,1,49,6,1,194,2,1453,0,0.3591537,6.33695,3.075617,-1
19,F,0,1,49,7,1,193,1,3809,2,0.2842447,6.212159,2.520337,-1
19,F,0,1,49,8,2,196,4,1198,0,1.025826,12.27869,4.670764,-1
19,F,0,1,50,1,1,197,1,2865,0,0.4694872,6.218046,4.155815,-1
19,F,0,1,50,2,2,198,2,1131,0,0.599854,12.30106,2.720597,-1
19,F,0,1,50,3,2,200,4,1142,1,0.8392124,12.28795,3.786566,-1
19,F,0,1,50,4,1,198,2,1965,0,0.2970214,6.362771,2.5325,-1
19,F,0,1,50,5,1,199,3,2909,0,0.03045384,6.273089,0.2661444,-1
19,F,0,1,50,6,1,200,4,1642,0,0.4277875,6.536831,3.552422,-1
19,F,0,1,50,7,2,197,1,1931,0,0.3709323,12.11681,1.730653,-1
19,F,0,1,50,8,2,199,3,1076,0,6.385183E-08,12.25041,0,-1
19,F,0,1,51,1,2,204,4,1242,0,0.1721481,12.29183,0.7805943,-1
19,F,0,1,51,2,2,201,1,1787,0,0.2396187,12.12845,1.112236,-1
19,F,0,1,51,3,1,203,3,3653,0,1.190056E-07,6.265139,0,-1
19,F,0,1,51,4,1,201,1,3131,0,0.1025753,6.204443,0.912574,-1
19,F,0,1,51,5,1,202,2,2787,0,0.2645027,6.354576,2.258281,-1
19,F,0,1,51,6,2,203,3,1098,0,0.4185601,12.2447,1.90444,-1
19,F,0,1,51,7,1,204,4,2920,1,0.4859444,6.531326,4.039294,-1
19,F,0,1,51,8,2,202,2,1076,0,0.1133699,12.31172,0.5154827,-1
19,F,0,1,52,1,1,208,4,1787,1,0.347996,6.534044,2.890289,-1
19,F,0,1,52,2,2,205,1,1153,0,0.2371851,12.11365,1.10074,-1
19,F,0,1,52,3,2,208,4,620,0,0.3169284,12.29414,1.428618,-1
19,F,0,1,52,4,1,205,1,6664,1,0.1906777,6.22277,1.682606,-1
19,F,0,1,52,5,2,207,3,4064,1,0.1540029,12.23484,0.7072059,-1
19,F,0,1,52,6,2,206,2,865,0,0.2292684,12.29152,1.053506,-1
19,F,0,1,52,7,1,207,3,1931,0,0.1650051,6.272072,1.441301,-1
19,F,0,1,52,8,1,206,2,1487,0,0.05931703,6.351267,0.5089886,-1
19,F,0,1,53,1,2,212,4,2798,1,0.415877,12.35277,1.894652,-1
19,F,0,1,53,2,2,210,2,1553,1,1.026539E-07,12.35191,0,-1
19,F,0,1,53,3,2,209,1,1765,0,0.2555935,12.16492,1.182337,-1
19,F,0,1,53,4,1,211,3,4142,0,0.2648124,6.310268,2.289611,-1
19,F,0,1,53,5,1,209,1,2787,0,0.3076277,6.259831,2.710217,-1
19,F,0,1,53,6,1,212,4,2542,2,0.3888787,6.584852,3.168112,-1
19,F,0,1,53,7,2,211,3,1820,1,0.3773262,12.30417,1.723174,-1
19,F,0,1,53,8,1,210,2,1942,0,0.3585266,6.419889,3.029248,-1
19,F,0,1,54,1,1,216,4,1353,0,0.4215467,6.577767,3.42777,-1
19,F,0,1,54,2,2,213,1,1142,0,0.5693145,12.18364,2.654464,-1
19,F,0,1,54,3,2,215,3,1065,0,0.2287968,12.31134,1.037975,-1
19,F,0,1,54,4,2,214,2,998,0,0.07603726,12.3835,0.3443497,-1
19,F,0,1,54,5,1,213,1,3787,1,0.126597,6.274644,1.107122,-1
19,F,0,1,54,6,1,215,3,3031,0,0.2360017,6.331314,2.042389,-1
19,F,0,1,54,7,2,216,4,2809,1,0.08216371,12.35725,0.3711503,-1
19,F,0,1,54,8,1,214,2,5431,0,0.04706483,6.416183,0.4000739,-1
19,F,0,1,55,1,2,219,3,1287,0,0.5605244,12.31201,2.562237,-1
19,F,0,1,55,2,2,217,1,1142,0,0.09943411,12.17486,0.4584226,-1
19,F,0,1,55,3,1,218,2,3376,0,0.2357219,6.427228,1.990561,-1
19,F,0,1,55,4,1,220,4,2487,0,0.5075954,6.589728,4.193486,-1
19,F,0,1,55,5,2,218,2,1998,1,0.09299621,12.34508,0.4215088,-1
19,F,0,1,55,6,1,219,3,1776,0,1.610763E-07,6.293761,0,-1
19,F,0,1,55,7,1,217,1,2309,0,0.1724636,6.209765,1.533911,-1
19,F,0,1,55,8,2,220,4,965,0,0.4480872,12.32299,2.029508,-1
19,F,0,1,56,1,2,223,3,1542,0,0.6096296,12.27408,2.773682,-1
19,F,0,1,56,2,2,224,4,1564,0,0.3855842,12.33668,1.743945,-1
19,F,0,1,56,3,1,222,2,1776,0,0.2458858,6.390618,2.087785,-1
19,F,0,1,56,4,1,223,3,3531,0,0.01172875,6.300021,0.1027921,-1
19,F,0,1,56,5,1,221,1,2254,0,8.32949E-08,6.228222,0,-1
19,F,0,1,56,6,1,224,4,1676,0,0.45162,6.571732,3.685571,-1
19,F,0,1,56,7,2,221,1,1976,0,0.2127544,12.13721,0.9849661,-1
19,F,0,1,56,8,2,222,2,1542,0,0.7995832,12.33852,3.611186,-1
19,F,0,1,57,1,4,225,1,5598,3,0.724231,12.21328,3.359695,-1
19,F,0,1,57,2,3,227,3,3320,0,0.1497313,6.321683,1.305213,-1
19,F,0,1,57,3,3,225,1,2220,0,0.1948038,6.197447,1.725897,-1
19,F,0,1,57,4,3,226,2,2220,0,0.01395157,6.3536,0.1203313,-1
19,F,0,1,57,5,4,227,3,1298,0,0.5360454,12.23916,2.476069,-1
19,F,0,1,57,6,3,228,4,3565,1,0.1811243,6.541354,1.495409,-1
19,F,0,1,57,7,4,226,2,1353,0,0.1853516,12.27466,0.8432553,-1
19,F,0,1,57,8,4,228,4,1498,0,0.09732666,12.32805,0.4441136,-1
19,F,0,1,58,1,4,229,1,7342,0,1.487435E-07,12.16093,0,-1
19,F,0,1,58,2,3,230,2,2031,0,0.3159102,6.364107,2.745878,-1
19,F,0,1,58,3,4,231,3,1120,0,0.2904619,12.2238,1.330898,-1
19,F,0,1,58,4,3,232,4,2820,0,0.2806202,6.493737,2.35002,-1
19,F,0,1,58,5,3,229,1,2220,0,0.05928239,6.187706,0.5237671,-1
19,F,0,1,58,6,3,231,3,6098,0,0.2096989,6.284086,1.817793,-1
19,F,0,1,58,7,4,230,2,1309,0,0.9143403,12.25204,4.163724,-1
19,F,0,1,58,8,4,232,4,809,0,0.7928909,12.29148,3.602501,-1
19,F,0,1,59,1,4,233,1,1631,0,3.852645E-08,12.104,0,-1
19,F,0,1,59,2,3,235,3,1998,0,0.351808,6.294621,3.05691,-1
19,F,0,1,59,3,4,236,4,2520,0,0.5919216,12.29183,2.688462,-1
19,F,0,1,59,4,3,234,2,2420,0,0.3515624,6.323722,3.013504,-1
19,F,0,1,59,5,3,236,4,2298,0,0.04203767,6.534203,0.3516591,-1
19,F,0,1,59,6,4,234,2,3976,2,0.9451252,12.27513,4.372869,-1
19,F,0,1,59,7,3,233,1,5042,0,0.4524512,6.195062,3.998362,-1
19,F,0,1,59,8,4,235,3,3753,2,1.036569,12.23573,4.747801,-1
19,F,0,1,60,1,3,237,1,1542,0,0.1628042,6.200292,1.441165,-1
19,F,0,1,60,2,4,238,2,2664,2,0.4597946,12.26667,2.089753,-1
19,F,0,1,60,3,4,239,3,1309,0,0.4921201,12.26073,2.240007,-1
19,F,0,1,60,4,4,237,1,976,0,0.2134999,12.12782,0.9911057,-1
19,F,0,1,60,5,3,240,4,2220,1,0.1305113,6.519504,1.085524,-1
19,F,0,1,60,6,3,239,3,3076,0,0.2432762,6.292126,2.109885,-1
19,F,0,1,60,7,3,238,2,2709,0,0.004565722,6.337993,0.03956468,-1
19,F,0,1,60,8,4,240,4,1176,0,0.7400107,12.30048,3.3356,-1
19,F,0,1,61,1,1,243,3,4287,0,0.1598486,6.292542,1.385504,-1
19,F,0,1,61,2,1,244,4,6076,5,0.3101998,6.55288,2.568493,-1
19,F,0,1,61,3,2,241,1,1342,0,0.7159153,12.15637,3.340058,-1
19,F,0,1,61,4,2,243,3,3441,2,0.5112906,12.29619,2.333975,-1
19,F,0,1,61,5,2,242,2,2564,2,0.4413031,12.33516,1.992625,-1
19,F,0,1,61,6,1,241,1,1664,0,3.160191E-07,6.103695,0,-1
19,F,0,1,61,7,2,244,4,1242,0,0.592536,12.22356,2.684892,-1
19,F,0,1,61,8,1,242,2,1841,0,0.1673597,6.347955,1.429713,-1
19,F,0,1,62,1,2,245,1,1409,0,0.6741897,12.12871,3.151818,-1
19,F,0,1,62,2,2,247,3,1586,0,0.727713,12.29184,3.300196,-1
19,F,0,1,62,3,1,245,1,2819,0,0.09817012,6.198602,0.8661495,-1
19,F,0,1,62,4,2,248,4,2097,0,0.8588746,12.32762,3.863459,-1
19,F,0,1,62,5,1,246,2,2019,1,0.1724076,6.344933,1.473659,-1
19,F,0,1,62,6,1,247,3,3519,0,1.374645E-07,6.316472,0,-1
19,F,0,1,62,7,2,246,2,984,0,0.2391071,12.31328,1.086785,-1
19,F,0,1,62,8,1,248,4,1498,0,0.4813518,6.553846,3.9888,-1
19,F,0,1,1,1,8,2,2,4963,0,11.11345,12.33857,64.25124,-1
19,F,0,1,1,2,8,1,1,1875,0,4.072071,12.15901,19.46497,-1
19,F,0,1,1,3,6,2,2,5975,0,2.261133,12.3144,10.47721,-1
19,F,0,1,1,4,6,1,1,1864,0,6.824869,12.14581,34.18809,-1
19,F,0,1,1,5,8,4,4,1342,0,6.857619,12.35152,33.7248,-1
19,F,0,1,1,6,5,2,2,1320,0,1.185645,6.34377,10.18932,-1
19,F,0,1,1,7,7,4,4,2742,0,4.644298,6.559315,45.07617,-1
19,F,0,1,1,8,5,3,3,4731,0,6.385512,6.385512,94.63355,-1
19,F,0,1,1,9,5,4,4,2098,0,2.927838,6.545948,25.06453,-1
19,F,0,1,1,10,5,1,1,2431,0,6.178649,6.238832,82.03524,-1
19,F,0,1,1,11,7,3,3,1876,0,5.002798,6.34507,51.73844,-1
19,F,0,1,1,12,7,2,2,897,0,5.00172,6.357244,51.88514,-1
19,F,0,1,1,13,6,3,3,854,0,7.015554,12.30032,34.7659,-1
19,F,0,1,1,14,6,4,4,1042,0,9.942873,12.35249,53.60339,-1
19,F,0,1,1,15,7,1,1,931,0,6.063351,6.231565,76.65706,-1
19,F,0,1,1,16,8,3,3,998,0,5.370814,12.29196,25.90617,-1
19,F,0,1,2,1,7,3,3,898,0,5.069674,6.346962,53.01148,-1
19,F,0,1,2,2,8,1,1,1053,0,4.173718,12.1492,20.0926,-1
19,F,0,1,2,3,8,3,3,987,0,9.436229,12.31362,50.00998,-1
19,F,0,1,2,4,5,4,4,3698,0,2.686308,6.542345,22.88432,-1
19,F,0,1,2,5,7,1,1,1365,0,3.365911,6.210065,30.79224,-1
19,F,0,1,2,6,5,2,2,931,0,1.261255,6.345942,10.84355,-1
19,F,0,1,2,7,6,4,4,1253,0,2.713283,12.43646,12.18355,-1
19,F,0,1,2,8,6,3,3,976,0,6.841064,12.42127,33.40849,-1
19,F,0,1,2,9,6,1,1,842,0,4.992925,12.25648,24.03974,-1
19,F,0,1,2,10,8,4,4,842,0,8.089171,12.46411,40.46603,-1
19,F,0,1,2,11,6,2,2,1409,0,10.98697,12.44718,61.96825,-1
19,F,0,1,2,12,5,1,1,953,0,1.226802,6.30852,10.68436,-1
19,F,0,1,2,13,7,2,2,920,0,4.970889,6.46627,50.24099,-1
19,F,0,1,2,14,7,4,4,576,0,3.833545,6.671829,33.37133,-1
19,F,0,1,2,15,5,3,3,742,0,4.358813,6.415435,40.53192,-1
19,F,0,1,2,16,8,2,2,998,0,1.163183,12.43492,5.217255,-1
