Age, Gender, Awareness Type, Session, Block, Trial, Set, Pattern, Quadrant, Response Time, Num Mistakes, Distance From Target, Camera Distance From Target, Angle Error (Degrees), FC Response
18,F,0,1,1,1,2,2,2,1664,0,0.9615313,12.42171,4.345597,-1
18,F,0,1,1,2,2,1,1,1653,0,0.1885173,12.2909,0.8623004,-1
18,F,0,1,1,3,1,2,2,3153,0,0.5002107,6.591937,4.135738,-1
18,F,0,1,1,4,2,4,4,2753,2,0.5758646,12.419,2.582553,-1
18,F,0,1,1,5,1,1,1,3720,0,0.2338057,6.216715,2.06156,-1
18,F,0,1,1,6,1,3,3,2498,0,0.3777834,6.406819,3.247391,-1
18,F,0,1,1,7,1,4,4,2853,0,0.4229915,6.48358,3.59951,-1
18,F,0,1,1,8,2,3,3,3020,0,0.3264902,12.27662,1.493445,-1
18,F,0,1,2,1,2,5,1,5220,0,0.6027995,12.2956,2.76612,-1
18,F,0,1,2,2,1,6,2,9999,7,-1,-1,-1,-1
18,F,0,1,2,3,2,7,3,3142,1,0.7073061,12.28388,3.204241,-1
18,F,0,1,2,4,1,5,1,3942,0,0.0324088,6.212629,0.2873554,-1
18,F,0,1,2,5,1,8,4,9320,5,0.4038667,6.571716,3.393499,-1
18,F,0,1,2,6,2,6,2,5453,2,0.9198088,12.39542,4.150062,-1
18,F,0,1,2,7,2,8,4,7075,2,0.9729418,12.40173,4.372332,-1
18,F,0,1,2,8,1,7,3,3275,0,0.4462747,6.418063,3.830065,-1
18,F,0,1,3,1,1,10,2,7509,3,0.405293,6.568165,3.372956,-1
18,F,0,1,3,2,2,11,3,3087,0,0.7327895,12.27587,3.39223,-1
18,F,0,1,3,3,2,9,1,1787,0,0.9680054,12.28155,4.39396,-1
18,F,0,1,3,4,2,12,4,5975,2,1.03077,12.40521,4.70278,-1
18,F,0,1,3,5,2,10,2,5409,0,1.05201,12.38951,4.747223,-1
18,F,0,1,3,6,1,9,1,4598,1,0.3554629,6.194807,3.186719,-1
18,F,0,1,3,7,1,11,3,4098,1,0.4173835,6.421812,3.58064,-1
18,F,0,1,3,8,1,12,4,2053,0,0.5037256,6.508663,4.272556,-1
18,F,0,1,4,1,2,15,3,2709,0,0.2920136,12.25241,1.33031,-1
18,F,0,1,4,2,1,16,4,5964,3,0.2450367,6.551977,2.040664,-1
18,F,0,1,4,3,2,13,1,5898,0,0.7440079,12.26841,3.379566,-1
18,F,0,1,4,4,1,15,3,3909,1,0.4280569,6.424932,3.670985,-1
18,F,0,1,4,5,1,13,1,4320,0,0.2068874,6.202864,1.828741,-1
18,F,0,1,4,6,2,14,2,3164,0,1.025712,12.41366,4.61957,-1
18,F,0,1,4,7,2,16,4,2020,1,0.9315243,12.41727,4.170727,-1
18,F,0,1,4,8,1,14,2,4386,1,0.3474604,6.575138,2.863549,-1
18,F,0,1,5,1,2,20,4,7498,7,0.6297362,12.4272,2.861839,-1
18,F,0,1,5,2,1,19,3,5098,1,0.1649453,6.41824,1.421202,-1
18,F,0,1,5,3,2,18,2,3309,0,1.022592,12.41172,4.606109,-1
18,F,0,1,5,4,2,19,3,2287,0,0.8526198,12.28794,3.871003,-1
18,F,0,1,5,5,1,17,1,3842,0,6.161572E-08,6.212988,0,-1
18,F,0,1,5,6,1,18,2,9999,8,-1,-1,-1,-1
18,F,0,1,5,7,2,17,1,1742,0,0.2896478,12.29387,1.333542,-1
18,F,0,1,5,8,1,20,4,6420,2,1.435337E-07,6.574599,0,-1
18,F,0,1,6,1,2,22,2,2820,0,0.506135,12.42026,2.303248,-1
18,F,0,1,6,2,1,24,4,6753,1,0.05321138,6.567193,0.4458725,-1
18,F,0,1,6,3,2,23,3,2542,0,0.4482976,12.28912,2.030472,-1
18,F,0,1,6,4,2,21,1,2509,0,0.3671931,12.28666,1.695814,-1
18,F,0,1,6,5,2,24,4,4342,1,0.8618369,12.43008,3.86356,-1
18,F,0,1,6,6,1,22,2,3931,1,0.07894801,6.586308,0.6540186,-1
18,F,0,1,6,7,1,21,1,4209,0,0.207065,6.201426,1.83419,-1
18,F,0,1,6,8,1,23,3,4687,0,0.3404959,6.448819,2.913158,-1
18,F,0,1,7,1,2,25,1,2098,0,0.9885284,12.28669,4.572261,-1
18,F,0,1,7,2,2,26,2,6598,0,0.4926213,12.40122,2.222023,-1
18,F,0,1,7,3,2,27,3,3509,1,0.07996958,12.29219,0.3658403,-1
18,F,0,1,7,4,1,25,1,4687,0,0.4424232,6.219199,3.899279,-1
18,F,0,1,7,5,1,28,4,3542,0,0.2697877,6.529753,2.263735,-1
18,F,0,1,7,6,1,26,2,6009,0,0.4081414,6.627847,3.368541,-1
18,F,0,1,7,7,1,27,3,4820,1,0.4709221,6.431038,4.03551,-1
18,F,0,1,7,8,2,28,4,3731,2,0.7325439,12.42654,3.283603,-1
18,F,0,1,8,1,2,29,1,1575,0,1.085178E-07,12.2928,0,-1
18,F,0,1,8,2,1,31,3,2287,0,0.3576013,6.423404,3.063244,-1
18,F,0,1,8,3,1,30,2,3431,1,0.1459811,6.590825,1.205285,-1
18,F,0,1,8,4,2,31,3,1320,0,0.8947482,12.28868,4.047769,-1
18,F,0,1,8,5,2,32,4,5676,0,0.001593219,12.44009,0,-1
18,F,0,1,8,6,2,30,2,6020,3,0.2016575,12.40965,0.9149297,-1
18,F,0,1,8,7,1,32,4,6031,3,0.2879559,6.530974,2.417351,-1
18,F,0,1,8,8,1,29,1,7298,0,0.2500612,6.224619,2.20327,-1
18,F,0,1,9,1,1,35,3,3042,0,0.3210183,6.43788,2.743952,-1
18,F,0,1,9,2,2,33,1,1409,0,0.9429108,12.30664,4.353657,-1
18,F,0,1,9,3,1,34,2,1853,0,0.2959862,6.603873,2.434295,-1
18,F,0,1,9,4,2,36,4,2231,0,0.9490795,12.46009,4.238776,-1
18,F,0,1,9,5,1,33,1,3931,0,7.61692E-08,6.227289,0,-1
18,F,0,1,9,6,2,35,3,5053,0,0.4139806,12.30629,1.873775,-1
18,F,0,1,9,7,1,36,4,4742,3,0.2831782,6.562536,2.379404,-1
18,F,0,1,9,8,2,34,2,4975,4,0.6816808,12.41578,3.067586,-1
18,F,0,1,10,1,2,40,4,8142,0,0.02931307,12.50066,0.1312212,-1
18,F,0,1,10,2,1,37,1,3042,0,0.2989768,6.248713,2.624728,-1
18,F,0,1,10,3,1,38,2,4253,1,0.5213043,6.606575,4.428592,-1
18,F,0,1,10,4,1,39,3,2842,1,0.1261456,6.457714,1.079378,-1
18,F,0,1,10,5,1,40,4,7831,6,0.2878164,6.624401,2.390155,-1
18,F,0,1,10,6,2,39,3,4342,1,0.9628626,12.28759,4.354512,-1
18,F,0,1,10,7,2,37,1,4642,0,0.010382,12.30324,0.04845664,-1
18,F,0,1,10,8,2,38,2,2176,0,0.9807311,12.4336,4.471287,-1
18,F,0,1,11,1,2,41,1,4209,3,0.3068549,12.29154,1.407365,-1
18,F,0,1,11,2,1,44,4,4798,3,0.4873714,6.557338,4.088734,-1
18,F,0,1,11,3,1,43,3,4876,2,0.1089938,6.442632,0.9350269,-1
18,F,0,1,11,4,1,41,1,4542,0,0.3032816,6.19524,2.743667,-1
18,F,0,1,11,5,2,43,3,2665,0,1.053003,12.29272,4.773806,-1
18,F,0,1,11,6,2,42,2,2964,0,0.9094425,12.42571,4.090984,-1
18,F,0,1,11,7,2,44,4,9342,9,0.9925539,12.42651,4.452323,-1
18,F,0,1,11,8,1,42,2,3898,1,0.448483,6.609821,3.674451,-1
18,F,0,1,12,1,2,48,4,9999,1,-1,-1,-1,-1
18,F,0,1,12,2,1,47,3,7842,4,0.003756615,6.494876,0.03426402,-1
18,F,0,1,12,3,2,45,1,5875,1,0.5808688,12.31928,2.669612,-1
18,F,0,1,12,4,1,46,2,7686,5,0.1435781,6.650856,1.196322,-1
18,F,0,1,12,5,1,45,1,4320,0,0.07290583,6.250288,0.644677,-1
18,F,0,1,12,6,2,47,3,2398,0,0.8308055,12.32799,3.747686,-1
18,F,0,1,12,7,2,46,2,2287,0,1.064893,12.48176,4.80852,-1
18,F,0,1,12,8,1,48,4,9309,5,0.03940172,6.600854,0.3274564,-1
18,F,0,1,13,1,2,50,2,9999,7,-1,-1,-1,-1
18,F,0,1,13,2,1,52,4,7664,5,0.358986,6.561124,3.02388,-1
18,F,0,1,13,3,1,51,3,3098,0,0.5538615,6.463867,4.723063,-1
18,F,0,1,13,4,2,52,4,7264,1,0.893386,12.50774,3.978181,-1
18,F,0,1,13,5,1,50,2,9031,5,0.2574216,6.559208,2.142562,-1
18,F,0,1,13,6,2,49,1,2553,1,0.5984141,12.08613,2.810419,-1
18,F,0,1,13,7,2,51,3,3820,2,1.015648,12.26755,4.600875,-1
18,F,0,1,13,8,1,49,1,2320,0,4.621572E-08,6.174158,0,-1
18,F,0,1,14,1,1,56,4,4842,2,0.5059876,6.527487,4.249298,-1
18,F,0,1,14,2,1,53,1,3720,0,0.04084694,6.156442,0.3658403,-1
18,F,0,1,14,3,1,54,2,5776,1,0.2817142,6.513069,2.353433,-1
18,F,0,1,14,4,2,53,1,6264,3,0.4464207,12.08818,2.08741,-1
18,F,0,1,14,5,2,54,2,4909,2,0.8366157,12.28878,3.858996,-1
18,F,0,1,14,6,1,55,3,3831,0,0.2483826,6.399149,2.137716,-1
18,F,0,1,14,7,2,56,4,2709,1,0.9876638,12.36991,4.44977,-1
18,F,0,1,14,8,2,55,3,2276,0,0.6779535,12.22358,3.124682,-1
18,F,0,1,15,1,2,58,2,9999,9,-1,-1,-1,-1
18,F,0,1,15,2,1,57,1,2387,0,0.3540094,6.117665,3.242686,-1
18,F,0,1,15,3,1,58,2,2065,0,0.5206408,6.505631,4.367536,-1
18,F,0,1,15,4,1,59,3,4787,2,0.3139408,6.370599,2.714907,-1
18,F,0,1,15,5,1,60,4,2387,0,0.4338935,6.495318,3.689023,-1
18,F,0,1,15,6,2,57,1,9509,8,0.7266753,12.05897,3.421881,-1
18,F,0,1,15,7,2,60,4,2331,1,0.5344501,12.34637,2.42487,-1
18,F,0,1,15,8,2,59,3,2264,1,0.9288369,12.21036,4.239654,-1
18,F,0,1,16,1,1,61,1,2742,0,0.01143459,6.113159,0.1027921,-1
18,F,0,1,16,2,1,63,3,4276,0,0.452929,6.390331,3.90941,-1
18,F,0,1,16,3,1,64,4,3442,1,0.4683203,6.491605,3.98433,-1
18,F,0,1,16,4,2,61,1,6020,0,1.000943,12.18537,4.667911,-1
18,F,0,1,16,5,2,62,2,5509,4,0.1791335,12.24613,0.8194832,-1
18,F,0,1,16,6,2,63,3,2853,1,0.9687886,12.22791,4.463439,-1
18,F,0,1,16,7,1,62,2,6209,2,0.4561897,6.483113,3.802563,-1
18,F,0,1,16,8,2,64,4,4298,1,0.5070849,12.38928,2.288243,-1
18,F,0,1,17,1,4,67,3,2220,0,0.9403859,12.26091,4.276404,-1
18,F,0,1,17,2,3,66,2,1798,0,0.3752082,6.557737,3.208515,-1
18,F,0,1,17,3,4,65,1,7509,4,0.5383101,12.15432,2.491594,-1
18,F,0,1,17,4,4,68,4,6876,3,0.9147735,12.41342,4.184088,-1
18,F,0,1,17,5,3,67,3,3587,1,2.992204E-07,6.397675,0,-1
18,F,0,1,17,6,3,65,1,2676,1,0.3647316,6.141235,3.325018,-1
18,F,0,1,17,7,3,68,4,2353,0,0.3407907,6.529989,2.881063,-1
18,F,0,1,17,8,4,66,2,5787,5,0.9839563,12.31275,4.466247,-1
18,F,0,1,18,1,4,72,4,1565,0,0.5506255,12.42359,2.47243,-1
18,F,0,1,18,2,4,69,1,8576,4,0.8299376,12.19997,3.846595,-1
18,F,0,1,18,3,3,72,4,1742,0,0.4665857,6.545927,3.935869,-1
18,F,0,1,18,4,3,70,2,9999,14,-1,-1,-1,-1
18,F,0,1,18,5,3,69,1,1509,0,0.4467951,6.188168,4.046221,-1
18,F,0,1,18,6,3,71,3,9687,13,0.06065946,6.329108,0.5297108,-1
18,F,0,1,18,7,4,70,2,9999,3,-1,-1,-1,-1
18,F,0,1,18,8,4,71,3,9999,12,-1,-1,-1,-1
18,F,0,1,19,1,4,73,1,9999,8,-1,-1,-1,-1
18,F,0,1,19,2,3,76,4,1931,0,0.3603939,6.418196,3.111497,-1
18,F,0,1,19,3,4,74,2,9999,7,-1,-1,-1,-1
18,F,0,1,19,4,4,75,3,2476,0,0.6119489,12.24054,2.816889,-1
18,F,0,1,19,5,3,74,2,3131,0,0.006290237,6.477509,0.05233916,-1
18,F,0,1,19,6,3,75,3,2976,1,8.152512E-08,6.453097,0,-1
18,F,0,1,19,7,4,76,4,9999,10,-1,-1,-1,-1
18,F,0,1,19,8,3,73,1,1365,0,0.05131085,6.118867,0.4609765,-1
18,F,0,1,20,1,3,80,4,7231,6,0.391842,6.548803,3.222336,-1
18,F,0,1,20,2,4,78,2,2909,1,0.2713669,12.27758,1.23733,-1
18,F,0,1,20,3,4,80,4,3842,3,0.9078789,12.36799,4.157935,-1
18,F,0,1,20,4,3,78,2,2053,0,0.2433645,6.472713,2.048895,-1
18,F,0,1,20,5,3,79,3,3654,1,0.1141976,6.453307,0.9733753,-1
18,F,0,1,20,6,4,77,1,2131,1,1.012421,12.17166,4.677804,-1
18,F,0,1,20,7,4,79,3,9999,3,-1,-1,-1,-1
18,F,0,1,20,8,3,77,1,2164,0,0.1328109,6.185954,1.192226,-1
18,F,0,1,20,1,2,80,4,3631,0,0.7200965,12.44638,3.232163,-1
18,F,0,1,20,2,1,77,1,2153,0,0.06662151,6.218013,0.591822,-1
18,F,0,1,20,3,2,78,2,2531,1,0.9259766,12.42574,4.204539,-1
18,F,0,1,20,4,2,77,1,1565,0,0.6463052,12.30078,2.9838,-1
18,F,0,1,20,5,1,80,4,3198,1,0.1344913,6.533824,1.135394,-1
18,F,0,1,20,6,2,79,3,1898,0,0.9673235,12.30821,4.367267,-1
18,F,0,1,20,7,1,78,2,2809,1,0.40185,6.576985,3.353629,-1
18,F,0,1,20,8,1,79,3,3164,0,0.001910598,6.45509,0,-1
18,F,0,1,21,1,1,81,1,1243,1,0.04742954,6.248432,0.4187142,-1
18,F,0,1,21,2,1,82,2,2776,1,0.5562381,6.628505,4.590859,-1
18,F,0,1,21,3,2,83,3,2498,0,0.4194399,12.31864,1.932493,-1
18,F,0,1,21,4,2,84,4,2453,2,1.064027,12.48079,4.859179,-1
18,F,0,1,21,5,1,83,3,3297,0,0.2480355,6.460151,2.11174,-1
18,F,0,1,21,6,2,81,1,1642,0,0.7195016,12.32649,3.319892,-1
18,F,0,1,21,7,1,84,4,2920,1,0.5256647,6.555157,4.427707,-1
18,F,0,1,21,8,2,82,2,1887,0,0.6887912,12.46479,3.131254,-1
18,F,0,1,22,1,1,87,3,3376,0,0.4807615,6.453496,4.103794,-1
18,F,0,1,22,2,1,88,4,2842,1,0.3879735,6.551999,3.267765,-1
18,F,0,1,22,3,2,85,1,9999,15,-1,-1,-1,-1
18,F,0,1,22,4,2,86,2,9999,10,-1,-1,-1,-1
18,F,0,1,22,5,1,85,1,2498,1,0.3355967,6.226636,3.027374,-1
18,F,0,1,22,6,2,88,4,1642,0,0.6814119,12.47522,3.060174,-1
18,F,0,1,22,7,2,87,3,1765,0,0.92356,12.32205,4.167345,-1
18,F,0,1,22,8,1,86,2,1731,0,0.2682457,6.6307,2.212843,-1
18,F,0,1,23,1,1,89,1,1320,0,1.296632E-08,6.229195,0,-1
18,F,0,1,23,2,2,90,2,1553,0,1.041239,12.44693,4.680149,-1
18,F,0,1,23,3,2,92,4,2531,0,0.4893711,12.47957,2.184357,-1
18,F,0,1,23,4,2,91,3,1442,0,0.7626097,12.3195,3.44776,-1
18,F,0,1,23,5,1,92,4,4720,4,1.489746E-07,6.424349,0,-1
18,F,0,1,23,6,1,90,2,2398,2,0.3850451,6.625879,3.220026,-1
18,F,0,1,23,7,1,91,3,2587,0,0.2247581,6.442126,1.918773,-1
18,F,0,1,23,8,2,89,1,9999,9,-1,-1,-1,-1
18,F,0,1,24,1,1,94,2,4920,4,0.517006,6.605534,4.38508,-1
18,F,0,1,24,2,1,95,3,2687,0,0.4227104,6.459266,3.616604,-1
18,F,0,1,24,3,1,96,4,2709,1,0.4908354,6.55934,4.136827,-1
18,F,0,1,24,4,1,93,1,5487,0,0.1929114,6.240979,1.724536,-1
18,F,0,1,24,5,2,95,3,1476,0,0.3973565,12.32277,1.820052,-1
18,F,0,1,24,6,2,96,4,4042,3,0.8218126,12.4865,3.716732,-1
18,F,0,1,24,7,2,94,2,1576,0,0.7586117,12.45046,3.452754,-1
18,F,0,1,24,8,2,93,1,2276,1,0.0267366,12.31233,0.1219466,-1
18,F,0,1,25,1,2,98,2,9999,15,-1,-1,-1,-1
18,F,0,1,25,2,1,100,4,1942,0,0.5250783,6.558486,4.421421,-1
18,F,0,1,25,3,2,99,3,2276,1,0.9666126,12.31321,4.466247,-1
18,F,0,1,25,4,1,97,1,1365,0,1.478731E-07,6.232663,0,-1
18,F,0,1,25,5,1,98,2,2331,1,0.5551035,6.614172,4.59056,-1
18,F,0,1,25,6,2,100,4,1387,0,0.9475982,12.47673,4.285829,-1
18,F,0,1,25,7,2,97,1,1598,0,0.4818939,12.32274,2.224664,-1
18,F,0,1,25,8,1,99,3,3787,0,0.05958228,6.45976,0.5070629,-1
18,F,0,1,26,1,1,101,1,1309,0,4.570057E-08,6.232051,0,-1
18,F,0,1,26,2,2,104,4,2253,1,0.9219984,12.47987,4.204865,-1
18,F,0,1,26,3,2,103,3,2664,0,0.3687496,12.32355,1.68818,-1
18,F,0,1,26,4,2,101,1,7331,7,0.8189446,12.17805,3.752959,-1
18,F,0,1,26,5,2,102,2,4753,2,0.3830738,12.32515,1.74574,-1
18,F,0,1,26,6,1,103,3,2220,0,0.009021121,6.361796,0.07661668,-1
18,F,0,1,26,7,1,102,2,3342,3,0.3855807,6.481786,3.253414,-1
18,F,0,1,26,8,1,104,4,1842,0,0.1375674,6.482402,1.161127,-1
18,F,0,1,27,1,2,106,2,1787,0,0.7511309,12.30425,3.410419,-1
18,F,0,1,27,2,2,108,4,1431,1,0.7617062,12.3514,3.476882,-1
18,F,0,1,27,3,2,105,1,1331,0,0.4235068,12.18366,1.974074,-1
18,F,0,1,27,4,1,107,3,1831,0,0.09332595,6.393731,0.8047857,-1
18,F,0,1,27,5,1,105,1,1442,0,0.009181436,6.111589,0.08156469,-1
18,F,0,1,27,6,1,108,4,5231,4,0.3243462,6.464206,2.737453,-1
18,F,0,1,27,7,2,107,3,1220,0,0.9240122,12.20074,4.209055,-1
18,F,0,1,27,8,1,106,2,4398,4,0.4398614,6.454793,3.723416,-1
18,F,0,1,28,1,2,109,1,5476,4,0.2162494,12.10078,1.004636,-1
18,F,0,1,28,2,1,110,2,3098,0,0.3319348,6.478511,2.768313,-1
18,F,0,1,28,3,1,109,1,2209,0,1.00014E-07,6.084802,0.01978234,-1
18,F,0,1,28,4,2,110,2,5709,2,0.09210078,12.29592,0.4219727,-1
18,F,0,1,28,5,2,111,3,1631,0,0.5154307,12.19229,2.365461,-1
18,F,0,1,28,6,2,112,4,2076,0,0.3290256,12.34494,1.496456,-1
18,F,0,1,28,7,1,111,3,2964,0,0.05663157,6.386659,0.4889896,-1
18,F,0,1,28,8,1,112,4,5342,4,0.2806705,6.484181,2.363226,-1
18,F,0,1,29,1,1,115,3,3187,0,0.4063477,6.382105,3.507383,-1
18,F,0,1,29,2,2,113,1,1609,0,0.08000883,12.20924,0.3685048,-1
18,F,0,1,29,3,1,116,4,2831,0,0.2413275,6.458601,2.040951,-1
18,F,0,1,29,4,2,115,3,1376,0,0.973152,12.20269,4.514751,-1
18,F,0,1,29,5,1,114,2,3253,1,1.95118E-07,6.512973,0,-1
18,F,0,1,29,6,1,113,1,2031,0,0.09974092,6.123622,0.899399,-1
18,F,0,1,29,7,2,114,2,4920,4,0.08969038,12.27162,0.4102162,-1
18,F,0,1,29,8,2,116,4,1053,0,2.628635E-07,12.37169,0,-1
18,F,0,1,30,1,2,118,2,1698,0,0.1084303,12.33511,0.4941643,-1
18,F,0,1,30,2,1,119,3,1464,0,2.036017E-08,6.380233,0,-1
18,F,0,1,30,3,2,117,1,2697,1,0.06406219,12.1946,0.2954137,-1
18,F,0,1,30,4,2,120,4,6054,6,0.235982,12.23511,1.075746,-1
18,F,0,1,30,5,2,119,3,1853,1,0.2655979,12.20832,1.227485,-1
18,F,0,1,30,6,1,120,4,2720,0,1.182301E-08,6.4702,0,-1
18,F,0,1,30,7,1,117,1,2609,1,0.4826662,6.089712,4.382623,-1
18,F,0,1,30,8,1,118,2,1976,0,0.3048657,6.489956,2.565901,-1
18,F,0,1,31,1,2,121,1,3875,3,0.7098805,12.15429,3.259606,-1
18,F,0,1,31,2,2,123,3,1298,0,0.2894564,12.20208,1.343338,-1
18,F,0,1,31,3,1,124,4,3498,0,0.5480472,6.475989,4.674411,-1
18,F,0,1,31,4,1,123,3,2698,0,0.5044326,6.395763,4.375824,-1
18,F,0,1,31,5,2,122,2,1620,0,0.4126825,12.31724,1.874611,-1
18,F,0,1,31,6,2,124,4,1342,0,0.4805237,12.36535,2.19927,-1
18,F,0,1,31,7,1,122,2,1620,0,0.3300777,6.489762,2.761162,-1
18,F,0,1,31,8,1,121,1,1987,0,0.1309653,6.103176,1.177859,-1
18,F,0,1,32,1,1,126,2,2131,1,9.592313E-08,6.501903,0,-1
18,F,0,1,32,2,2,127,3,1631,0,0.783399,12.21504,3.571496,-1
18,F,0,1,32,3,1,125,1,1976,1,0.1184739,6.106187,1.067896,-1
18,F,0,1,32,4,2,128,4,1231,0,0.5375031,12.35857,2.456865,-1
18,F,0,1,32,5,1,127,3,3087,2,3.985839E-08,6.387512,0.01978234,-1
18,F,0,1,32,6,2,125,1,2520,2,0.8946823,12.16196,4.190729,-1
18,F,0,1,32,7,1,128,4,2765,0,0.02370059,6.46241,0.2007689,-1
18,F,0,1,32,8,2,126,2,1565,0,0.7754684,12.31261,3.55154,-1
18,F,0,1,33,1,1,131,3,2076,0,0.343701,6.388958,2.96141,-1
18,F,0,1,33,2,2,130,2,1253,0,0.2940826,12.31608,1.33662,-1
18,F,0,1,33,3,1,132,4,2587,0,0.1547798,6.467394,1.300256,-1
18,F,0,1,33,4,1,130,2,1242,0,0.4540143,6.498943,3.916467,-1
18,F,0,1,33,5,2,129,1,1220,0,0.09891041,12.1883,0.4545648,-1
18,F,0,1,33,6,2,132,4,1053,0,0.03093761,12.3561,0.1398823,-1
18,F,0,1,33,7,1,129,1,1331,0,1.237949E-07,6.113325,0,-1
18,F,0,1,33,8,2,131,3,6031,6,0.8997836,12.16557,4.119179,-1
18,F,0,1,34,1,1,136,4,2131,0,0.4708621,6.451849,4.029002,-1
18,F,0,1,34,2,1,134,2,1642,0,3.20849E-07,6.493122,0,-1
18,F,0,1,34,3,1,133,1,2853,0,0.2348833,6.136453,2.11313,-1
18,F,0,1,34,4,2,135,3,909,0,0.4143948,12.20767,1.905365,-1
18,F,0,1,34,5,2,133,1,8842,1,0.7725139,12.29199,3.569303,-1
18,F,0,1,34,6,1,135,3,2720,0,0.3193339,6.373382,2.758964,-1
18,F,0,1,34,7,2,134,2,1275,0,0.5801237,12.33364,2.654907,-1
18,F,0,1,34,8,2,136,4,898,0,0.590907,12.35968,2.66271,-1
18,F,0,1,35,1,1,139,3,2087,1,0.1540923,6.38797,1.327954,-1
18,F,0,1,35,2,1,137,1,1398,1,0.1747476,6.116814,1.587576,-1
18,F,0,1,35,3,2,139,3,1331,0,0.1188377,12.21234,0.5475121,-1
18,F,0,1,35,4,2,137,1,2798,2,0.7567651,12.18692,3.536458,-1
18,F,0,1,35,5,1,138,2,2131,0,0.4247566,6.501376,3.662655,-1
18,F,0,1,35,6,2,140,4,2198,1,0.6510043,12.36064,2.97256,-1
18,F,0,1,35,7,2,138,2,1342,0,0.6105015,12.32646,2.805609,-1
18,F,0,1,35,8,1,140,4,3320,1,0.1748249,6.482679,1.488063,-1
18,F,0,1,37,1,3,145,1,1287,0,0.4226943,6.140743,3.845831,-1
18,F,0,1,37,2,4,147,3,1487,0,0.4858025,12.21151,2.235546,-1
18,F,0,1,37,3,4,148,4,1242,0,0.364123,12.36744,1.639247,-1
18,F,0,1,37,4,3,146,2,2131,0,0.1894461,6.507759,1.58041,-1
18,F,0,1,37,5,3,147,3,4031,1,0.198994,6.375645,1.716802,-1
18,F,0,1,37,6,4,145,1,1564,0,1.033997,12.22287,4.7258,-1
18,F,0,1,37,7,3,148,4,1509,0,0.4285907,6.478779,3.60804,-1
18,F,0,1,37,8,4,146,2,1553,0,0.2936155,12.31951,1.333835,-1
18,F,0,1,38,1,4,149,1,2687,1,1.014721,12.19277,4.729653,-1
18,F,0,1,38,2,4,152,4,1553,0,0.9715974,12.36568,4.373496,-1
18,F,0,1,38,3,4,151,3,2265,0,0.4230544,12.22173,1.951439,-1
18,F,0,1,38,4,4,150,2,1776,0,0.005607151,12.32753,0.01978234,-1
18,F,0,1,38,5,3,152,4,1531,0,0.2293478,6.470357,1.953845,-1
18,F,0,1,38,6,3,150,2,2642,1,0.1638402,6.493119,1.370736,-1
18,F,0,1,38,7,3,151,3,2409,0,9.631461E-08,6.399752,0,-1
18,F,0,1,38,8,3,149,1,1420,0,0.4734128,6.120039,4.350687,-1
18,F,0,1,39,1,3,156,4,2498,0,0.3218963,6.453271,2.749084,-1
18,F,0,1,39,2,4,155,3,9999,0,-1,-1,-1,-1
18,F,0,1,39,3,3,153,1,1442,0,0.4379739,6.217689,3.890028,-1
18,F,0,1,39,4,4,156,4,4253,1,1.029843,12.41778,4.628043,-1
18,F,0,1,39,5,4,154,2,2720,2,0.8429603,12.38207,3.839971,-1
18,F,0,1,39,6,4,153,1,6831,7,0.3613224,12.17078,1.675614,-1
18,F,0,1,39,7,3,154,2,1876,0,0.5302336,6.480464,4.433719,-1
18,F,0,1,39,8,3,155,3,1731,0,0.05330601,6.412152,0.4575681,-1
18,F,0,1,40,1,4,157,1,2653,0,0.8978865,12.29085,4.157087,-1
18,F,0,1,40,2,4,159,3,3209,2,0.8765534,12.23745,4.060039,-1
18,F,0,1,40,3,4,160,4,7175,2,0.4921982,12.38859,2.21249,-1
18,F,0,1,40,4,3,158,2,2109,1,3.596446E-08,6.53002,0,-1
18,F,0,1,40,5,3,160,4,2342,1,0.4271309,6.479222,3.596572,-1
18,F,0,1,40,6,3,159,3,3153,0,0.3761611,6.390259,3.242444,-1
18,F,0,1,40,7,4,158,2,2942,2,0.3815287,12.31659,1.731784,-1
18,F,0,1,40,8,3,157,1,1687,0,0.2752046,6.141882,2.453198,-1
18,F,0,1,41,1,2,164,4,1053,0,0.4043666,12.37186,1.833123,-1
18,F,0,1,41,2,1,162,2,3009,0,0.3836701,6.52984,3.184076,-1
18,F,0,1,41,3,1,164,4,2620,1,0.4686611,6.476104,3.995226,-1
18,F,0,1,41,4,2,162,2,1976,1,0.3191471,12.34618,1.460185,-1
18,F,0,1,41,5,2,161,1,1453,0,0.4796997,12.20799,2.234933,-1
18,F,0,1,41,6,1,163,3,1842,0,0.279413,6.387475,2.408997,-1
18,F,0,1,41,7,1,161,1,2631,1,0.2879136,6.13837,2.574354,-1
18,F,0,1,41,8,2,163,3,1320,0,0.8134796,12.22991,3.745334,-1
18,F,0,1,42,1,1,166,2,1576,0,0.1824339,6.530137,1.513231,-1
18,F,0,1,42,2,2,167,3,1253,0,0.3008082,12.22507,1.373161,-1
18,F,0,1,42,3,2,166,2,1642,0,0.5749264,12.35709,2.622863,-1
18,F,0,1,42,4,1,165,1,1753,1,0.08989341,6.123296,0.8089085,-1
18,F,0,1,42,5,1,167,3,2787,1,0.5026717,6.378002,4.343072,-1
18,F,0,1,42,6,2,168,4,998,0,0.1528652,12.38474,0.6901216,-1
18,F,0,1,42,7,2,165,1,1531,0,0.4132957,12.22631,1.919181,-1
18,F,0,1,42,8,1,168,4,1531,0,0.5134836,6.46725,4.383337,-1
18,F,0,1,43,1,2,169,1,2998,3,0.3186877,12.16758,1.482794,-1
18,F,0,1,43,2,1,170,2,1398,0,5.148601E-08,6.518548,0,-1
18,F,0,1,43,3,2,172,4,1042,0,0.9352201,12.37164,4.239793,-1
18,F,0,1,43,4,1,171,3,3542,0,0.3617659,6.383907,3.11885,-1
18,F,0,1,43,5,1,169,1,1654,1,0.04877504,6.143363,0.4370072,-1
18,F,0,1,43,6,2,170,2,1909,0,0.1978257,12.35599,0.901572,-1
18,F,0,1,43,7,1,172,4,4031,2,0.5218815,6.476605,4.380969,-1
18,F,0,1,43,8,2,171,3,1276,0,0.8302079,12.23359,3.779527,-1
18,F,0,1,44,1,2,176,4,1098,0,0.4219333,12.38748,1.916425,-1
18,F,0,1,44,2,1,174,2,3108,0,0.07919112,6.528258,0.6623429,-1
18,F,0,1,44,3,1,175,3,3265,1,0.5044602,6.380916,4.353027,-1
18,F,0,1,44,4,2,174,2,1664,0,0.7926692,12.35355,3.635666,-1
18,F,0,1,44,5,2,175,3,1931,1,0.3063337,12.21088,1.40486,-1
18,F,0,1,44,6,1,173,1,1320,0,0.3361226,6.139759,3.032026,-1
18,F,0,1,44,7,1,176,4,2676,0,0.152609,6.477776,1.282374,-1
18,F,0,1,44,8,2,173,1,1476,0,0.9184046,12.21903,4.273519,-1
18,F,0,1,45,1,1,180,4,1754,0,0.4945962,6.478602,4.215146,-1
18,F,0,1,45,2,2,177,1,1310,0,0.1806162,12.23752,0.8325126,-1
18,F,0,1,45,3,2,179,3,1176,0,0.9841139,12.22365,4.580778,-1
18,F,0,1,45,4,1,178,2,2853,3,0.3417667,6.499416,2.879568,-1
18,F,0,1,45,5,2,180,4,742,0,0.4813159,12.37138,2.166634,-1
18,F,0,1,45,6,2,178,2,2209,2,0.9464617,12.3275,4.341313,-1
18,F,0,1,45,7,1,177,1,1442,0,0.278539,6.135667,2.527549,-1
18,F,0,1,45,8,1,179,3,3008,0,0.4608096,6.402455,3.999488,-1
18,F,0,1,46,1,2,182,2,1142,0,0.8799997,12.34764,4.039003,-1
18,F,0,1,46,2,2,183,3,2564,2,0.914724,12.21117,4.251233,-1
18,F,0,1,46,3,1,181,1,1209,0,0.1883383,6.12312,1.710292,-1
18,F,0,1,46,4,2,184,4,1087,0,0.6388434,12.37958,2.874329,-1
18,F,0,1,46,5,1,183,3,3297,0,0.5140156,6.399518,4.42306,-1
18,F,0,1,46,6,1,182,2,1820,1,6.581134E-08,6.521693,0,-1
18,F,0,1,46,7,1,184,4,2464,1,0.2917133,6.475269,2.48601,-1
18,F,0,1,46,8,2,181,1,2842,2,0.6101055,12.18565,2.809234,-1
18,F,0,1,47,1,1,187,3,3031,1,0.1262729,6.393387,1.091636,-1
18,F,0,1,47,2,2,188,4,1131,0,0.7110927,12.38903,3.191691,-1
18,F,0,1,47,3,2,187,3,1742,0,0.5796422,12.21278,2.686787,-1
18,F,0,1,47,4,2,186,2,1442,0,0.130645,12.34826,0.5928131,-1
18,F,0,1,47,5,2,185,1,6041,10,0.4258877,12.04794,1.996158,-1
18,F,0,1,47,6,1,186,2,1997,1,5.70339E-08,6.516274,0,-1
18,F,0,1,47,7,1,185,1,1265,0,0.4190835,6.118776,3.841602,-1
18,F,0,1,47,8,1,188,4,2853,0,0.4761764,6.485052,4.019708,-1
18,F,0,1,48,1,1,190,2,1309,0,0.2593116,6.519536,2.189548,-1
18,F,0,1,48,2,2,192,4,1009,0,0.0518405,12.36877,0.2349025,-1
18,F,0,1,48,3,2,191,3,1165,0,0.8725545,12.21733,3.997039,-1
18,F,0,1,48,4,1,189,1,2365,2,0.3409148,6.098055,3.121548,-1
18,F,0,1,48,5,1,191,3,1676,1,9.670396E-08,6.3862,0,-1
18,F,0,1,48,6,1,192,4,2364,0,2.408267E-07,6.482824,0,-1
18,F,0,1,48,7,2,190,2,1698,0,0.3560347,12.33943,1.612648,-1
18,F,0,1,48,8,2,189,1,1465,0,0.7651647,12.20893,3.565735,-1
18,F,0,1,49,1,2,196,4,1131,0,0.6824961,12.375,3.07205,-1
18,F,0,1,49,2,2,194,2,1753,1,0.664363,12.33759,3.036155,-1
18,F,0,1,49,3,1,193,1,1998,1,0.07348515,6.103493,0.6649964,-1
18,F,0,1,49,4,2,195,3,1253,0,0.5286822,12.21045,2.452639,-1
18,F,0,1,49,5,1,196,4,2687,1,0.1542838,6.485188,1.312539,-1
18,F,0,1,49,6,1,194,2,1542,0,0.407205,6.513211,3.399955,-1
18,F,0,1,49,7,1,195,3,2809,0,0.3406975,6.392209,2.936317,-1
18,F,0,1,49,8,2,193,1,1709,0,0.7044604,12.19952,3.279486,-1
18,F,0,1,50,1,2,199,3,887,0,0.7798026,12.23174,3.550437,-1
18,F,0,1,50,2,2,197,1,1298,0,0.3467722,12.21513,1.594464,-1
18,F,0,1,50,3,1,198,2,1487,0,0.3195899,6.512496,2.681026,-1
18,F,0,1,50,4,2,200,4,964,0,0.9306092,12.37451,4.190776,-1
18,F,0,1,50,5,1,197,1,1154,0,0.4099678,6.132204,3.664205,-1
18,F,0,1,50,6,1,200,4,2509,1,0.3273705,6.485157,2.781152,-1
18,F,0,1,50,7,1,199,3,2231,0,0.4269233,6.411781,3.665701,-1
18,F,0,1,50,8,2,198,2,1287,0,0.8838667,12.33953,4.002914,-1
18,F,0,1,51,1,1,204,4,2120,1,0.06289235,6.48956,0.533025,-1
18,F,0,1,51,2,1,202,2,1664,1,0.1758685,6.514158,1.468471,-1
18,F,0,1,51,3,2,204,4,1009,0,0.3547773,12.38053,1.598754,-1
18,F,0,1,51,4,2,203,3,1042,0,0.9556605,12.23363,4.348075,-1
18,F,0,1,51,5,2,202,2,1187,0,0.1524441,12.33982,0.6915378,-1
18,F,0,1,51,6,1,201,1,1431,0,0.4856257,6.13051,4.352172,-1
18,F,0,1,51,7,1,203,3,2031,0,0.3104889,6.407227,2.667118,-1
18,F,0,1,51,8,2,201,1,1609,1,0.0935133,12.21358,0.4306931,-1
18,F,0,1,52,1,2,208,4,1053,0,0.6389976,12.38285,2.874329,-1
18,F,0,1,52,2,1,206,2,1742,0,0.274786,6.5121,2.284134,-1
18,F,0,1,52,3,2,207,3,1153,0,0.4753109,12.23135,2.161389,-1
18,F,0,1,52,4,2,206,2,1365,0,0.9125551,12.33998,4.132896,-1
18,F,0,1,52,5,1,205,1,4064,4,0.1846191,6.076479,1.682839,-1
18,F,0,1,52,6,1,207,3,2765,1,0.3761789,6.400729,3.238577,-1
18,F,0,1,52,7,1,208,4,2909,0,0.07773538,6.487352,0.6561096,-1
18,F,0,1,52,8,2,205,1,9999,14,-1,-1,-1,-1
18,F,0,1,53,1,2,210,2,1498,1,1.024897,12.33264,4.649115,-1
18,F,0,1,53,2,2,209,1,1120,0,0.4187336,12.21173,1.943803,-1
18,F,0,1,53,3,2,212,4,820,0,0.7055362,12.37144,3.176751,-1
18,F,0,1,53,4,1,210,2,1309,0,0.5136255,6.508115,4.258689,-1
18,F,0,1,53,5,1,209,1,1809,0,0.219576,6.128423,1.988004,-1
18,F,0,1,53,6,1,211,3,2031,0,0.536828,6.399102,4.666568,-1
18,F,0,1,53,7,1,212,4,6464,5,4.274232E-05,6.454144,0,-1
18,F,0,1,53,8,2,211,3,2531,0,0.8088653,12.20325,3.769774,-1
18,F,0,1,54,1,1,213,1,1198,0,0.2292806,6.136327,2.05833,-1
18,F,0,1,54,2,2,214,2,1342,0,0.5547265,12.34524,2.509987,-1
18,F,0,1,54,3,2,216,4,1442,0,0.7695391,12.35999,3.495752,-1
18,F,0,1,54,4,2,215,3,1464,0,0.93055,12.20877,4.236512,-1
18,F,0,1,54,5,1,214,2,2176,1,0.05319556,6.523925,0.4449939,-1
18,F,0,1,54,6,1,216,4,2309,0,0.4424855,6.473277,3.728934,-1
18,F,0,1,54,7,2,213,1,1498,0,0.3903809,12.2122,1.79275,-1
18,F,0,1,54,8,1,215,3,2964,0,0.3747193,6.392439,3.229133,-1
18,F,0,1,55,1,2,220,4,5987,0,0.02073417,12.36542,0.09487279,-1
18,F,0,1,55,2,1,219,3,3365,2,0.3411029,6.387711,2.959426,-1
18,F,0,1,55,3,1,220,4,3442,1,0.2774262,6.475766,2.338499,-1
18,F,0,1,55,4,1,218,2,1565,0,0.05391837,6.516373,0.4511079,-1
18,F,0,1,55,5,2,217,1,4965,1,0.9682788,12.2155,4.503805,-1
18,F,0,1,55,6,2,219,3,1409,0,0.5770251,12.21227,2.672323,-1
18,F,0,1,55,7,1,217,1,1865,0,6.623694E-08,6.135171,0,-1
18,F,0,1,55,8,2,218,2,1431,0,0.8505431,12.3546,3.901288,-1
18,F,0,1,56,1,1,224,4,1787,0,0.5000128,6.471935,4.265399,-1
18,F,0,1,56,2,2,221,1,1253,0,0.08004572,12.21996,0.3674413,-1
18,F,0,1,56,3,1,222,2,2631,1,0.03794822,6.536473,0.3189811,-1
18,F,0,1,56,4,1,223,3,3320,2,2.676511E-07,6.374809,0,-1
18,F,0,1,56,5,1,221,1,1542,0,0.2577644,6.137729,2.316889,-1
18,F,0,1,56,6,2,223,3,1476,0,0.9950593,12.23209,4.532115,-1
18,F,0,1,56,7,2,224,4,1542,1,0.3727297,12.38763,1.703183,-1
18,F,0,1,56,8,2,222,2,1575,0,0.4716193,12.35263,2.147489,-1
18,F,0,1,57,1,4,225,1,1232,0,0.6118698,12.26151,2.803585,-1
18,F,0,1,57,2,3,227,3,3842,2,0.3543473,6.395896,3.05659,-1
18,F,0,1,57,3,4,228,4,4764,0,0.8430903,12.41725,3.77906,-1
18,F,0,1,57,4,4,226,2,3520,2,0.7827819,12.36964,3.597443,-1
18,F,0,1,57,5,3,225,1,1742,0,0.3097516,6.186202,2.741954,-1
18,F,0,1,57,6,3,228,4,6298,4,0.407268,6.542866,3.409673,-1
18,F,0,1,57,7,4,227,3,3064,1,0.3349777,12.25502,1.540912,-1
18,F,0,1,57,8,3,226,2,1853,0,0.3903079,6.555985,3.214306,-1
18,F,0,1,58,1,3,231,3,4831,2,0.06661454,6.412775,0.5702693,-1
18,F,0,1,58,2,3,232,4,3820,1,0.5298215,6.496984,4.438311,-1
18,F,0,1,58,3,4,229,1,1598,0,0.2461255,12.25902,1.136772,-1
18,F,0,1,58,4,4,230,2,1687,0,0.8422438,12.35656,3.801533,-1
18,F,0,1,58,5,3,229,1,3609,1,0.05730456,6.190769,0.5109072,-1
18,F,0,1,58,6,4,232,4,1254,0,0.9311256,12.40908,4.18006,-1
18,F,0,1,58,7,3,230,2,5198,2,0.3560411,6.526114,2.952141,-1
18,F,0,1,58,8,4,231,3,2453,0,0.1058668,12.25711,0.4853748,-1
18,F,0,1,59,1,3,233,1,1487,0,7.135355E-08,6.191782,0,-1
18,F,0,1,59,2,3,234,2,3009,0,0.4583461,6.545951,3.77906,-1
18,F,0,1,59,3,3,236,4,9999,7,-1,-1,-1,-1
18,F,0,1,59,4,4,235,3,3442,1,0.4008344,12.22085,1.83355,-1
18,F,0,1,59,5,4,234,2,2464,1,2.553607E-07,12.3528,0,-1
18,F,0,1,59,6,4,233,1,2609,1,0.1233521,12.22104,0.5678623,-1
18,F,0,1,59,7,4,236,4,1687,0,1.012879,12.37698,4.548035,-1
18,F,0,1,59,8,3,235,3,2876,0,0.4096269,6.3295,3.578124,-1
18,F,0,1,60,1,4,238,2,5309,1,0.5854459,12.27579,2.704939,-1
18,F,0,1,60,2,4,239,3,6809,0,0.4472449,12.31656,2.051186,-1
18,F,0,1,60,3,3,240,4,2587,1,0.2637675,6.554069,2.21576,-1
18,F,0,1,60,4,3,239,3,3398,0,0.2292165,6.458065,1.962241,-1
18,F,0,1,60,5,4,237,1,1376,0,0.9738838,12.26587,4.512928,-1
18,F,0,1,60,6,3,238,2,1798,0,0.450243,6.538145,3.717891,-1
18,F,0,1,60,7,3,237,1,1309,0,0.2208736,6.173747,1.964832,-1
18,F,0,1,60,8,4,240,4,1198,0,0.6785952,12.43949,3.048638,-1
18,F,0,1,61,1,1,242,2,4753,4,0.4846969,6.53142,3.99748,-1
18,F,0,1,61,2,2,244,4,1076,0,0.8487147,12.4224,3.861329,-1
18,F,0,1,61,3,1,243,3,2120,0,0.09285101,6.463723,0.7910526,-1
18,F,0,1,61,4,2,241,1,1320,0,0.4825658,12.26627,2.236072,-1
18,F,0,1,61,5,1,244,4,2409,0,0.3343622,6.54202,2.821333,-1
18,F,0,1,61,6,2,243,3,1576,0,0.03500205,12.29128,0.1607126,-1
18,F,0,1,61,7,2,242,2,1620,0,0.9020452,12.38389,4.071022,-1
18,F,0,1,61,8,1,241,1,1476,0,0.359526,6.185899,3.185859,-1
18,F,0,1,62,1,1,246,2,1565,0,0.4137869,6.548278,3.453264,-1
18,F,0,1,62,2,2,245,1,1387,0,0.1949161,12.25803,0.8976567,-1
18,F,0,1,62,3,1,247,3,2298,0,0.388172,6.455264,3.313221,-1
18,F,0,1,62,4,1,245,1,1253,0,0.03704244,6.184939,0.329838,-1
18,F,0,1,62,5,2,248,4,1542,1,0.6118905,12.43529,2.739669,-1
18,F,0,1,62,6,2,246,2,2942,2,1.919804E-07,12.37379,0,-1
18,F,0,1,62,7,1,248,4,4353,3,0.4738843,6.527861,4.008683,-1
18,F,0,1,62,8,2,247,3,1487,0,0.6332296,12.24387,2.930377,-1
18,F,0,1,1,1,5,2,2,3874,0,3.915442,6.539395,36.7802,-1
18,F,0,1,1,2,8,3,3,4264,0,5.32934,12.25168,25.54828,-1
18,F,0,1,1,3,6,4,4,1953,0,2.86792,12.40413,13.11703,-1
18,F,0,1,1,4,7,3,3,3976,0,2.618143,6.413535,23.07784,-1
18,F,0,1,1,5,5,1,1,3265,0,2.311876,6.170635,21.81913,-1
18,F,0,1,1,6,5,4,4,1331,0,4.721571,6.508767,44.31491,-1
18,F,0,1,1,7,6,2,2,1876,0,5.752737,12.35709,27.74527,-1
18,F,0,1,1,8,6,3,3,1509,0,7.11622,12.26884,35.4522,-1
18,F,0,1,1,9,8,2,2,3109,0,11.40524,12.36812,67.24214,-1
18,F,0,1,1,10,5,3,3,1431,0,5.155712,6.438952,53.1849,-1
18,F,0,1,1,11,8,1,1,1920,0,3.945575,12.24786,18.79265,-1
18,F,0,1,1,12,7,4,4,2142,0,2.716302,6.511144,23.66836,-1
18,F,0,1,1,13,7,1,1,1187,0,1.022293,6.159706,9.157918,-1
18,F,0,1,1,14,8,4,4,1698,0,9.107398,12.43099,46.5728,-1
18,F,0,1,1,15,7,2,2,1853,0,5.864514,6.535295,63.81324,-1
18,F,0,1,1,16,6,1,1,909,0,3.882553,12.24844,18.48058,-1
18,F,0,1,2,1,7,3,3,1431,0,5.498521,6.429519,58.78174,-1
18,F,0,1,2,2,5,2,2,853,0,3.391802,6.52673,29.84047,-1
18,F,0,1,2,3,7,1,1,1187,0,2.829108,6.177261,27.25732,-1
18,F,0,1,2,4,8,3,3,1020,0,5.422599,12.25334,26.26608,-1
18,F,0,1,2,5,6,1,1,809,0,3.939368,12.24283,18.76997,-1
18,F,0,1,2,6,8,2,2,2231,0,4.633413,12.35526,21.88276,-1
18,F,0,1,2,7,8,4,4,1553,0,2.896315,12.37274,13.16836,-1
18,F,0,1,2,8,8,1,1,1620,0,7.706252,12.26242,38.93546,-1
18,F,0,1,2,9,6,2,2,1753,0,2.109688,12.34951,9.584024,-1
18,F,0,1,2,10,6,4,4,1887,0,7.184664,12.3952,35.42472,-1
18,F,0,1,2,11,6,3,3,1242,0,2.518356,12.24893,11.75802,-1
18,F,0,1,2,12,5,4,4,1753,0,3.523825,6.498822,31.47643,-1
18,F,0,1,2,13,5,3,3,820,0,5.749958,6.459818,62.77029,-1
18,F,0,1,2,14,5,1,1,1809,0,1.513666,6.171161,13.9255,-1
18,F,0,1,2,15,7,2,2,1076,0,3.518534,6.521994,31.36895,-1
18,F,0,1,2,16,7,4,4,1309,0,3.657668,6.493779,32.81114,-1
