Age, Gender, Awareness Type, Session, Block, Trial, Set, Pattern, Quadrant, Response Time, Num Mistakes, Distance From Target, Camera Distance From Target, Angle Error (Degrees), FC Response
18,M,0,1,1,1,2,4,4,2186,1,0.8210492,12.30156,3.732293,-1
18,M,0,1,1,2,2,2,2,1498,0,0.2874228,12.43886,1.30176,-1
18,M,0,1,1,3,1,4,4,1953,0,8.615333E-08,6.544803,0,-1
18,M,0,1,1,4,1,3,3,3042,1,0.3747419,6.117683,3.325077,-1
18,M,0,1,1,5,2,1,1,2253,0,0.8391777,12.38369,3.833234,-1
18,M,0,1,1,6,1,2,2,1875,0,0.0830803,6.533214,0.6929511,-1
18,M,0,1,1,7,2,3,3,3475,2,0.4098998,12.17332,1.894549,-1
18,M,0,1,1,8,1,1,1,2920,1,0.1081578,6.244025,0.9456397,-1
18,M,0,1,2,1,1,8,4,2442,0,0.06956898,6.546296,0.5808088,-1
18,M,0,1,2,2,1,6,2,1675,0,0.08331055,6.528504,0.694925,-1
18,M,0,1,2,3,2,8,4,3342,0,0.4425141,12.30285,1.991643,-1
18,M,0,1,2,4,1,5,1,1886,0,0.4389875,6.249682,3.913115,-1
18,M,0,1,2,5,2,7,3,2776,1,0.1545943,12.17529,0.7143636,-1
18,M,0,1,2,6,2,6,2,1886,0,4.795738E-08,12.43943,0,-1
18,M,0,1,2,7,1,7,3,2209,0,0.1208316,6.112462,1.08372,-1
18,M,0,1,2,8,2,5,1,2820,0,0.8164361,12.36825,3.733185,-1
18,M,0,1,3,1,1,11,3,2553,0,0.1211075,6.11078,1.086605,-1
18,M,0,1,3,2,1,12,4,2131,0,0.2487917,6.542785,2.077825,-1
18,M,0,1,3,3,1,9,1,2009,0,0.07672315,6.254368,0.6743467,-1
18,M,0,1,3,4,2,10,2,1476,0,1.788268E-08,12.44089,0,-1
18,M,0,1,3,5,2,9,1,2320,0,0.3748277,12.37867,1.700654,-1
18,M,0,1,3,6,1,10,2,1609,0,7.658386E-08,6.534989,0,-1
18,M,0,1,3,7,2,12,4,2653,0,0.5742817,12.29989,2.615914,-1
18,M,0,1,3,8,2,11,3,1942,0,0.3185115,12.18171,1.479226,-1
18,M,0,1,4,1,1,13,1,1742,0,0.4501344,6.243312,4.057579,-1
18,M,0,1,4,2,1,16,4,1809,0,0.02786769,6.541625,0.234068,-1
18,M,0,1,4,3,2,14,2,1376,0,0.3304824,12.4291,1.482794,-1
18,M,0,1,4,4,2,13,1,4453,0,0.139441,12.3859,0.6327289,-1
18,M,0,1,4,5,2,15,3,2675,1,0.1518224,12.16982,0.7019292,-1
18,M,0,1,4,6,1,14,2,1620,0,1.170749E-07,6.533627,0,-1
18,M,0,1,4,7,1,15,3,3065,0,0.4691135,6.110877,4.309753,-1
18,M,0,1,4,8,2,16,4,4242,2,0.123634,12.28081,0.563365,-1
18,M,0,1,5,1,2,17,1,1331,0,0.2307052,12.38229,1.04155,-1
18,M,0,1,5,2,1,18,2,1698,0,0.1101937,6.528432,0.9127884,-1
18,M,0,1,5,3,1,19,3,2220,0,0.3439765,6.117222,3.126624,-1
18,M,0,1,5,4,1,20,4,2776,0,9.409854E-08,6.533964,0,-1
18,M,0,1,5,5,2,19,3,3298,2,0.05333876,12.17326,0.2446942,-1
18,M,0,1,5,6,2,18,2,2220,0,0.2008435,12.42953,0.9026566,-1
18,M,0,1,5,7,1,17,1,2653,0,0.2588523,6.246979,2.301037,-1
18,M,0,1,5,8,2,20,4,2109,0,0.4727039,12.29754,2.160392,-1
18,M,0,1,6,1,1,21,1,1953,0,0.2976232,6.248394,2.651809,-1
18,M,0,1,6,2,1,24,4,1408,0,1.387512E-07,6.53929,0,-1
18,M,0,1,6,3,2,21,1,1798,0,0.741688,12.38029,3.384371,-1
18,M,0,1,6,4,2,23,3,1875,0,0.9650345,12.16686,4.495316,-1
18,M,0,1,6,5,2,22,2,1453,0,0.08057389,12.43852,0.3636945,-1
18,M,0,1,6,6,2,24,4,1665,0,0.8435112,12.29111,3.873077,-1
18,M,0,1,6,7,1,23,3,2531,0,1.095654E-07,6.125853,0,-1
18,M,0,1,6,8,1,22,2,1776,0,0.2698698,6.523883,2.271244,-1
18,M,0,1,7,1,1,25,1,1998,0,0.5004775,6.234971,4.535657,-1
18,M,0,1,7,2,2,26,2,965,0,0.2343493,12.43504,1.053877,-1
18,M,0,1,7,3,1,27,3,1631,0,0.3988768,6.135643,3.579929,-1
18,M,0,1,7,4,1,26,2,1209,0,0.271455,6.530636,2.257414,-1
18,M,0,1,7,5,2,27,3,1675,0,0.7217827,12.17025,3.348079,-1
18,M,0,1,7,6,2,28,4,1353,0,0.5018955,12.30969,2.309104,-1
18,M,0,1,7,7,2,25,1,1276,0,0.4106217,12.37948,1.880344,-1
18,M,0,1,7,8,1,28,4,1653,0,0.1916258,6.543813,1.585726,-1
18,M,0,1,8,1,1,30,2,1109,0,0.005223718,6.529458,0.04423466,-1
18,M,0,1,8,2,2,29,1,1964,0,0.1613081,12.38474,0.7351527,-1
18,M,0,1,8,3,2,30,2,1076,0,0.4498747,12.44323,2.01926,-1
18,M,0,1,8,4,1,32,4,2776,0,0.368387,6.546115,3.121987,-1
18,M,0,1,8,5,1,31,3,2176,0,0.4087071,6.119708,3.715098,-1
18,M,0,1,8,6,1,29,1,1509,0,1.503638E-07,6.268063,0,-1
18,M,0,1,8,7,2,32,4,1687,0,0.9483429,12.30722,4.333139,-1
18,M,0,1,8,8,2,31,3,2142,1,0.1669538,12.18593,0.7712635,-1
18,M,0,1,9,1,2,36,4,1253,0,0.8347246,12.3076,3.83543,-1
18,M,0,1,9,2,1,34,2,1098,0,0.0740607,6.530534,0.6177064,-1
18,M,0,1,9,3,1,35,3,1565,0,0.2730067,6.130799,2.464422,-1
18,M,0,1,9,4,2,33,1,1298,0,0.9138656,12.38817,4.139051,-1
18,M,0,1,9,5,1,36,4,2198,0,0.3093665,6.540105,2.558185,-1
18,M,0,1,9,6,2,35,3,1431,0,0.676609,12.18993,3.137562,-1
18,M,0,1,9,7,1,33,1,1376,0,0.09073295,6.26318,0.7972127,-1
18,M,0,1,9,8,2,34,2,1353,0,0.7562212,12.43564,3.409501,-1
18,M,0,1,10,1,2,40,4,2742,2,0.1848829,12.31298,0.839068,-1
18,M,0,1,10,2,2,38,2,2131,0,7.641387E-08,12.4397,0,-1
18,M,0,1,10,3,1,39,3,1965,0,1.933992E-07,6.132728,0,-1
18,M,0,1,10,4,2,37,1,1720,0,0.9011909,12.38152,4.12146,-1
18,M,0,1,10,5,1,38,2,1520,0,0.3021623,6.533617,2.498262,-1
18,M,0,1,10,6,2,39,3,1508,0,0.981169,12.18602,4.493268,-1
18,M,0,1,10,7,1,40,4,1742,0,1.46728E-07,6.543805,0,-1
18,M,0,1,10,8,1,37,1,1376,0,2.112287E-08,6.270221,0,-1
18,M,0,1,11,1,1,43,3,1275,0,0.1942145,6.13419,1.743945,-1
18,M,0,1,11,2,2,42,2,1264,0,0.1657966,12.43958,0.7462481,-1
18,M,0,1,11,3,2,41,1,2376,0,0.7860967,12.39296,3.585558,-1
18,M,0,1,11,4,2,44,4,2987,1,1.705573E-07,12.311,0.01978234,-1
18,M,0,1,11,5,1,41,1,2031,0,0.1533175,6.259346,1.352195,-1
18,M,0,1,11,6,1,44,4,2109,0,0.3575929,6.550765,2.969991,-1
18,M,0,1,11,7,1,42,2,1319,0,0.1548165,6.541333,1.280694,-1
18,M,0,1,11,8,2,43,3,3143,0,0.1896434,12.189,0.8706562,-1
18,M,0,1,12,1,2,45,1,1197,0,2.946952E-07,12.39553,0,-1
18,M,0,1,12,2,2,47,3,2520,1,0.113947,12.18555,0.5241405,-1
18,M,0,1,12,3,2,46,2,1364,0,0.1461906,12.44511,0.6599753,-1
18,M,0,1,12,4,1,48,4,3231,0,0.3797272,6.545576,3.184384,-1
18,M,0,1,12,5,1,45,1,2009,0,0.3592085,6.253652,3.210711,-1
18,M,0,1,12,6,2,48,4,1864,0,1.104762E-07,12.31785,0,-1
18,M,0,1,12,7,1,47,3,1342,0,0.1759292,6.128692,1.579791,-1
18,M,0,1,12,8,1,46,2,1487,0,0.328072,6.523171,2.729719,-1
18,M,0,1,13,1,2,52,4,1198,0,0.7967748,12.3095,3.598477,-1
18,M,0,1,13,2,2,50,2,2297,2,0.3552247,12.42275,1.593973,-1
18,M,0,1,13,3,1,52,4,1942,0,4.636586E-08,6.536147,0,-1
18,M,0,1,13,4,1,49,1,1387,0,0.3674533,6.256441,3.271357,-1
18,M,0,1,13,5,1,50,2,1242,0,1.317565E-07,6.523622,0,-1
18,M,0,1,13,6,1,51,3,2753,1,0.2873343,6.148043,2.534277,-1
18,M,0,1,13,7,2,49,1,2120,0,0.5343601,12.36993,2.424708,-1
18,M,0,1,13,8,2,51,3,1787,0,0.6544012,12.18071,3.042982,-1
18,M,0,1,14,1,1,56,4,1431,0,0.1398928,6.54189,1.178192,-1
18,M,0,1,14,2,1,53,1,1564,0,1.220402E-07,6.262107,0,-1
18,M,0,1,14,3,2,55,3,1865,0,0.876,12.17381,4.021511,-1
18,M,0,1,14,4,1,54,2,1487,0,0.3167045,6.528368,2.627263,-1
18,M,0,1,14,5,2,56,4,1631,0,0.3583136,12.30535,1.639128,-1
18,M,0,1,14,6,1,55,3,2076,0,0.1470096,6.123363,1.318192,-1
18,M,0,1,14,7,2,53,1,3842,0,5.21375E-08,12.39569,0,-1
18,M,0,1,14,8,2,54,2,1042,0,0.01738628,12.43706,0.07661668,-1
18,M,0,1,15,1,2,60,4,1542,0,0.7715134,12.31405,3.54961,-1
18,M,0,1,15,2,1,59,3,1931,0,0.3284619,6.149172,2.882558,-1
18,M,0,1,15,3,2,57,1,2531,0,6.344767E-08,12.38794,0,-1
18,M,0,1,15,4,2,58,2,1087,0,1.28904E-07,12.4379,0,-1
18,M,0,1,15,5,1,60,4,2198,0,0.3564741,6.548729,2.953865,-1
18,M,0,1,15,6,1,58,2,2165,0,0.01626854,6.530022,0.1341704,-1
18,M,0,1,15,7,1,57,1,1665,0,0.002810448,6.260941,0.02797646,-1
18,M,0,1,15,8,2,59,3,1287,0,0.6151921,12.17797,2.852384,-1
18,M,0,1,16,1,2,62,2,1109,0,0.3552368,12.44219,1.592376,-1
18,M,0,1,16,2,1,64,4,2164,0,0.02065973,6.552565,0.1724585,-1
18,M,0,1,16,3,1,63,3,1953,0,0.2993629,6.153842,2.63886,-1
18,M,0,1,16,4,2,64,4,1331,0,0.6582612,12.32192,3.026145,-1
18,M,0,1,16,5,1,61,1,1220,0,0.2337598,6.260625,2.070937,-1
18,M,0,1,16,6,2,63,3,1164,0,0.8880567,12.19255,4.127396,-1
18,M,0,1,16,7,2,61,1,1019,0,0.4318777,12.38361,1.963437,-1
18,M,0,1,16,8,1,62,2,1065,0,0.01043923,6.526525,0.08622923,-1
18,M,0,1,17,1,3,67,3,1098,0,0.3227994,6.151938,2.880112,-1
18,M,0,1,17,2,3,68,4,1220,0,0.4166696,6.561133,3.544698,-1
18,M,0,1,17,3,3,66,2,1264,0,1.708076E-07,6.535481,0,-1
18,M,0,1,17,4,3,65,1,1109,0,0.1440355,6.251252,1.271648,-1
18,M,0,1,17,5,4,68,4,1464,0,0.377549,12.3452,1.701459,-1
18,M,0,1,17,6,4,65,1,2365,2,0.187625,12.35473,0.8481144,-1
18,M,0,1,17,7,4,67,3,1464,0,0.7635384,12.20294,3.539999,-1
18,M,0,1,17,8,4,66,2,1009,0,0.06408755,12.43402,0.289391,-1
18,M,0,1,18,1,4,72,4,1798,0,0.2283038,12.31537,1.046611,-1
18,M,0,1,18,2,3,70,2,1820,0,0.2227591,6.534799,1.863616,-1
18,M,0,1,18,3,3,69,1,1687,0,0.2913563,6.269188,2.533505,-1
18,M,0,1,18,4,4,70,2,809,0,0.5628169,12.42709,2.526697,-1
18,M,0,1,18,5,3,72,4,1709,0,0.1253387,6.559831,1.051088,-1
18,M,0,1,18,6,4,71,3,1475,0,0.7548181,12.19545,3.503808,-1
18,M,0,1,18,7,4,69,1,1053,0,0.4790514,12.37612,2.172948,-1
18,M,0,1,18,8,3,71,3,1364,0,0.2975394,6.139095,2.690282,-1
18,M,0,1,19,1,3,73,1,1575,0,0.01939618,6.229405,0.1690205,-1
18,M,0,1,19,2,4,75,3,1509,1,0.2639276,12.18585,1.214826,-1
18,M,0,1,19,3,4,73,1,2298,2,0.7637173,12.33831,3.439174,-1
18,M,0,1,19,4,3,75,3,1386,0,0.03583912,6.137745,0.3189811,-1
18,M,0,1,19,5,3,74,2,2309,0,0.1931583,6.544254,1.594587,-1
18,M,0,1,19,6,4,76,4,3142,2,0.5203728,12.33097,2.356425,-1
18,M,0,1,19,7,4,74,2,1542,0,0.1513031,12.45399,0.6835691,-1
18,M,0,1,19,8,3,76,4,2753,0,1.205449E-07,6.547071,0,-1
18,M,0,1,20,1,3,79,3,1387,0,1.572147E-07,6.151055,0,-1
18,M,0,1,20,2,3,78,2,1219,0,0.2140034,6.547402,1.777512,-1
18,M,0,1,20,3,4,77,1,1476,0,5.693014E-08,12.40751,0,-1
18,M,0,1,20,4,4,78,2,1209,0,0.4845591,12.44911,2.167266,-1
18,M,0,1,20,5,3,80,4,3142,0,0.1249854,6.580846,1.034197,-1
18,M,0,1,20,6,4,79,3,1520,0,0.3944775,12.20542,1.83291,-1
18,M,0,1,20,7,4,80,4,1154,0,0.2468644,12.33448,1.130731,-1
18,M,0,1,20,8,3,77,1,1420,0,0.3268143,6.268044,2.829715,-1
18,M,0,1,20,1,1,78,2,1409,0,0.0372183,6.53944,0.3090104,-1
18,M,0,1,20,2,1,79,3,1409,0,0.1283405,6.152769,1.14415,-1
18,M,0,1,20,3,1,80,4,2297,0,0.2493872,6.553694,2.05538,-1
18,M,0,1,20,4,1,77,1,1487,0,0.2614718,6.265575,2.305371,-1
18,M,0,1,20,5,2,80,4,1153,0,0.3340119,12.3224,1.529823,-1
18,M,0,1,20,6,2,79,3,1887,1,0.5927702,12.20276,2.691519,-1
18,M,0,1,20,7,2,77,1,1409,0,0.03428946,12.39062,0.1557664,-1
18,M,0,1,20,8,2,78,2,1186,0,0.3534994,12.44563,1.587083,-1
18,M,0,1,21,1,1,84,4,1120,0,0.1844113,6.551775,1.530974,-1
18,M,0,1,21,2,2,81,1,2531,1,0.004039274,12.39487,0.01978234,-1
18,M,0,1,21,3,2,82,2,753,0,0.7801163,12.42899,3.487228,-1
18,M,0,1,21,4,1,81,1,1475,0,0.1641479,6.267186,1.446857,-1
18,M,0,1,21,5,2,83,3,1764,0,0.2731224,12.19162,1.265786,-1
18,M,0,1,21,6,2,84,4,1731,0,3.334421E-07,12.32549,0,-1
18,M,0,1,21,7,1,83,3,1431,0,6.495965E-08,6.15733,0,-1
18,M,0,1,21,8,1,82,2,2020,1,0.02389012,6.540496,0.1988102,-1
18,M,0,1,22,1,2,87,3,1276,0,1.002121,12.19931,4.656147,-1
18,M,0,1,22,2,2,88,4,1242,0,0.03195077,12.32156,0.14537,-1
18,M,0,1,22,3,1,85,1,1298,0,0.1856043,6.263161,1.639247,-1
18,M,0,1,22,4,1,86,2,1165,0,0.3205864,6.534272,2.671224,-1
18,M,0,1,22,5,1,88,4,3409,0,0.01101213,6.55042,0.09065409,-1
18,M,0,1,22,6,2,86,2,875,0,0.539398,12.44236,2.408835,-1
18,M,0,1,22,7,1,87,3,1242,0,2.270931E-08,6.15011,0,-1
18,M,0,1,22,8,2,85,1,1364,0,0.7339218,12.38434,3.347494,-1
18,M,0,1,23,1,2,90,2,1042,0,0.8046466,12.45019,3.676528,-1
18,M,0,1,23,2,2,91,3,1342,0,0.3469602,12.20075,1.598509,-1
18,M,0,1,23,3,2,92,4,2086,1,0.2060283,12.32777,0.9295698,-1
18,M,0,1,23,4,1,89,1,1342,0,1.632631E-07,6.270456,0,-1
18,M,0,1,23,5,1,90,2,1197,0,0.08612067,6.536307,0.7214502,-1
18,M,0,1,23,6,1,91,3,1120,0,0.1546096,6.155206,1.369737,-1
18,M,0,1,23,7,1,92,4,2120,0,0.5266249,6.56084,4.52303,-1
18,M,0,1,23,8,2,89,1,1287,0,0.1339005,12.40144,0.6065179,-1
18,M,0,1,24,1,2,94,2,1053,0,0.736096,12.44853,3.299662,-1
18,M,0,1,24,2,2,96,4,1364,0,0.9580801,12.3286,4.404289,-1
18,M,0,1,24,3,1,94,2,1143,0,0.4174734,6.535837,3.460966,-1
18,M,0,1,24,4,1,95,3,2065,0,0.297061,6.154712,2.617559,-1
18,M,0,1,24,5,2,93,1,1209,0,0.360646,12.39948,1.649719,-1
18,M,0,1,24,6,1,96,4,1920,0,0.4267143,6.549251,3.541271,-1
18,M,0,1,24,7,2,95,3,1776,0,0.7237269,12.19439,3.3622,-1
18,M,0,1,24,8,1,93,1,1631,0,0.01548797,6.263689,0.1356209,-1
18,M,0,1,25,1,1,100,4,2265,0,0.2805712,6.541295,2.329358,-1
18,M,0,1,25,2,1,99,3,1098,0,0.3074442,6.162965,2.732801,-1
18,M,0,1,25,3,2,97,1,1109,0,0.165556,12.38299,0.7548515,-1
18,M,0,1,25,4,1,98,2,1775,0,0.2295223,6.535616,1.891654,-1
18,M,0,1,25,5,2,99,3,1409,0,0.9397275,12.19111,4.368478,-1
18,M,0,1,25,6,1,97,1,1009,0,0.03747331,6.267287,0.3274564,-1
18,M,0,1,25,7,2,98,2,1087,0,0.419513,12.44147,1.883671,-1
18,M,0,1,25,8,2,100,4,1653,1,0.4587744,12.3282,2.058615,-1
18,M,0,1,26,1,1,101,1,1298,0,1.927908E-07,6.262621,0,-1
18,M,0,1,26,2,2,103,3,1087,0,0.6626226,12.19906,3.07689,-1
18,M,0,1,26,3,2,104,4,1320,0,0.8082792,12.32991,3.714255,-1
18,M,0,1,26,4,1,102,2,1065,0,0.2754512,6.53537,2.274602,-1
18,M,0,1,26,5,1,103,3,1265,0,0.08882811,6.145598,0.7905577,-1
18,M,0,1,26,6,2,101,1,1265,0,0.2925957,12.39137,1.325299,-1
18,M,0,1,26,7,1,104,4,3298,0,1.2041E-07,6.555808,0,-1
18,M,0,1,26,8,2,102,2,1276,0,0.2178824,12.43918,0.9783881,-1
18,M,0,1,27,1,1,107,3,1176,0,0.513365,6.143253,4.603726,-1
18,M,0,1,27,2,1,108,4,3098,0,0.4000652,6.552003,3.324311,-1
18,M,0,1,27,3,2,105,1,1109,0,0.9845266,12.38826,4.4466,-1
18,M,0,1,27,4,2,106,2,1087,0,0.1986662,12.44632,0.8945997,-1
18,M,0,1,27,5,2,108,4,1565,0,0.4351454,12.31616,1.993214,-1
18,M,0,1,27,6,2,107,3,2442,1,0.302788,12.19823,1.403745,-1
18,M,0,1,27,7,1,105,1,1598,0,1.749505E-07,6.267437,0,-1
18,M,0,1,27,8,1,106,2,1809,0,0.4554704,6.528854,3.783255,-1
18,M,0,1,28,1,2,112,4,1387,0,0.8094124,12.31351,3.72431,-1
18,M,0,1,28,2,2,110,2,1053,0,0.4728405,12.45011,2.150222,-1
18,M,0,1,28,3,2,109,1,1664,0,1.915133E-07,12.38746,0,-1
18,M,0,1,28,4,1,112,4,1864,0,0.2004473,6.558319,1.654576,-1
18,M,0,1,28,5,1,111,3,1376,0,0.2013778,6.142767,1.795914,-1
18,M,0,1,28,6,1,109,1,1420,0,7.879712E-08,6.27037,0,-1
18,M,0,1,28,7,2,111,3,1153,0,0.1356337,12.19887,0.6249498,-1
18,M,0,1,28,8,1,110,2,1287,0,0.2129504,6.53876,1.755577,-1
18,M,0,1,29,1,2,115,3,1187,0,0.0920954,12.21875,0.4233615,-1
18,M,0,1,29,2,1,114,2,1153,0,0.4211518,6.551909,3.464528,-1
18,M,0,1,29,3,1,113,1,1176,0,0.3037657,6.276635,2.629273,-1
18,M,0,1,29,4,1,116,4,2065,1,0.2546961,6.569066,2.138448,-1
18,M,0,1,29,5,1,115,3,1320,0,0.00381949,6.155484,0.02797646,-1
18,M,0,1,29,6,2,116,4,1176,0,1.042651,12.34632,4.770276,-1
18,M,0,1,29,7,2,113,1,1087,0,0.6532718,12.41457,2.96174,-1
18,M,0,1,29,8,2,114,2,1665,1,0.3963628,12.4656,1.789035,-1
18,M,0,1,30,1,1,119,3,1065,0,0.02492992,6.14905,0.2220564,-1
18,M,0,1,30,2,2,117,1,1142,0,0.4687115,12.40505,2.143019,-1
18,M,0,1,30,3,2,118,2,1042,0,0.7033381,12.45394,3.216254,-1
18,M,0,1,30,4,2,119,3,1020,0,0.6506206,12.21192,3.021159,-1
18,M,0,1,30,5,2,120,4,1676,0,0.9544087,12.332,4.370674,-1
18,M,0,1,30,6,1,117,1,1231,0,0.1622941,6.27805,1.42807,-1
18,M,0,1,30,7,1,118,2,1242,0,0.5426892,6.548967,4.476409,-1
18,M,0,1,30,8,1,120,4,1687,0,0.1329934,6.555831,1.101984,-1
18,M,0,1,31,1,2,123,3,1209,0,0.2491667,12.20959,1.151481,-1
18,M,0,1,31,2,1,122,2,1076,0,0.02547047,6.550119,0.2121421,-1
18,M,0,1,31,3,1,121,1,1120,0,0.305645,6.285213,2.638192,-1
18,M,0,1,31,4,1,124,4,2498,0,0.1860729,6.56154,1.567355,-1
18,M,0,1,31,5,2,121,1,1153,0,0.2179995,12.39982,0.9847674,-1
18,M,0,1,31,6,2,122,2,1809,1,0.6910765,12.46476,3.08534,-1
18,M,0,1,31,7,2,124,4,1420,0,0.3325343,12.33195,1.521614,-1
18,M,0,1,31,8,1,123,3,1176,0,0.1900304,6.15891,1.682955,-1
18,M,0,1,32,1,1,128,4,2665,0,0.1129428,6.563043,0.9354453,-1
18,M,0,1,32,2,2,126,2,1142,0,1.01409,12.44619,4.52316,-1
18,M,0,1,32,3,1,127,3,1431,0,0.01497481,6.153162,0.132704,-1
18,M,0,1,32,4,2,125,1,1276,0,0.2304965,12.40035,1.038917,-1
18,M,0,1,32,5,2,128,4,1631,0,0.5767695,12.33717,2.642417,-1
18,M,0,1,32,6,2,127,3,1520,1,0.05843043,12.2072,0.2676108,-1
18,M,0,1,32,7,1,126,2,1131,0,8.81336E-08,6.548971,0,-1
18,M,0,1,32,8,1,125,1,1154,0,0.02344959,6.281336,0.2046302,-1
18,M,0,1,33,1,2,130,2,765,0,0.6121072,12.45182,2.739097,-1
18,M,0,1,33,2,2,131,3,1276,0,0.6855062,12.21137,3.132004,-1
18,M,0,1,33,3,2,129,1,909,0,0.2814443,12.40443,1.268566,-1
18,M,0,1,33,4,1,130,2,1198,0,0.1721873,6.544153,1.42985,-1
18,M,0,1,33,5,1,131,3,1042,0,0.09726727,6.157052,0.8593453,-1
18,M,0,1,33,6,1,132,4,1531,0,0.224213,6.570764,1.871267,-1
18,M,0,1,33,7,1,129,1,1231,0,0.2212498,6.277588,1.919079,-1
18,M,0,1,33,8,2,132,4,1076,0,0.01591084,12.33822,0.07132626,-1
18,M,0,1,34,1,2,133,1,853,0,1.563929E-07,12.40854,0,-1
18,M,0,1,34,2,1,135,3,1498,0,0.2038716,6.16397,1.812509,-1
18,M,0,1,34,3,2,136,4,998,0,0.9395337,12.34624,4.297603,-1
18,M,0,1,34,4,1,134,2,998,0,0.1110452,6.545083,0.930832,-1
18,M,0,1,34,5,1,133,1,1098,0,0.03026662,6.288291,0.2639296,-1
18,M,0,1,34,6,2,135,3,965,0,0.6705136,12.2119,3.093198,-1
18,M,0,1,34,7,1,136,4,1709,0,0.1723317,6.563152,1.450099,-1
18,M,0,1,34,8,2,134,2,720,0,0.4305607,12.45932,1.936237,-1
18,M,0,1,35,1,1,139,3,2165,1,0.0338241,6.164998,0.2993615,-1
18,M,0,1,35,2,2,137,1,811,0,0.5524373,12.41122,2.474567,-1
18,M,0,1,35,3,1,140,4,1676,0,2.241464E-07,6.569098,0,-1
18,M,0,1,35,4,1,138,2,854,0,0.3064165,6.549717,2.530799,-1
18,M,0,1,35,5,2,140,4,1609,0,0.6191878,12.34082,2.836763,-1
18,M,0,1,35,6,2,139,3,2198,1,0.5400952,12.21012,2.494184,-1
18,M,0,1,35,7,1,137,1,1120,0,0.1947279,6.278397,1.689686,-1
18,M,0,1,35,8,2,138,2,2742,1,0.391633,12.45603,1.779493,-1
18,M,0,1,37,1,3,148,4,2176,0,0.2053057,6.569207,1.727711,-1
18,M,0,1,37,2,3,147,3,2031,0,0.02737406,6.154578,0.2414744,-1
18,M,0,1,37,3,4,148,4,3409,0,0.781753,12.34577,3.552698,-1
18,M,0,1,37,4,4,147,3,1653,0,0.4695514,12.22853,2.176188,-1
18,M,0,1,37,5,4,145,1,1187,0,0.2708198,12.38655,1.238437,-1
18,M,0,1,37,6,4,146,2,1131,0,0.6312968,12.46641,2.862796,-1
18,M,0,1,37,7,3,145,1,2520,0,0.00697718,6.265511,0.06255726,-1
18,M,0,1,37,8,3,146,2,3020,0,0.3226312,6.549066,2.668365,-1
18,M,0,1,38,1,3,151,3,3120,0,0.4562979,6.162201,4.013956,-1
18,M,0,1,38,2,4,152,4,2242,0,0.4158829,12.35133,1.888859,-1
18,M,0,1,38,3,4,151,3,1887,0,0.6645379,12.24245,3.081721,-1
18,M,0,1,38,4,3,149,1,2254,1,0.3526414,6.249115,3.156039,-1
18,M,0,1,38,5,3,150,2,1131,0,0.5436304,6.547054,4.500585,-1
18,M,0,1,38,6,4,149,1,1009,0,0.628315,12.3932,2.86006,-1
18,M,0,1,38,7,3,152,4,2387,1,0.03643554,6.559916,0.3032579,-1
18,M,0,1,38,8,4,150,2,1253,0,1.389445E-07,12.45613,0,-1
18,M,0,1,39,1,4,155,3,2087,0,0.9010109,12.20283,4.184275,-1
18,M,0,1,39,2,3,153,1,1442,0,5.297033E-08,6.238424,0,-1
18,M,0,1,39,3,3,156,4,1409,0,0.2454585,6.553166,2.076034,-1
18,M,0,1,39,4,4,153,1,1220,0,0.4100515,12.39426,1.862251,-1
18,M,0,1,39,5,3,154,2,2153,0,2.056401E-07,6.54189,0,-1
18,M,0,1,39,6,3,155,3,3276,0,0.00284104,6.172519,0.01978234,-1
18,M,0,1,39,7,4,156,4,2387,0,0.9948907,12.331,4.567975,-1
18,M,0,1,39,8,4,154,2,1420,0,0.6400577,12.45136,2.925898,-1
18,M,0,1,40,1,4,157,1,1320,0,0.4229214,12.3867,1.922136,-1
18,M,0,1,40,2,4,160,4,2531,1,0.911361,12.33262,4.183152,-1
18,M,0,1,40,3,3,158,2,1198,0,0.3007932,6.538798,2.478282,-1
18,M,0,1,40,4,3,159,3,2976,0,0.09399278,6.164937,0.8315719,-1
18,M,0,1,40,5,3,157,1,1420,0,0.1336782,6.245293,1.166675,-1
18,M,0,1,40,6,4,158,2,1542,1,0.5896032,12.44082,2.65918,-1
18,M,0,1,40,7,4,159,3,1965,0,0.7969592,12.22315,3.692524,-1
18,M,0,1,40,8,3,160,4,1365,0,0.09314436,6.564393,0.7795909,-1
18,M,0,1,41,1,2,163,3,1065,0,3.972648E-08,12.21695,0,-1
18,M,0,1,41,2,2,162,2,998,0,0.1820233,12.45215,0.81781,-1
18,M,0,1,41,3,1,164,4,2365,1,4.147E-08,6.56038,0,-1
18,M,0,1,41,4,1,161,1,1398,0,0.5192757,6.259944,4.631174,-1
18,M,0,1,41,5,1,163,3,1153,0,0.05642147,6.147715,0.5020211,-1
18,M,0,1,41,6,2,164,4,1364,0,0.7339812,12.32762,3.363946,-1
18,M,0,1,41,7,2,161,1,920,0,0.5556536,12.39424,2.543606,-1
18,M,0,1,41,8,1,162,2,1153,0,0.2919491,6.535322,2.432848,-1
18,M,0,1,42,1,2,165,1,2942,0,0.7742481,12.38752,3.476094,-1
18,M,0,1,42,2,2,166,2,1209,0,0.3066614,12.44515,1.37743,-1
18,M,0,1,42,3,1,165,1,2854,0,0.08897632,6.253248,0.7798419,-1
18,M,0,1,42,4,1,166,2,1842,1,0.04107758,6.528923,0.3420692,-1
18,M,0,1,42,5,2,167,3,1676,0,0.692875,12.19044,3.216133,-1
18,M,0,1,42,6,1,168,4,1776,0,0.1242262,6.553242,1.029836,-1
18,M,0,1,42,7,1,167,3,1198,0,0.003165611,6.150827,0.02797646,-1
18,M,0,1,42,8,2,168,4,2053,0,0.7301399,12.3257,3.333898,-1
18,M,0,1,43,1,2,170,2,931,0,0.5559071,12.45426,2.503428,-1
18,M,0,1,43,2,2,171,3,1264,0,0.4768478,12.18869,2.215584,-1
18,M,0,1,43,3,2,169,1,1320,0,0.0185108,12.38693,0.08392937,-1
18,M,0,1,43,4,1,172,4,2187,0,0.217206,6.558289,1.809484,-1
18,M,0,1,43,5,1,170,2,1487,0,0.2029243,6.533092,1.689223,-1
18,M,0,1,43,6,2,172,4,1509,0,0.2957783,12.32971,1.355808,-1
18,M,0,1,43,7,1,171,3,1531,0,1.486713E-07,6.143874,0,-1
18,M,0,1,43,8,1,169,1,1365,0,0.1804589,6.258702,1.594096,-1
18,M,0,1,44,1,1,176,4,1987,0,0.07914666,6.558101,0.6617518,-1
18,M,0,1,44,2,1,175,3,2042,0,1.883293E-07,6.150874,0,-1
18,M,0,1,44,3,1,173,1,1531,0,0.1892743,6.260199,1.663776,-1
18,M,0,1,44,4,2,174,2,1298,0,0.5326012,12.46175,2.407047,-1
18,M,0,1,44,5,2,176,4,2109,1,0.1014735,12.33052,0.4601268,-1
18,M,0,1,44,6,1,174,2,1153,0,0.3063255,6.538599,2.533659,-1
18,M,0,1,44,7,2,175,3,1387,0,0.8711764,12.20329,4.045398,-1
18,M,0,1,44,8,2,173,1,1264,0,0.3654555,12.38938,1.661539,-1
18,M,0,1,45,1,2,180,4,1298,0,6.303426E-08,12.3387,0,-1
18,M,0,1,45,2,2,178,2,1042,0,0.006395944,12.45331,0.01978234,-1
18,M,0,1,45,3,1,179,3,1309,0,2.377518E-07,6.145611,0,-1
18,M,0,1,45,4,2,177,1,820,0,0.5871762,12.39959,2.654464,-1
18,M,0,1,45,5,1,180,4,2020,0,0.2512674,6.55618,2.069803,-1
18,M,0,1,45,6,2,179,3,2231,1,0.1647736,12.20728,0.7538139,-1
18,M,0,1,45,7,1,177,1,1453,0,0.5250638,6.269248,4.687343,-1
18,M,0,1,45,8,1,178,2,909,0,1.37626E-08,6.540779,0,-1
18,M,0,1,46,1,1,184,4,1131,0,0.4361551,6.55423,3.673065,-1
18,M,0,1,46,2,2,181,1,909,0,0.5399405,12.39646,2.428822,-1
18,M,0,1,46,3,2,184,4,1587,0,0.5399541,12.33024,2.473459,-1
18,M,0,1,46,4,1,183,3,2476,0,0.2448269,6.16072,2.156312,-1
18,M,0,1,46,5,1,181,1,1720,1,0.04755564,6.27481,0.4149588,-1
18,M,0,1,46,6,1,182,2,1876,1,0.1512068,6.540565,1.248508,-1
18,M,0,1,46,7,2,183,3,1131,0,0.06292723,12.20269,0.2880355,-1
18,M,0,1,46,8,2,182,2,1231,0,0.5511765,12.46625,2.508504,-1
18,M,0,1,47,1,2,187,3,1120,0,0.1356488,12.20516,0.6230683,-1
18,M,0,1,47,2,2,185,1,898,0,0.04044309,12.39983,0.1823843,-1
18,M,0,1,47,3,1,187,3,1376,0,0.09258613,6.164319,0.814213,-1
18,M,0,1,47,4,2,186,2,1031,0,0.3054225,12.45792,1.374585,-1
18,M,0,1,47,5,2,188,4,976,0,0.5556627,12.33449,2.551213,-1
18,M,0,1,47,6,1,186,2,1153,0,0.4429396,6.535093,3.684987,-1
18,M,0,1,47,7,1,188,4,1476,0,0.1876871,6.567365,1.580163,-1
18,M,0,1,47,8,1,185,1,1265,0,0.3303661,6.264367,2.940048,-1
18,M,0,1,48,1,1,190,2,1098,0,0.0204737,6.541217,0.1701742,-1
18,M,0,1,48,2,1,192,4,1631,0,0.3543809,6.553818,2.95035,-1
18,M,0,1,48,3,1,191,3,1298,0,0.0215842,6.165249,0.1887116,-1
18,M,0,1,48,4,2,189,1,1065,0,0.499227,12.40584,2.237821,-1
18,M,0,1,48,5,2,192,4,1664,0,0.1733964,12.34292,0.7910526,-1
18,M,0,1,48,6,2,191,3,1431,0,0.7828437,12.19702,3.63642,-1
18,M,0,1,48,7,2,190,2,1209,0,0.5981197,12.46083,2.688826,-1
18,M,0,1,48,8,1,189,1,1165,0,0.133463,6.279138,1.160284,-1
18,M,0,1,49,1,2,195,3,1209,0,0.4469881,12.21198,2.077448,-1
18,M,0,1,49,2,1,193,1,1109,0,0.07154375,6.278565,0.6233823,-1
18,M,0,1,49,3,1,194,2,976,0,0.09094229,6.527975,0.758472,-1
18,M,0,1,49,4,2,196,4,1231,0,0.9063165,12.33492,4.163818,-1
18,M,0,1,49,5,2,193,1,953,0,0.3258248,12.39327,1.469803,-1
18,M,0,1,49,6,1,195,3,1176,0,0.02554161,6.15064,0.2264194,-1
18,M,0,1,49,7,1,196,4,1465,0,0.146697,6.565593,1.232259,-1
18,M,0,1,49,8,2,194,2,820,0,0.379737,12.44821,1.702264,-1
18,M,0,1,50,1,1,200,4,1565,0,0.06595525,6.556183,0.5482264,-1
18,M,0,1,50,2,1,197,1,1109,0,0.05261891,6.285549,0.4588492,-1
18,M,0,1,50,3,1,198,2,931,0,0.1192375,6.542926,0.9875455,-1
18,M,0,1,50,4,2,197,1,854,0,0.9979549,12.40406,4.476716,-1
18,M,0,1,50,5,1,199,3,987,0,0.3337157,6.17104,2.992579,-1
18,M,0,1,50,6,2,200,4,1198,0,0.6829807,12.33816,3.135814,-1
18,M,0,1,50,7,2,198,2,842,0,0.5207247,12.46066,2.335735,-1
18,M,0,1,50,8,2,199,3,1554,0,0.953059,12.20667,4.425008,-1
18,M,0,1,51,1,1,202,2,1031,0,0.1193167,6.545749,1.000342,-1
18,M,0,1,51,2,2,201,1,865,0,0.3001156,12.38696,1.353207,-1
18,M,0,1,51,3,1,204,4,1342,0,0.1855014,6.574562,1.55972,-1
18,M,0,1,51,4,2,202,2,920,0,1.833969E-07,12.45716,0,-1
18,M,0,1,51,5,1,201,1,1354,0,0.3560232,6.280221,3.069181,-1
18,M,0,1,51,6,1,203,3,1842,1,0.2505021,6.151067,2.241928,-1
18,M,0,1,51,7,2,204,4,1809,0,0.9758688,12.33865,4.478816,-1
18,M,0,1,51,8,2,203,3,965,0,0.6744176,12.20539,3.130128,-1
18,M,0,1,52,1,2,205,1,1520,0,0.4680933,12.38906,2.103289,-1
18,M,0,1,52,2,2,208,4,1420,0,0.2484041,12.33891,1.130212,-1
18,M,0,1,52,3,2,206,2,1076,0,0.07251003,12.44843,0.3256589,-1
18,M,0,1,52,4,1,208,4,1731,0,0.4231698,6.563529,3.626013,-1
18,M,0,1,52,5,1,207,3,1143,0,0.06751417,6.158297,0.6010084,-1
18,M,0,1,52,6,1,205,1,1020,0,0.1029311,6.260952,0.8980926,-1
18,M,0,1,52,7,2,207,3,1020,0,0.487321,12.20265,2.261659,-1
18,M,0,1,52,8,1,206,2,1365,0,0.4112517,6.53075,3.403696,-1
18,M,0,1,53,1,1,211,3,909,0,0.1439718,6.142319,1.282069,-1
18,M,0,1,53,2,2,212,4,920,0,1.006133,12.3168,4.616728,-1
18,M,0,1,53,3,2,210,2,1042,0,0.6474056,12.42431,2.950814,-1
18,M,0,1,53,4,2,211,3,1053,0,1.031954,12.18356,4.800814,-1
18,M,0,1,53,5,1,209,1,920,0,8.774126E-08,6.224988,0,-1
18,M,0,1,53,6,1,212,4,998,0,0.0826477,6.550264,0.6929511,-1
18,M,0,1,53,7,2,209,1,3309,0,0.5746569,12.34306,2.641454,-1
18,M,0,1,53,8,1,210,2,942,0,0.2211937,6.492687,1.851606,-1
18,M,0,1,54,1,1,215,3,1354,0,1.060976E-07,6.141,0.01978234,-1
18,M,0,1,54,2,2,214,2,731,0,0.2410015,12.42878,1.084081,-1
18,M,0,1,54,3,1,213,1,1153,0,0.1661082,6.255266,1.447668,-1
18,M,0,1,54,4,2,215,3,1309,0,0.1036007,12.20484,0.4768338,-1
18,M,0,1,54,5,2,216,4,1631,0,0.6994276,12.32641,3.209674,-1
18,M,0,1,54,6,1,214,2,954,0,0.01774688,6.508515,0.1493534,-1
18,M,0,1,54,7,2,213,1,920,0,0.4660087,12.36254,2.122924,-1
18,M,0,1,54,8,1,216,4,1587,0,0.08497112,6.547938,0.7074825,-1
18,M,0,1,55,1,2,217,1,1176,0,0.4253664,12.36535,1.926204,-1
18,M,0,1,55,2,1,219,3,1865,0,0.008398585,6.132368,0.07661668,-1
18,M,0,1,55,3,1,220,4,2242,0,0.124544,6.544549,1.033819,-1
18,M,0,1,55,4,2,218,2,1242,0,0.1672016,12.42262,0.7522548,-1
18,M,0,1,55,5,1,217,1,1187,0,0.5128824,6.263745,4.459663,-1
18,M,0,1,55,6,1,218,2,898,0,6.341001E-08,6.507644,0,-1
18,M,0,1,55,7,2,219,3,1165,0,0.8191031,12.18712,3.807863,-1
18,M,0,1,55,8,2,220,4,1387,0,0.6059504,12.31768,2.747018,-1
18,M,0,1,56,1,1,223,3,1464,1,0.30052,6.136839,2.627561,-1
18,M,0,1,56,2,1,221,1,1187,0,0.2184717,6.236745,1.940276,-1
18,M,0,1,56,3,2,222,2,876,0,0.2524924,12.42221,1.14415,-1
18,M,0,1,56,4,2,223,3,1598,1,0.3984067,12.18915,1.816715,-1
18,M,0,1,56,5,2,221,1,1042,0,0.6973912,12.36399,3.184691,-1
18,M,0,1,56,6,2,224,4,1120,0,0.7656789,12.31872,3.472431,-1
18,M,0,1,56,7,1,222,2,898,0,0.1586399,6.501049,1.327659,-1
18,M,0,1,56,8,1,224,4,1920,0,0.005691332,6.544066,0.04423466,-1
18,M,0,1,57,1,3,226,2,1065,0,0.1888704,6.510433,1.581153,-1
18,M,0,1,57,2,3,228,4,1709,0,0.2573902,6.535054,2.122832,-1
18,M,0,1,57,3,4,227,3,1298,0,0.8254032,12.2052,3.828275,-1
18,M,0,1,57,4,4,225,1,1009,0,0.3823714,12.34282,1.739901,-1
18,M,0,1,57,5,4,226,2,1076,0,0.1196408,12.43993,0.5388666,-1
18,M,0,1,57,6,3,227,3,1798,0,0.2513322,6.136473,2.262697,-1
18,M,0,1,57,7,4,228,4,1620,0,0.9958758,12.31609,4.522511,-1
18,M,0,1,57,8,3,225,1,2176,1,0.04028849,6.229202,0.3538778,-1
18,M,0,1,58,1,3,231,3,1620,0,0.01882945,6.138112,0.166689,-1
18,M,0,1,58,2,4,232,4,1509,0,0.3584745,12.34498,1.639247,-1
18,M,0,1,58,3,3,229,1,1276,0,3.865351E-08,6.241429,0,-1
18,M,0,1,58,4,4,231,3,1320,0,0.4683083,12.19076,2.163742,-1
18,M,0,1,58,5,4,230,2,1098,0,0.4197375,12.43684,1.888652,-1
18,M,0,1,58,6,4,229,1,1931,1,0.888509,12.35027,4.002914,-1
18,M,0,1,58,7,3,230,2,1809,0,2.886302E-07,6.517135,0,-1
18,M,0,1,58,8,3,232,4,2631,1,0.2466799,6.560982,2.034613,-1
18,M,0,1,59,1,3,235,3,1553,0,1.005251E-07,6.158168,0,-1
18,M,0,1,59,2,4,234,2,1076,0,1.025166E-07,12.41906,0,-1
18,M,0,1,59,3,4,235,3,1520,1,0.1474289,12.18989,0.6749268,-1
18,M,0,1,59,4,3,233,1,1965,0,7.952958E-08,6.224247,0,-1
18,M,0,1,59,5,4,236,4,1565,0,0.1952536,12.33313,0.8858072,-1
18,M,0,1,59,6,4,233,1,1387,0,0.834354,12.35658,3.832519,-1
18,M,0,1,59,7,3,234,2,1520,0,0.2205365,6.499069,1.843981,-1
18,M,0,1,59,8,3,236,4,2176,2,9.557236E-08,6.544786,0.01978234,-1
18,M,0,1,60,1,4,238,2,6142,3,0.3145674,12.42475,1.418307,-1
18,M,0,1,60,2,4,239,3,1642,0,0.3936811,12.18805,1.817685,-1
18,M,0,1,60,3,3,238,2,2576,0,0.1060867,6.505813,0.8895546,-1
18,M,0,1,60,4,3,239,3,2298,0,0.2198895,6.159835,1.92661,-1
18,M,0,1,60,5,3,237,1,909,0,0.2621188,6.223478,2.341008,-1
18,M,0,1,60,6,3,240,4,1798,0,0.2283472,6.545367,1.892172,-1
18,M,0,1,60,7,4,237,1,1209,0,0.7472099,12.32176,3.441792,-1
18,M,0,1,60,8,4,240,4,2765,0,9.283765E-08,12.32631,0,-1
18,M,0,1,61,1,1,241,1,1687,0,0.1809245,6.226348,1.606569,-1
18,M,0,1,61,2,2,242,2,953,0,0.07248271,12.40294,0.3274564,-1
18,M,0,1,61,3,2,243,3,1565,1,0.5145013,12.17557,2.344851,-1
18,M,0,1,61,4,2,244,4,1520,0,0.3863068,12.29327,1.76824,-1
18,M,0,1,61,5,2,241,1,1231,0,0.005519965,12.35217,0.02797646,-1
18,M,0,1,61,6,1,243,3,1120,0,0.2504212,6.146863,2.210011,-1
18,M,0,1,61,7,1,242,2,1565,0,0.341003,6.477971,2.866077,-1
18,M,0,1,61,8,1,244,4,2054,0,0.3200053,6.535696,2.731583,-1
18,M,0,1,62,1,2,246,2,820,0,0.3547946,12.40443,1.601689,-1
18,M,0,1,62,2,2,245,1,1309,0,0.3248995,12.33784,1.481209,-1
18,M,0,1,62,3,1,248,4,2676,0,6.753844E-08,6.540974,0,-1
18,M,0,1,62,4,1,247,3,1209,0,1.185061E-07,6.142432,0,-1
18,M,0,1,62,5,2,248,4,1120,0,0.3956033,12.32191,1.8179,-1
18,M,0,1,62,6,2,247,3,976,0,0.2858061,12.17657,1.32648,-1
18,M,0,1,62,7,1,246,2,854,0,0.1688305,6.488805,1.416374,-1
18,M,0,1,62,8,1,245,1,1208,0,0.1267957,6.221202,1.123613,-1
18,M,0,1,1,1,5,4,4,2785,0,1.543638,6.529863,12.859,-1
18,M,0,1,1,2,8,2,2,2653,0,6.361857,12.38309,30.72471,-1
18,M,0,1,1,3,5,3,3,2631,0,1.391356,6.146313,12.71988,-1
18,M,0,1,1,4,8,1,1,2398,0,6.891174,12.33658,33.95309,-1
18,M,0,1,1,5,6,3,3,2309,0,4.615893,12.21439,21.97878,-1
18,M,0,1,1,6,6,4,4,2109,0,8.687743,12.33241,44.78629,-1
18,M,0,1,1,7,8,3,3,2153,0,5.492616,12.1868,26.72376,-1
18,M,0,1,1,8,6,2,2,2709,0,1.368519,12.41751,6.120677,-1
18,M,0,1,1,9,7,1,1,2131,0,4.650495,6.287396,47.70191,-1
18,M,0,1,1,10,5,2,2,1431,0,0.4537067,6.493707,3.8056,-1
18,M,0,1,1,11,8,4,4,1320,0,3.306442,12.34995,15.48053,-1
18,M,0,1,1,12,5,1,1,6053,0,2.254252,6.270728,21.06877,-1
18,M,0,1,1,13,7,4,4,3053,0,3.472976,6.53123,31.44032,-1
18,M,0,1,1,14,7,3,3,2353,0,3.950159,6.215948,39.45617,-1
18,M,0,1,1,15,6,1,1,1575,0,4.594243,12.38832,21.76361,-1
18,M,0,1,1,16,7,2,2,1820,0,1.069382,6.496045,9.03618,-1
18,M,0,1,2,1,7,3,3,1920,0,5.143974,6.226093,55.70994,-1
18,M,0,1,2,2,7,1,1,3676,0,4.833562,6.278719,50.33884,-1
18,M,0,1,2,3,6,2,2,2409,0,5.160519,12.40438,24.58383,-1
18,M,0,1,2,4,8,1,1,1431,0,3.30469,12.34522,15.10501,-1
18,M,0,1,2,5,5,4,4,2442,0,2.442282,6.526418,20.72158,-1
18,M,0,1,2,6,6,1,1,3720,0,1.264772,12.34641,5.712373,-1
18,M,0,1,2,7,8,2,2,1776,0,0.5856519,12.40764,2.629124,-1
18,M,0,1,2,8,8,4,4,5353,0,4.068199,12.31125,19.01726,-1
18,M,0,1,2,9,8,3,3,5564,0,6.866127,12.21923,34.18808,-1
18,M,0,1,2,10,6,4,4,1498,0,6.34919,12.32424,30.88317,-1
18,M,0,1,2,11,5,3,3,1831,0,4.084593,6.179291,41.37719,-1
18,M,0,1,2,12,7,2,2,2531,0,4.576081,6.497272,44.77367,-1
18,M,0,1,2,13,7,4,4,1165,0,4.214972,6.554959,40.01741,-1
18,M,0,1,2,14,5,1,1,4831,0,1.484705,6.246202,13.31131,-1
18,M,0,1,2,15,5,2,2,2542,0,4.094596,6.493349,37.85361,-1
18,M,0,1,2,16,6,3,3,1786,0,4.679201,12.20929,22.30527,-1
