Age, Gender, Awareness Type, Session, Block, Trial, Set, Pattern, Quadrant, Response Time, Num Mistakes, Distance From Target, Camera Distance From Target, Angle Error (Degrees), FC Response
19,F,0,1,1,1,2,4,4,2020,0,0.3538384,12.3472,1.618099,-1
19,F,0,1,1,2,1,3,3,2398,0,0.0605918,6.094839,0.5475121,-1
19,F,0,1,1,3,2,1,1,9999,0,-1,-1,-1,-1
19,F,0,1,1,4,2,2,2,9999,0,-1,-1,-1,-1
19,F,0,1,1,5,1,1,1,1498,0,0.006997151,6.278417,0.05595291,-1
19,F,0,1,1,6,1,4,4,3476,0,0.02386226,6.477321,0.2017412,-1
19,F,0,1,1,7,1,2,2,1365,0,0.374523,6.365695,3.227738,-1
19,F,0,1,1,8,2,3,3,3020,0,0.3948212,12.15156,1.834084,-1
19,F,0,1,2,1,2,5,1,2631,0,1.030267E-07,12.15397,0,-1
19,F,0,1,2,2,2,6,2,1887,0,1.093409E-07,12.26357,0,-1
19,F,0,1,2,3,1,7,3,2742,0,0.1729439,6.054843,1.586343,-1
19,F,0,1,2,4,1,5,1,1476,0,0.2114951,6.270082,1.85899,-1
19,F,0,1,2,5,2,8,4,3353,0,0.8445578,12.29055,3.873077,-1
19,F,0,1,2,6,2,7,3,2531,0,0.469848,12.15184,2.182654,-1
19,F,0,1,2,7,1,6,2,1887,0,1.587354E-07,6.367192,0,-1
19,F,0,1,2,8,1,8,4,3020,0,0.1830105,6.469866,1.534294,-1
19,F,0,1,3,1,1,9,1,1420,0,0.2859447,6.268768,2.514428,-1
19,F,0,1,3,2,1,11,3,2564,0,0.2316837,6.043319,2.136892,-1
19,F,0,1,3,3,1,12,4,2498,0,0.1226099,6.466722,1.034765,-1
19,F,0,1,3,4,2,11,3,1608,0,0.6310798,12.14498,2.934316,-1
19,F,0,1,3,5,2,10,2,1020,0,0.54995,12.25795,2.545298,-1
19,F,0,1,3,6,2,9,1,2242,0,0.762934,12.14477,3.513852,-1
19,F,0,1,3,7,2,12,4,1220,0,0.2979562,12.2809,1.374016,-1
19,F,0,1,3,8,1,10,2,2731,1,1.350073E-07,6.355812,0,-1
19,F,0,1,4,1,1,15,3,2109,0,0.1640678,6.048869,1.482134,-1
19,F,0,1,4,2,1,13,1,1464,0,0.2619588,6.264134,2.304183,-1
19,F,0,1,4,3,2,15,3,2186,0,0.5945438,12.13495,2.766474,-1
19,F,0,1,4,4,1,16,4,3209,0,3.728399E-08,6.467155,0,-1
19,F,0,1,4,5,1,14,2,1476,0,2.454785E-08,6.354475,0,-1
19,F,0,1,4,6,2,16,4,2731,0,0.2184717,12.27636,0.9962258,-1
19,F,0,1,4,7,2,14,2,953,0,0.5717459,12.24603,2.600077,-1
19,F,0,1,4,8,2,13,1,1809,0,0.9194928,12.14217,4.238591,-1
19,F,0,1,5,1,2,18,2,942,0,0.4728535,12.29974,2.159849,-1
19,F,0,1,5,2,1,19,3,3353,1,0.1335402,6.097305,1.20561,-1
19,F,0,1,5,3,2,20,4,2253,0,0.04646922,12.32662,0.2112177,-1
19,F,0,1,5,4,1,18,2,4242,0,0.428383,6.376924,3.65768,-1
19,F,0,1,5,5,1,17,1,1454,0,0.4642175,6.290749,4.068279,-1
19,F,0,1,5,6,2,19,3,1842,0,0.6343579,12.18584,2.914099,-1
19,F,0,1,5,7,1,20,4,2542,0,0.2096558,6.493524,1.75502,-1
19,F,0,1,5,8,2,17,1,1342,0,0.5861389,12.18515,2.693627,-1
19,F,0,1,6,1,1,23,3,2220,0,0.3540562,6.089245,3.176505,-1
19,F,0,1,6,2,1,24,4,4065,0,0.4986234,6.501401,4.203142,-1
19,F,0,1,6,3,2,21,1,3386,0,0.887887,12.16933,4.144017,-1
19,F,0,1,6,4,2,22,2,909,0,0.5120035,12.26774,2.323469,-1
19,F,0,1,6,5,2,23,3,2620,0,0.2769749,12.16648,1.282069,-1
19,F,0,1,6,6,2,24,4,1354,0,0.4555419,12.30782,2.065165,-1
19,F,0,1,6,7,1,22,2,3187,0,0.4800135,6.367787,4.071888,-1
19,F,0,1,6,8,1,21,1,2142,1,0.05000905,6.274605,0.4383485,-1
19,F,0,1,7,1,2,26,2,1475,0,2.725779E-07,12.27254,0.01978234,-1
19,F,0,1,7,2,1,28,4,1676,0,0.4050428,6.483973,3.450258,-1
19,F,0,1,7,3,2,25,1,1742,0,0.6559236,12.1687,3.053386,-1
19,F,0,1,7,4,2,27,3,2442,0,0.1869952,12.16935,0.8598006,-1
19,F,0,1,7,5,2,28,4,1331,0,0.319643,12.3051,1.449289,-1
19,F,0,1,7,6,1,25,1,3421,1,0.4802761,6.269525,4.225402,-1
19,F,0,1,7,7,1,26,2,2398,1,0.01764521,6.363985,0.1506579,-1
19,F,0,1,7,8,1,27,3,1965,0,0.07214294,6.073081,0.6510199,-1
19,F,0,1,8,1,1,32,4,2120,1,0.05626547,6.488544,0.4776538,-1
19,F,0,1,8,2,2,31,3,1820,0,0.6747625,12.17033,3.104191,-1
19,F,0,1,8,3,1,30,2,3387,2,0.01281179,6.359884,0.1101434,-1
19,F,0,1,8,4,1,29,1,1686,0,0.09729023,6.274163,0.8545501,-1
19,F,0,1,8,5,1,31,3,1721,0,5.635091E-08,6.073097,0,-1
19,F,0,1,8,6,2,30,2,764,0,0.304462,12.26525,1.386492,-1
19,F,0,1,8,7,2,29,1,2909,0,0.8307071,12.16844,3.834766,-1
19,F,0,1,8,8,2,32,4,3409,0,0.5772298,12.30364,2.643232,-1
19,F,0,1,9,1,1,35,3,2242,0,0.3518785,6.191445,3.107846,-1
19,F,0,1,9,2,1,34,2,2842,1,0.5023802,6.437858,4.347625,-1
19,F,0,1,9,3,2,33,1,3098,0,0.06267633,12.25732,0.2880355,-1
19,F,0,1,9,4,1,36,4,1864,0,0.4861934,6.563525,4.11504,-1
19,F,0,1,9,5,2,35,3,2553,0,0.6018605,12.26472,2.771775,-1
19,F,0,1,9,6,1,33,1,1976,1,0.3623839,6.346955,3.14697,-1
19,F,0,1,9,7,2,34,2,9999,0,-1,-1,-1,-1
19,F,0,1,9,8,2,36,4,4919,0,0.0494539,12.40331,0.2238118,-1
19,F,0,1,10,1,2,37,1,2320,1,0.2208379,12.25006,1.017218,-1
19,F,0,1,10,2,1,38,2,3931,1,0.293893,6.424618,2.475516,-1
19,F,0,1,10,3,1,39,3,2309,1,0.1215855,6.16069,1.08137,-1
19,F,0,1,10,4,2,38,2,1009,0,0.1563122,12.35357,0.7080355,-1
19,F,0,1,10,5,2,39,3,2565,1,0.4661995,12.2586,2.145027,-1
19,F,0,1,10,6,2,40,4,1342,0,0.1391924,12.3964,0.6274496,-1
19,F,0,1,10,7,1,37,1,1864,0,0.5252446,6.333915,4.572818,-1
19,F,0,1,10,8,1,40,4,2131,0,0.136712,6.566375,1.134187,-1
19,F,0,1,11,1,2,43,3,1864,0,0.174459,12.25907,0.8011303,-1
19,F,0,1,11,2,1,41,1,1720,0,0.4119473,6.340284,3.58146,-1
19,F,0,1,11,3,1,42,2,1454,0,0.1516549,6.421366,1.286031,-1
19,F,0,1,11,4,1,44,4,1842,0,0.1326607,6.55832,1.107652,-1
19,F,0,1,11,5,2,42,2,1076,0,0.06965,12.35188,0.315899,-1
19,F,0,1,11,6,2,44,4,2798,0,0.2664788,12.39799,1.2116,-1
19,F,0,1,11,7,1,43,3,2309,0,0.07800328,6.162973,0.6937978,-1
19,F,0,1,11,8,2,41,1,1453,0,0.1880679,12.23229,0.8697567,-1
19,F,0,1,12,1,2,47,3,1487,0,0.03270979,12.25095,0.1519511,-1
19,F,0,1,12,2,1,46,2,4075,1,0.5387771,6.42145,4.544717,-1
19,F,0,1,12,3,1,47,3,2708,1,0.4482933,6.163934,3.975818,-1
19,F,0,1,12,4,2,45,1,6753,0,0.6806189,12.24448,3.132441,-1
19,F,0,1,12,5,2,48,4,2543,0,0.03219764,12.3891,0.14537,-1
19,F,0,1,12,6,2,46,2,842,0,0.2132662,12.34134,0.9663135,-1
19,F,0,1,12,7,1,45,1,5820,4,0.3964378,6.312425,3.462606,-1
19,F,0,1,12,8,1,48,4,2109,0,0.08998075,6.557174,0.7483428,-1
19,F,0,1,13,1,1,49,1,1909,1,0.5182418,6.33975,4.509368,-1
19,F,0,1,13,2,1,52,4,1476,0,0.282557,6.563952,2.355179,-1
19,F,0,1,13,3,1,51,3,1698,0,0.08272201,6.169094,0.7401926,-1
19,F,0,1,13,4,2,50,2,898,0,0.3352201,12.35741,1.521357,-1
19,F,0,1,13,5,2,49,1,1309,0,0.418577,12.25325,1.913257,-1
19,F,0,1,13,6,1,50,2,3842,1,0.222951,6.422471,1.903618,-1
19,F,0,1,13,7,2,51,3,2176,0,0.004944646,12.26004,0.01978234,-1
19,F,0,1,13,8,2,52,4,1586,0,0.4098588,12.39458,1.848962,-1
19,F,0,1,14,1,2,54,2,1042,0,0.2566377,12.35786,1.163316,-1
19,F,0,1,14,2,1,53,1,1865,0,0.5414233,6.343295,4.707193,-1
19,F,0,1,14,3,2,56,4,3353,0,2.151608E-07,12.39832,0,-1
19,F,0,1,14,4,2,55,3,1787,0,1.31627E-07,12.26127,0,-1
19,F,0,1,14,5,2,53,1,1742,1,0.2014003,12.25428,0.9274623,-1
19,F,0,1,14,6,1,55,3,1631,0,0.3633073,6.170041,3.229194,-1
19,F,0,1,14,7,1,56,4,1531,0,0.5333929,6.557173,4.495839,-1
19,F,0,1,14,8,1,54,2,1176,0,0.330137,6.428598,2.804143,-1
19,F,0,1,15,1,2,57,1,1709,0,0.8172547,12.25089,3.733814,-1
19,F,0,1,15,2,2,60,4,2309,0,0.5434162,12.38983,2.486167,-1
19,F,0,1,15,3,1,58,2,1998,1,0.2482507,6.428818,2.099936,-1
19,F,0,1,15,4,1,59,3,1965,0,0.06862989,6.163882,0.6110179,-1
19,F,0,1,15,5,1,60,4,1753,0,0.1133607,6.565836,0.9532654,-1
19,F,0,1,15,6,2,59,3,2276,0,0.6670192,12.25237,3.074916,-1
19,F,0,1,15,7,2,58,2,9999,0,-1,-1,-1,-1
19,F,0,1,15,8,1,57,1,1209,0,0.218835,6.348744,1.899604,-1
19,F,0,1,16,1,2,64,4,3498,0,0.1862691,12.39108,0.848345,-1
19,F,0,1,16,2,2,63,3,2020,1,0.5440106,12.25292,2.507256,-1
19,F,0,1,16,3,1,62,2,1409,0,0.4069173,6.426069,3.467522,-1
19,F,0,1,16,4,2,61,1,1609,0,0.1171783,12.24574,0.5392296,-1
19,F,0,1,16,5,1,64,4,2064,0,0.1731827,6.556021,1.438991,-1
19,F,0,1,16,6,1,63,3,2286,0,0.2250189,6.170795,2.001347,-1
19,F,0,1,16,7,1,61,1,1476,0,0.3033765,6.335166,2.639453,-1
19,F,0,1,16,8,2,62,2,853,0,0.6037719,12.34661,2.726993,-1
19,F,0,1,17,1,4,67,3,3231,0,0.7297047,12.22741,3.376553,-1
19,F,0,1,17,2,4,66,2,9999,0,-1,-1,-1,-1
19,F,0,1,17,3,3,68,4,3331,0,0.4899164,6.550343,4.153835,-1
19,F,0,1,17,4,3,65,1,1909,1,0.2538795,6.293016,2.200604,-1
19,F,0,1,17,5,3,66,2,2264,0,0.215008,6.400681,1.842813,-1
19,F,0,1,17,6,4,68,4,1453,0,0.3299044,12.38326,1.502069,-1
19,F,0,1,17,7,3,67,3,9999,0,-1,-1,-1,-1
19,F,0,1,17,8,4,65,1,7420,1,0.1325789,12.22394,0.6106976,-1
19,F,0,1,18,1,3,71,3,3354,1,0.1691223,6.124302,1.531868,-1
19,F,0,1,18,2,3,72,4,2887,0,1.28886E-07,6.544061,0,-1
19,F,0,1,18,3,4,70,2,1231,0,0.2408867,12.36526,1.097357,-1
19,F,0,1,18,4,3,69,1,1653,0,0.2629077,6.320076,2.291747,-1
19,F,0,1,18,5,3,70,2,1309,0,0.280159,6.394233,2.40371,-1
19,F,0,1,18,6,4,69,1,1054,0,0.7987845,12.22359,3.657252,-1
19,F,0,1,18,7,4,71,3,2343,1,0.3133958,12.22831,1.446857,-1
19,F,0,1,18,8,4,72,4,1387,0,0.3563056,12.38298,1.617857,-1
19,F,0,1,19,1,4,75,3,4220,4,0.9578001,12.19182,4.438753,-1
19,F,0,1,19,2,4,73,1,1154,0,0.4802685,12.18832,2.212932,-1
19,F,0,1,19,3,3,76,4,1942,0,0.2136183,6.525283,1.780482,-1
19,F,0,1,19,4,3,73,1,1431,0,0.1373203,6.287062,1.191569,-1
19,F,0,1,19,5,3,75,3,1876,0,0.2791857,6.127948,2.553283,-1
19,F,0,1,19,6,4,74,2,920,0,0.1428295,12.32919,0.652521,-1
19,F,0,1,19,7,4,76,4,2498,0,0.6172753,12.36927,2.802258,-1
19,F,0,1,19,8,3,74,2,1865,1,0.4645346,6.397562,3.954433,-1
19,F,0,1,20,1,4,77,1,1342,0,0.6485798,12.20852,2.999505,-1
19,F,0,1,20,2,4,79,3,2131,0,0.6110555,12.19929,2.828055,-1
19,F,0,1,20,3,4,80,4,2498,0,0.257883,12.37296,1.174032,-1
19,F,0,1,20,4,3,79,3,3076,0,1.845947E-07,6.17586,0,-1
19,F,0,1,20,5,3,78,2,1809,1,1.634932E-08,6.372848,0,-1
19,F,0,1,20,6,3,80,4,1820,0,0.04173033,6.531664,0.3505445,-1
19,F,0,1,20,7,4,78,2,987,0,2.104776E-07,12.37395,0.01978234,-1
19,F,0,1,20,8,3,77,1,2120,1,0.2542878,6.288449,2.222992,-1
19,F,0,1,20,1,1,79,3,1931,0,7.917861E-08,6.132615,0,-1
19,F,0,1,20,2,2,78,2,931,0,0.4208091,12.32838,1.926103,-1
19,F,0,1,20,3,2,80,4,2042,0,0.4593673,12.37478,2.091532,-1
19,F,0,1,20,4,2,77,1,2498,0,0.7086009,12.22797,3.263568,-1
19,F,0,1,20,5,2,79,3,1609,0,0.5391296,12.24204,2.465295,-1
19,F,0,1,20,6,1,80,4,1998,0,0.2754135,6.543659,2.30639,-1
19,F,0,1,20,7,1,78,2,1876,1,1.286405E-07,6.399742,0,-1
19,F,0,1,20,8,1,77,1,1820,0,0.2444078,6.316544,2.131665,-1
19,F,0,1,21,1,1,83,3,1365,0,0.08232102,6.184175,0.7303458,-1
19,F,0,1,21,2,2,82,2,8742,1,0.8018057,12.26676,3.636635,-1
19,F,0,1,21,3,2,84,4,2376,0,0.7240139,12.33449,3.328079,-1
19,F,0,1,21,4,2,81,1,2298,0,0.04168858,12.19976,0.1907741,-1
19,F,0,1,21,5,1,82,2,3309,0,0.3100175,6.402387,2.620623,-1
19,F,0,1,21,6,1,81,1,2787,1,0.1150282,6.306078,1.004052,-1
19,F,0,1,21,7,2,83,3,1376,0,0.5823426,12.20233,2.671371,-1
19,F,0,1,21,8,1,84,4,3586,1,0.07634978,6.508587,0.6398023,-1
19,F,0,1,22,1,1,87,3,2098,0,0.4384,6.112425,3.919616,-1
19,F,0,1,22,2,1,86,2,2654,0,0.3944178,6.391694,3.384198,-1
19,F,0,1,22,3,2,88,4,1598,0,0.4196744,12.34064,1.923866,-1
19,F,0,1,22,4,1,85,1,2442,0,0.4775475,6.314502,4.169647,-1
19,F,0,1,22,5,2,86,2,798,0,7.906443E-08,12.31351,0,-1
19,F,0,1,22,6,2,85,1,1031,0,0.1950294,12.20391,0.8991814,-1
19,F,0,1,22,7,2,87,3,1687,0,0.3311318,12.20198,1.531741,-1
19,F,0,1,22,8,1,88,4,2919,1,1.169827E-07,6.5238,0,-1
19,F,0,1,23,1,2,90,2,909,0,0.6325423,12.31682,2.899081,-1
19,F,0,1,23,2,2,92,4,1431,0,0.6293248,12.34392,2.828747,-1
19,F,0,1,23,3,1,89,1,1453,0,0.06083857,6.311166,0.5311863,-1
19,F,0,1,23,4,2,91,3,1453,0,0.3541569,12.19686,1.630029,-1
19,F,0,1,23,5,1,90,2,942,0,0.2391879,6.396492,2.025744,-1
19,F,0,1,23,6,1,92,4,2075,1,0.1804981,6.511568,1.506362,-1
19,F,0,1,23,7,1,91,3,2054,0,0.2349878,6.121383,2.099843,-1
19,F,0,1,23,8,2,89,1,2653,0,0.07926676,12.207,0.365305,-1
19,F,0,1,24,1,2,96,4,2553,0,0.1491057,12.34161,0.6801254,-1
19,F,0,1,24,2,1,95,3,3742,1,0.5119071,6.118788,4.573718,-1
19,F,0,1,24,3,1,94,2,1309,0,0.4129694,6.401603,3.521033,-1
19,F,0,1,24,4,2,95,3,1697,0,0.8002574,12.20634,3.670985,-1
19,F,0,1,24,5,2,93,1,1520,0,6.939841E-08,12.20722,0.01978234,-1
19,F,0,1,24,6,1,96,4,1508,0,1.097357E-07,6.517641,0,-1
19,F,0,1,24,7,1,93,1,2064,1,0.3053933,6.308611,2.668658,-1
19,F,0,1,24,8,2,94,2,908,0,0.04878132,12.31191,0.2229358,-1
19,F,0,1,25,1,1,100,4,2109,0,0.2621545,6.558007,2.191692,-1
19,F,0,1,25,2,1,99,3,1454,0,0.2672429,6.165274,2.371411,-1
19,F,0,1,25,3,2,100,4,1931,0,0.1670978,12.38335,0.7615615,-1
19,F,0,1,25,4,1,97,1,1676,1,0.1068536,6.338249,0.9289381,-1
19,F,0,1,25,5,2,98,2,1154,0,0.245941,12.34816,1.118901,-1
19,F,0,1,25,6,2,97,1,1442,0,0.09050791,12.24237,0.416371,-1
19,F,0,1,25,7,2,99,3,1887,0,2.160329E-07,12.24508,0,-1
19,F,0,1,25,8,1,98,2,2709,0,0.03467611,6.423272,0.2947506,-1
19,F,0,1,26,1,2,103,3,1642,0,0.8174008,12.24893,3.73696,-1
19,F,0,1,26,2,1,102,2,2609,1,0.3575754,6.423728,3.053835,-1
19,F,0,1,26,3,2,104,4,1709,0,0.6953405,12.37829,3.184998,-1
19,F,0,1,26,4,2,101,1,2953,0,0.2409797,12.2485,1.113291,-1
19,F,0,1,26,5,2,102,2,1720,0,0.2011137,12.34198,0.9112865,-1
19,F,0,1,26,6,1,104,4,2765,0,0.2485136,6.543561,2.097139,-1
19,F,0,1,26,7,1,103,3,3287,0,0.1097964,6.151428,0.9761857,-1
19,F,0,1,26,8,1,101,1,1509,0,0.001626508,6.338859,0,-1
19,F,0,1,27,1,1,106,2,1442,0,0.1372364,6.423448,1.171529,-1
19,F,0,1,27,2,1,105,1,1298,0,0.1753352,6.327875,1.527134,-1
19,F,0,1,27,3,2,106,2,1398,1,0.9333174,12.34443,4.207427,-1
19,F,0,1,27,4,2,107,3,1609,0,0.7285238,12.23824,3.36255,-1
19,F,0,1,27,5,2,105,1,1487,0,0.6317506,12.24503,2.926835,-1
19,F,0,1,27,6,1,108,4,2387,0,0.01774623,6.547626,0.1480375,-1
19,F,0,1,27,7,1,107,3,1731,0,0.12915,6.158466,1.148929,-1
19,F,0,1,27,8,2,108,4,2298,1,4.200442E-08,12.3838,0,-1
19,F,0,1,28,1,2,111,3,2209,0,0.07258059,12.25147,0.3339648,-1
19,F,0,1,28,2,2,109,1,3476,0,0.9260293,12.25484,4.292815,-1
19,F,0,1,28,3,1,112,4,3098,1,0.317452,6.544583,2.666751,-1
19,F,0,1,28,4,2,110,2,1198,1,0.5157985,12.36122,2.362978,-1
19,F,0,1,28,5,2,112,4,1309,0,0.8977662,12.39537,4.083366,-1
19,F,0,1,28,6,1,111,3,2331,0,0.2541541,6.156247,2.258714,-1
19,F,0,1,28,7,1,109,1,1142,0,2.615175E-08,6.327822,0,-1
19,F,0,1,28,8,1,110,2,1098,0,0.1853631,6.419251,1.583503,-1
19,F,0,1,29,1,1,115,3,1353,0,0.1105618,6.213206,0.9845687,-1
19,F,0,1,29,2,1,116,4,1331,0,1.557516E-07,6.625387,0,-1
19,F,0,1,29,3,2,115,3,1287,0,0.1881321,12.31426,0.8588898,-1
19,F,0,1,29,4,2,116,4,1198,0,0.4471732,12.45059,2.004181,-1
19,F,0,1,29,5,1,113,1,1287,0,5.571411E-08,6.302755,0,-1
19,F,0,1,29,6,1,114,2,2053,0,0.3009898,6.390717,2.57367,-1
19,F,0,1,29,7,2,113,1,1287,0,0.5835652,12.22816,2.670784,-1
19,F,0,1,29,8,2,114,2,809,0,0.1400907,12.35145,0.6351982,-1
19,F,0,1,30,1,1,120,4,1709,0,0.2012019,6.618474,1.649482,-1
19,F,0,1,30,2,2,117,1,4453,0,0.8607156,12.23025,3.99091,-1
19,F,0,1,30,3,2,118,2,765,0,0.244076,12.34913,1.105353,-1
19,F,0,1,30,4,2,119,3,1376,0,7.046637E-08,12.31396,0,-1
19,F,0,1,30,5,1,118,2,8754,8,0.1034696,6.359061,0.8897746,-1
19,F,0,1,30,6,1,117,1,1320,0,0.1710608,6.278344,1.499591,-1
19,F,0,1,30,7,1,119,3,1487,0,0.494719,6.206535,4.489299,-1
19,F,0,1,30,8,2,120,4,1553,0,0.9157047,12.45058,4.170914,-1
19,F,0,1,31,1,2,123,3,2120,0,0.08040463,12.31319,0.3663747,-1
19,F,0,1,31,2,2,124,4,1354,0,0.5354519,12.45612,2.421881,-1
19,F,0,1,31,3,1,123,3,1609,0,0.3228305,6.203494,2.863549,-1
19,F,0,1,31,4,2,121,1,1298,0,0.5975371,12.23328,2.733088,-1
19,F,0,1,31,5,2,122,2,931,0,0.2783408,12.34893,1.259121,-1
19,F,0,1,31,6,1,124,4,2076,0,0.4301405,6.621138,3.588833,-1
19,F,0,1,31,7,1,122,2,4487,2,0.3797456,6.36113,3.272195,-1
19,F,0,1,31,8,1,121,1,1109,0,0.2161757,6.27413,1.897645,-1
19,F,0,1,32,1,1,127,3,2387,0,0.3465511,6.208453,3.032607,-1
19,F,0,1,32,2,2,126,2,820,0,0.7381278,12.3445,3.326137,-1
19,F,0,1,32,3,1,125,1,1442,0,0.09413388,6.276194,0.826142,-1
19,F,0,1,32,4,2,127,3,1276,0,0.306156,12.31671,1.391564,-1
19,F,0,1,32,5,2,128,4,1276,0,0.7109145,12.45481,3.187088,-1
19,F,0,1,32,6,2,125,1,1476,0,0.1498115,12.23313,0.6884183,-1
19,F,0,1,32,7,1,128,4,2598,0,0.2740317,6.624949,2.256634,-1
19,F,0,1,32,8,1,126,2,1054,0,0.241357,6.366452,2.077448,-1
19,F,0,1,33,1,2,129,1,9999,7,-1,-1,-1,-1
19,F,0,1,33,2,2,131,3,1898,0,0.9591708,12.34333,4.39057,-1
19,F,0,1,33,3,1,129,1,2076,0,1.691742E-07,6.301899,0,-1
19,F,0,1,33,4,2,130,2,698,0,0.6009029,12.37685,2.714547,-1
19,F,0,1,33,5,2,132,4,1720,0,1.039764,12.48162,4.72551,-1
19,F,0,1,33,6,1,130,2,1209,0,5.666546E-08,6.384491,0,-1
19,F,0,1,33,7,1,131,3,1709,0,0.1510025,6.231799,1.34188,-1
19,F,0,1,33,8,1,132,4,1931,1,0.3987423,6.653131,3.313339,-1
19,F,0,1,34,1,1,134,2,1154,0,1.012239E-07,6.392073,0,-1
19,F,0,1,34,2,1,133,1,1609,0,0.2628934,6.297855,2.307238,-1
19,F,0,1,34,3,1,135,3,1254,0,0.4363364,6.245908,3.821723,-1
19,F,0,1,34,4,2,134,2,776,0,9.972138E-08,12.38072,0,-1
19,F,0,1,34,5,2,136,4,1142,0,0.2005364,12.48344,0.8996165,-1
19,F,0,1,34,6,2,135,3,1365,0,0.6201801,12.35195,2.837039,-1
19,F,0,1,34,7,1,136,4,2920,0,1.24023E-07,6.663546,0,-1
19,F,0,1,34,8,2,133,1,1342,0,0.8840697,12.26171,4.038566,-1
19,F,0,1,35,1,2,140,4,1131,0,0.1491725,12.4901,0.6688108,-1
19,F,0,1,35,2,1,139,3,2187,1,0.1295374,6.241856,1.134532,-1
19,F,0,1,35,3,2,137,1,1953,0,0.02400626,12.26422,0.1119058,-1
19,F,0,1,35,4,2,139,3,1476,0,0.6026135,12.35564,2.739312,-1
19,F,0,1,35,5,2,138,2,1020,0,0.3377371,12.38514,1.523157,-1
19,F,0,1,35,6,1,140,4,2920,0,0.1692621,6.659715,1.38889,-1
19,F,0,1,35,7,1,137,1,2109,1,0.1488341,6.297836,1.303713,-1
19,F,0,1,35,8,1,138,2,2542,0,0.4037601,6.386745,3.434047,-1
19,F,0,1,37,1,3,147,3,1609,0,0.0466824,6.261934,0.409739,-1
19,F,0,1,37,2,3,145,1,1054,0,0.07009282,6.275023,0.6122975,-1
19,F,0,1,37,3,4,148,4,1776,1,0.4671344,12.46796,2.07952,-1
19,F,0,1,37,4,4,146,2,831,0,0.404766,12.38626,1.823275,-1
19,F,0,1,37,5,3,148,4,1287,0,0.4446265,6.653531,3.656127,-1
19,F,0,1,37,6,4,145,1,1242,0,0.9682168,12.2674,4.416545,-1
19,F,0,1,37,7,3,146,2,3353,2,0.495653,6.362597,4.227766,-1
19,F,0,1,37,8,4,147,3,3453,0,3.438005E-07,12.36341,0,-1
19,F,0,1,38,1,3,152,4,2209,0,0.4140588,6.634999,3.416442,-1
19,F,0,1,38,2,3,151,3,1209,0,0.4775296,6.238501,4.253352,-1
19,F,0,1,38,3,4,152,4,1398,0,1.04573,12.50226,4.690643,-1
19,F,0,1,38,4,3,150,2,2154,1,0.5065024,6.386935,4.348795,-1
19,F,0,1,38,5,3,149,1,1031,0,0.1991512,6.297729,1.7417,-1
19,F,0,1,38,6,4,150,2,654,0,0.968582,12.37712,4.350507,-1
19,F,0,1,38,7,4,149,1,3731,1,0.3490136,12.22523,1.606934,-1
19,F,0,1,38,8,4,151,3,4919,1,0.2735105,12.35862,1.245998,-1
19,F,0,1,39,1,4,154,2,842,0,0.7204672,12.39021,3.256843,-1
19,F,0,1,39,2,4,156,4,1698,1,0.7167711,12.49777,3.207172,-1
19,F,0,1,39,3,3,155,3,1598,0,0.4590039,6.253483,3.991695,-1
19,F,0,1,39,4,4,153,1,1376,0,0.6984485,12.26235,3.18592,-1
19,F,0,1,39,5,3,156,4,2864,1,0.5693302,6.643267,4.708483,-1
19,F,0,1,39,6,3,154,2,1976,1,5.269326E-08,6.413996,0,-1
19,F,0,1,39,7,4,155,3,1264,0,0.9460419,12.36769,4.262367,-1
19,F,0,1,39,8,3,153,1,1642,0,0.3939556,6.355882,3.38888,-1
19,F,0,1,40,1,3,159,3,1420,0,0.08454163,6.305964,0.7372789,-1
19,F,0,1,40,2,3,157,1,965,0,0.4201314,6.356202,3.670559,-1
19,F,0,1,40,3,3,158,2,1820,1,0.3434458,6.413352,2.943774,-1
19,F,0,1,40,4,4,157,1,2165,0,0.1057233,12.30562,0.4837596,-1
19,F,0,1,40,5,4,160,4,2031,0,0.074932,12.52267,0.3351346,-1
19,F,0,1,40,6,4,159,3,2598,1,7.530018E-08,12.38945,0,-1
19,F,0,1,40,7,4,158,2,976,0,0.8950682,12.43158,4.105845,-1
19,F,0,1,40,8,3,160,4,2265,0,0.165883,6.675709,1.359843,-1
19,F,0,1,41,1,2,162,2,1887,1,0.4419864,12.43149,1.983667,-1
19,F,0,1,41,2,1,164,4,1576,0,0.4284667,6.701847,3.481047,-1
19,F,0,1,41,3,2,161,1,2365,1,0.6939717,12.31156,3.153929,-1
19,F,0,1,41,4,2,164,4,1253,0,0.5701303,12.53096,2.54399,-1
19,F,0,1,41,5,2,163,3,1276,0,0.8793279,12.39717,3.974537,-1
19,F,0,1,41,6,1,162,2,3320,3,0.2644049,6.41863,2.257501,-1
19,F,0,1,41,7,1,163,3,1831,0,0.1605198,6.288774,1.394935,-1
19,F,0,1,41,8,1,161,1,1120,0,0.1728217,6.338414,1.501808,-1
19,F,0,1,42,1,1,167,3,1431,0,3.332281E-08,6.300202,0,-1
19,F,0,1,42,2,1,166,2,1153,0,0.2653169,6.433272,2.260187,-1
19,F,0,1,42,3,2,168,4,1331,0,2.663772E-07,12.55115,0,-1
19,F,0,1,42,4,2,165,1,1554,0,0.6723202,12.32507,3.052681,-1
19,F,0,1,42,5,2,167,3,2620,2,0.9544427,12.41129,4.309753,-1
19,F,0,1,42,6,1,168,4,2398,1,0.02424701,6.72087,0.1978235,-1
19,F,0,1,42,7,2,166,2,1020,0,0.4194434,12.44426,1.879823,-1
19,F,0,1,42,8,1,165,1,2253,1,0.1044847,6.341359,0.9074132,-1
19,F,0,1,43,1,2,172,4,1209,0,0.4212717,12.55239,1.863091,-1
19,F,0,1,43,2,1,170,2,4631,2,0.2696847,6.42443,2.300442,-1
19,F,0,1,43,3,1,171,3,1731,0,0.4469702,6.303097,3.968225,-1
19,F,0,1,43,4,2,170,2,965,0,0.160872,12.44919,0.7236168,-1
19,F,0,1,43,5,2,169,1,2265,1,0.8970457,12.3167,4.089452,-1
19,F,0,1,43,6,1,172,4,3676,1,2.273228E-08,6.720439,0,-1
19,F,0,1,43,7,1,169,1,1220,0,0.220439,6.346294,1.91336,-1
19,F,0,1,43,8,2,171,3,1409,0,0.327136,12.41094,1.488326,-1
19,F,0,1,44,1,1,174,2,4987,4,0.01953564,6.432768,0.166689,-1
19,F,0,1,44,2,1,176,4,4631,0,3.969433E-07,6.738781,0,-1
19,F,0,1,44,3,1,173,1,1220,0,0.3625158,6.336549,3.147218,-1
19,F,0,1,44,4,2,175,3,1720,0,0.535501,12.41342,2.416137,-1
19,F,0,1,44,5,2,176,4,3198,1,0.9277585,12.56088,4.111089,-1
19,F,0,1,44,6,1,175,3,2820,1,0.3831046,6.309868,3.319184,-1
19,F,0,1,44,7,2,173,1,1120,0,0.5217092,12.32114,2.371329,-1
19,F,0,1,44,8,2,174,2,1265,0,2.105518E-07,12.44586,0.01978234,-1
19,F,0,1,45,1,2,179,3,1020,0,0.2312091,12.22245,1.058879,-1
19,F,0,1,45,2,2,178,2,731,0,0.1488241,12.24522,0.6807005,-1
19,F,0,1,45,3,2,180,4,998,0,0.369091,12.34188,1.673276,-1
19,F,0,1,45,4,1,178,2,1331,0,0.1196402,6.295004,1.03571,-1
19,F,0,1,45,5,2,177,1,3309,0,0.2821894,12.14975,1.306711,-1
19,F,0,1,45,6,1,180,4,1709,0,0.1801304,6.508826,1.50298,-1
19,F,0,1,45,7,1,177,1,1087,0,1.377108E-07,6.215314,0,-1
19,F,0,1,45,8,1,179,3,1853,1,0.3088478,6.092979,2.789024,-1
19,F,0,1,46,1,2,182,2,1898,0,0.9747825,12.35797,4.465281,-1
19,F,0,1,46,2,2,181,1,1976,0,0.266451,12.20162,1.227964,-1
19,F,0,1,46,3,2,183,3,1598,0,0.6455972,12.26748,2.971638,-1
19,F,0,1,46,4,1,181,1,2743,0,0.3643809,6.274262,3.199533,-1
19,F,0,1,46,5,2,184,4,1898,1,0.8181615,12.46481,3.700258,-1
19,F,0,1,46,6,1,183,3,1154,0,0.4655353,6.241045,4.054634,-1
19,F,0,1,46,7,1,182,2,1387,1,0.2869289,6.389278,2.453277,-1
19,F,0,1,46,8,1,184,4,3042,1,0.03018024,6.622939,0.2486604,-1
19,F,0,1,47,1,2,187,3,1253,0,0.7075424,12.32823,3.245039,-1
19,F,0,1,47,2,1,185,1,1698,0,0.3419459,6.290149,2.99526,-1
19,F,0,1,47,3,2,186,2,831,0,0.1182101,12.35068,0.5366834,-1
19,F,0,1,47,4,2,185,1,1408,0,0.3536752,12.24228,1.620516,-1
19,F,0,1,47,5,1,188,4,2098,0,0.07978913,6.616907,0.6584912,-1
19,F,0,1,47,6,1,187,3,1576,0,0.4707346,6.219377,4.102983,-1
19,F,0,1,47,7,2,188,4,1520,1,0.4748042,12.45339,2.151678,-1
19,F,0,1,47,8,1,186,2,2165,0,0.1879992,6.374235,1.610705,-1
19,F,0,1,48,1,2,189,1,1342,0,0.8535705,12.24004,3.954334,-1
19,F,0,1,48,2,2,190,2,820,0,0.6184526,12.35033,2.791339,-1
19,F,0,1,48,3,2,192,4,2575,0,0.5163118,12.44512,2.315621,-1
19,F,0,1,48,4,1,189,1,2698,0,0.09321496,6.297726,0.8151737,-1
19,F,0,1,48,5,2,191,3,2031,0,0.7553226,12.31404,3.435301,-1
19,F,0,1,48,6,1,192,4,1954,0,0.3037624,6.610228,2.539138,-1
19,F,0,1,48,7,1,190,2,1253,0,0.1677112,6.376588,1.441165,-1
19,F,0,1,48,8,1,191,3,2853,1,0.3359104,6.20647,2.940979,-1
19,F,0,1,49,1,1,194,2,4476,4,0.4355284,6.368456,3.748417,-1
19,F,0,1,49,2,1,196,4,4220,3,0.3717356,6.653876,3.101541,-1
19,F,0,1,49,3,1,193,1,2320,1,0.004380977,6.296015,0.03426402,-1
19,F,0,1,49,4,1,195,3,1742,0,0.4958627,6.249889,4.455621,-1
19,F,0,1,49,5,2,193,1,1809,0,0.3713597,12.26984,1.711894,-1
19,F,0,1,49,6,2,195,3,1876,1,0.7319459,12.35456,3.346031,-1
19,F,0,1,49,7,2,194,2,1209,0,8.101839E-08,12.39389,0,-1
19,F,0,1,49,8,2,196,4,1553,0,0.9901242,12.49502,4.494706,-1
19,F,0,1,50,1,1,199,3,1376,0,0.4159312,6.266066,3.630384,-1
19,F,0,1,50,2,1,200,4,1442,0,0.09443744,6.656225,0.774302,-1
19,F,0,1,50,3,2,198,2,998,0,0.6771828,12.38418,3.097878,-1
19,F,0,1,50,4,2,200,4,1365,0,0.7835658,12.48942,3.557159,-1
19,F,0,1,50,5,1,197,1,1687,0,9.580477E-08,6.269137,0,-1
19,F,0,1,50,6,1,198,2,954,0,0.2594077,6.334255,2.244284,-1
19,F,0,1,50,7,2,197,1,3020,3,0.8895633,12.1717,4.1585,-1
19,F,0,1,50,8,2,199,3,1331,0,0.6906964,12.26316,3.179893,-1
19,F,0,1,51,1,1,201,1,1886,2,0.08089688,6.239717,0.7138155,-1
19,F,0,1,51,2,1,204,4,1976,0,0.3750367,6.564078,3.142425,-1
19,F,0,1,51,3,2,203,3,1331,0,0.2080535,12.26645,0.9493572,-1
19,F,0,1,51,4,2,202,2,1631,1,0.82743,12.30736,3.813619,-1
19,F,0,1,51,5,2,201,1,1098,0,0.467198,12.19031,2.15004,-1
19,F,0,1,51,6,1,202,2,2676,0,0.5270021,6.328502,4.566689,-1
19,F,0,1,51,7,1,203,3,1465,0,0.4687532,6.165605,4.155721,-1
19,F,0,1,51,8,2,204,4,1587,1,0.5256093,12.40413,2.358583,-1
19,F,0,1,52,1,1,205,1,1953,0,0.4728148,6.248812,4.170633,-1
19,F,0,1,52,2,1,208,4,1254,0,0.2883067,6.569745,2.424547,-1
19,F,0,1,52,3,2,205,1,1109,0,1.144863E-07,12.19012,0,-1
19,F,0,1,52,4,2,206,2,3031,0,0.3475267,12.30596,1.599121,-1
19,F,0,1,52,5,1,207,3,4120,1,0.269186,6.153538,2.391629,-1
19,F,0,1,52,6,2,208,4,5142,0,0.5438575,12.391,2.449844,-1
19,F,0,1,52,7,2,207,3,2453,1,0.1113729,12.26101,0.5124369,-1
19,F,0,1,52,8,1,206,2,1587,1,0.4096646,6.334617,3.530418,-1
19,F,0,1,53,1,1,212,4,1565,0,4.226897E-08,6.61,0,-1
19,F,0,1,53,2,2,209,1,1620,0,0.04531151,12.22908,0.20842,-1
19,F,0,1,53,3,2,210,2,820,0,0.608449,12.33097,2.761658,-1
19,F,0,1,53,4,2,211,3,1320,0,0.4608968,12.29991,2.097698,-1
19,F,0,1,53,5,2,212,4,2320,1,3.334479E-07,12.43465,0,-1
19,F,0,1,53,6,1,209,1,1453,0,1.22309E-07,6.274937,0,-1
19,F,0,1,53,7,1,211,3,1731,1,0.07225966,6.188947,0.6394964,-1
19,F,0,1,53,8,1,210,2,1676,1,0.3942727,6.359259,3.351352,-1
19,F,0,1,54,1,1,216,4,1187,0,0.05624655,6.606582,0.4652019,-1
19,F,0,1,54,2,2,214,2,687,0,0.5362294,12.34072,2.464978,-1
19,F,0,1,54,3,2,213,1,965,0,0.07164787,12.22292,0.329838,-1
19,F,0,1,54,4,1,215,3,1997,0,0.3414713,6.196087,3.060686,-1
19,F,0,1,54,5,1,213,1,1142,0,3.276652E-08,6.269279,0,-1
19,F,0,1,54,6,2,216,4,2875,0,0.7525659,12.44381,3.357538,-1
19,F,0,1,54,7,2,215,3,1798,0,0.4975343,12.30566,2.282334,-1
19,F,0,1,54,8,1,214,2,1309,0,0.2980589,6.36397,2.572605,-1
19,F,0,1,55,1,1,217,1,1265,0,0.3015278,6.263454,2.65048,-1
19,F,0,1,55,2,1,219,3,3331,3,0.5201219,6.192573,4.714968,-1
19,F,0,1,55,3,2,220,4,2353,1,0.1984509,12.43038,0.8948184,-1
19,F,0,1,55,4,2,218,2,942,0,0.2028578,12.32915,0.9204736,-1
19,F,0,1,55,5,2,217,1,1742,0,0.639079,12.21115,2.931379,-1
19,F,0,1,55,6,1,218,2,4553,4,0.4691429,6.344519,4.007266,-1
19,F,0,1,55,7,2,219,3,2098,1,0.737492,12.29877,3.385991,-1
19,F,0,1,55,8,1,220,4,3098,2,9.999694E-08,6.603446,0,-1
19,F,0,1,56,1,1,221,1,1142,0,0.1514508,6.264827,1.331192,-1
19,F,0,1,56,2,2,223,3,1953,1,0.5495637,12.29668,2.502176,-1
19,F,0,1,56,3,1,222,2,5131,4,0.03872201,6.349826,0.332791,-1
19,F,0,1,56,4,1,224,4,2520,0,5.831524E-08,6.603263,0,-1
19,F,0,1,56,5,2,221,1,2309,0,0.7089031,12.22048,3.248476,-1
19,F,0,1,56,6,1,223,3,3853,2,0.4868937,6.19186,4.299288,-1
19,F,0,1,56,7,2,224,4,2608,0,0.0831461,12.43149,0.3758652,-1
19,F,0,1,56,8,2,222,2,654,0,0.1765051,12.33839,0.800886,-1
19,F,0,1,57,1,3,227,3,1043,0,0.08594628,6.220541,0.7576976,-1
19,F,0,1,57,2,4,226,2,599,0,0.85352,12.37632,3.861887,-1
19,F,0,1,57,3,4,227,3,1254,0,0.1164332,12.30856,0.530449,-1
19,F,0,1,57,4,3,225,1,2887,2,0.07122835,6.271012,0.6252628,-1
19,F,0,1,57,5,4,228,4,3331,0,0.2053874,12.4471,0.9198356,-1
19,F,0,1,57,6,3,226,2,2909,0,0.2810515,6.347454,2.44096,-1
19,F,0,1,57,7,3,228,4,1798,1,0.433997,6.580464,3.609614,-1
19,F,0,1,57,8,4,225,1,1042,0,0.5329431,12.22897,2.439757,-1
19,F,0,1,58,1,4,230,2,675,0,0.9903476,12.33502,4.491872,-1
19,F,0,1,58,2,4,232,4,1642,1,0.8007867,12.43981,3.642821,-1
19,F,0,1,58,3,4,229,1,1409,0,0.1163375,12.25653,0.5337587,-1
19,F,0,1,58,4,3,230,2,2420,3,0.2695737,6.335504,2.3233,-1
19,F,0,1,58,5,3,231,3,1254,0,0.3163664,6.261657,2.76803,-1
19,F,0,1,58,6,3,232,4,1309,0,0.2172789,6.648647,1.772551,-1
19,F,0,1,58,7,4,231,3,1165,0,0.3803922,12.31415,1.72147,-1
19,F,0,1,58,8,3,229,1,1487,0,0.471612,6.304502,4.090793,-1
19,F,0,1,59,1,4,234,2,975,0,1.052283,12.36246,4.732676,-1
19,F,0,1,59,2,3,236,4,1887,0,0.05999806,6.645469,0.4937682,-1
19,F,0,1,59,3,3,234,2,1009,0,0.5187522,6.359432,4.439149,-1
19,F,0,1,59,4,4,233,1,1542,0,0.4122801,12.24199,1.892172,-1
19,F,0,1,59,5,4,235,3,1131,0,0.9689359,12.3149,4.383695,-1
19,F,0,1,59,6,4,236,4,1642,0,0.08403802,12.48241,0.3769049,-1
19,F,0,1,59,7,3,233,1,1742,1,0.1214771,6.25415,1.060171,-1
19,F,0,1,59,8,3,235,3,1386,0,0.09430316,6.227765,0.8275619,-1
19,F,0,1,60,1,4,237,1,1209,0,0.291438,12.21327,1.335155,-1
19,F,0,1,60,2,4,238,2,865,0,1.009546,12.36818,4.551737,-1
19,F,0,1,60,3,4,239,3,1053,0,0.1034832,12.34593,0.4698059,-1
19,F,0,1,60,4,3,238,2,5231,0,0.4750856,6.373041,4.09175,-1
19,F,0,1,60,5,3,239,3,2998,0,5.824684E-08,6.214016,0,-1
19,F,0,1,60,6,4,240,4,2864,0,0.9689616,12.46459,4.336122,-1
19,F,0,1,60,7,3,237,1,1053,0,0.3455333,6.262953,3.007001,-1
19,F,0,1,60,8,3,240,4,2109,2,0.3887283,6.609323,3.196533,-1
19,F,0,1,61,1,2,241,1,1498,0,0.5061681,12.245,2.343097,-1
19,F,0,1,61,2,2,244,4,1041,0,0.6277236,12.4714,2.810071,-1
19,F,0,1,61,3,1,242,2,1074,0,0.2906394,6.373592,2.49881,-1
19,F,0,1,61,4,1,244,4,2509,1,0.08824231,6.637752,0.7255072,-1
19,F,0,1,61,5,1,243,3,1676,1,5.909056E-08,6.227692,0,-1
19,F,0,1,61,6,2,242,2,731,0,0.1781096,12.37086,0.8084246,-1
19,F,0,1,61,7,2,243,3,1164,0,0.8421196,12.33685,3.866499,-1
19,F,0,1,61,8,1,241,1,1509,0,0.2631863,6.290663,2.304437,-1
19,F,0,1,62,1,2,248,4,1242,0,0.8967286,12.47063,4.016248,-1
19,F,0,1,62,2,1,246,2,1165,0,0.4015453,6.384941,3.447476,-1
19,F,0,1,62,3,1,245,1,1154,0,0.5370626,6.296061,4.701655,-1
19,F,0,1,62,4,1,248,4,1098,0,0.3397972,6.666933,2.75129,-1
19,F,0,1,62,5,2,247,3,1120,0,0.6908347,12.36645,3.129128,-1
19,F,0,1,62,6,2,245,1,1853,0,0.5613348,12.27051,2.598571,-1
19,F,0,1,62,7,2,246,2,998,0,0.4565378,12.38812,2.065449,-1
19,F,0,1,62,8,1,247,3,1254,0,0.09253681,6.263374,0.8173313,-1
19,F,0,1,1,1,8,3,3,3574,0,5.721057,12.38583,27.50568,-1
19,F,0,1,1,2,6,2,2,5987,0,5.201227,12.37587,24.70917,-1
19,F,0,1,1,3,5,4,4,3342,0,2.125538,6.661077,17.92285,-1
19,F,0,1,1,4,5,1,1,4531,0,4.02886,6.305233,39.70956,-1
19,F,0,1,1,5,6,4,4,2242,0,1.508797,12.50674,6.748722,-1
19,F,0,1,1,6,7,1,1,1520,0,0.9229847,6.294845,8.099994,-1
19,F,0,1,1,7,8,4,4,9864,0,1.427957,12.50954,6.407656,-1
19,F,0,1,1,8,8,2,2,2987,0,1.557543,12.37911,7.013052,-1
19,F,0,1,1,9,7,3,3,5153,0,1.987782,6.292531,17.97107,-1
19,F,0,1,1,10,7,2,2,9842,0,4.865216,6.401711,49.46305,-1
19,F,0,1,1,11,8,1,1,5409,0,2.351949,12.27697,11.01254,-1
19,F,0,1,1,12,5,3,3,2164,0,1.441218,6.274606,12.92961,-1
19,F,0,1,1,13,7,4,4,2153,0,2.846308,6.643643,24.46835,-1
19,F,0,1,1,14,6,3,3,2098,0,1.325532,12.36716,6.061101,-1
19,F,0,1,1,15,6,1,1,2431,0,5.921261,12.28365,28.81899,-1
19,F,0,1,1,16,5,2,2,8031,0,4.775394,6.391525,48.34364,-1
19,F,0,1,2,1,5,2,2,6309,0,5.148128,6.402654,53.51972,-1
19,F,0,1,2,2,6,3,3,5576,0,2.151945,12.39815,9.845204,-1
19,F,0,1,2,3,5,1,1,6353,0,3.018791,6.306544,27.39235,-1
19,F,0,1,2,4,8,4,4,2920,0,0.1463536,12.53005,0.6549156,-1
19,F,0,1,2,5,7,1,1,1865,0,4.027517,6.320755,39.55473,-1
19,F,0,1,2,6,7,3,3,2087,0,0.8001308,6.287612,7.13897,-1
19,F,0,1,2,7,7,4,4,2109,0,4.502929,6.668087,42.47709,-1
19,F,0,1,2,8,5,3,3,6253,0,1.128105,6.265394,9.98371,-1
19,F,0,1,2,9,6,2,2,1020,0,2.681839,12.39389,12.42791,-1
19,F,0,1,2,10,5,4,4,5042,0,3.645808,6.671726,31.80865,-1
19,F,0,1,2,11,6,1,1,1742,0,0.451931,12.28025,2.066964,-1
19,F,0,1,2,12,7,2,2,2598,0,6.072841,6.416752,71.15647,-1
19,F,0,1,2,13,6,4,4,1109,0,3.740544,12.5316,16.90471,-1
19,F,0,1,2,14,8,2,2,1598,0,6.044183,12.40412,29.16145,-1
19,F,0,1,2,15,8,3,3,2076,0,2.562663,12.38301,11.67278,-1
19,F,0,1,2,16,8,1,1,1720,0,2.945164,12.29099,13.74811,-1
