Age, Gender, Awareness Type, Session, Block, Trial, Set, Pattern, Quadrant, Response Time, Num Mistakes, Distance From Target, Camera Distance From Target, Angle Error (Degrees), FC Response
19,M,0,1,1,1,1,2,2,3598,1,0.01705772,6.673866,0.1398823,-1
19,M,0,1,1,2,2,4,4,9999,5,-1,-1,-1,-1
19,M,0,1,1,3,2,1,1,6231,2,0.9803281,12.37831,4.516399,-1
19,M,0,1,1,4,1,3,3,2787,0,0.2399249,6.333424,2.060706,-1
19,M,0,1,1,5,1,4,4,6642,2,0.4107462,6.620534,3.344861,-1
19,M,0,1,1,6,2,2,2,9999,8,-1,-1,-1,-1
19,M,0,1,1,7,1,1,1,1953,0,0.06859814,6.251998,0.5993783,-1
19,M,0,1,1,8,2,3,3,3820,0,0.1707251,12.36498,0.7778319,-1
19,M,0,1,2,1,2,5,1,1987,0,0.1325149,12.37112,0.6026341,-1
19,M,0,1,2,2,1,8,4,4331,0,0.3063795,6.636306,2.506787,-1
19,M,0,1,2,3,1,6,2,1798,0,0.300274,6.670265,2.507334,-1
19,M,0,1,2,4,1,7,3,2376,0,0.1398427,6.311266,1.200078,-1
19,M,0,1,2,5,1,5,1,1764,0,0.184888,6.268133,1.62305,-1
19,M,0,1,2,6,2,8,4,2554,1,0.1974244,12.47777,0.8899944,-1
19,M,0,1,2,7,2,6,2,1398,0,0.8856585,12.44829,4.060135,-1
19,M,0,1,2,8,2,7,3,1809,0,0.2724589,12.3562,1.225571,-1
19,M,0,1,3,1,2,12,4,1531,0,0.2947863,12.47138,1.316707,-1
19,M,0,1,3,2,2,9,1,2276,0,0.204366,12.38155,0.9268292,-1
19,M,0,1,3,3,1,10,2,2476,0,0.1821253,6.665919,1.514912,-1
19,M,0,1,3,4,1,11,3,3253,0,0.2352909,6.331414,2.021779,-1
19,M,0,1,3,5,1,12,4,3853,0,1.348874E-07,6.648807,0,-1
19,M,0,1,3,6,2,10,2,1120,0,0.5513653,12.45626,2.481439,-1
19,M,0,1,3,7,1,9,1,1275,0,1.582443E-07,6.285481,0,-1
19,M,0,1,3,8,2,11,3,2153,0,0.2625055,12.38301,1.187786,-1
19,M,0,1,4,1,2,16,4,1831,0,0.01696668,12.49232,0.07661668,-1
19,M,0,1,4,2,1,14,2,1453,0,0.007588838,6.667971,0.06255726,-1
19,M,0,1,4,3,1,13,1,1387,0,0.0524204,6.288348,0.4545648,-1
19,M,0,1,4,4,1,15,3,2287,0,0.2453364,6.32069,2.111091,-1
19,M,0,1,4,5,2,14,2,1442,0,0.9210996,12.46151,4.086387,-1
19,M,0,1,4,6,2,15,3,2209,0,0.1862117,12.37944,0.8386015,-1
19,M,0,1,4,7,2,13,1,2298,0,0.6230257,12.26924,2.878752,-1
19,M,0,1,4,8,1,16,4,2664,0,0.07796711,6.52108,0.6510199,-1
19,M,0,1,5,1,1,19,3,2675,0,0.5239958,6.321903,4.576928,-1
19,M,0,1,5,2,2,17,1,4398,0,0.6480147,12.40119,2.969068,-1
19,M,0,1,5,3,2,19,3,2420,0,0.5330601,12.39766,2.379897,-1
19,M,0,1,5,4,2,20,4,7353,1,0.06610025,12.50368,0.2960753,-1
19,M,0,1,5,5,1,17,1,1431,0,0.002341387,6.295729,0,-1
19,M,0,1,5,6,2,18,2,1487,0,0.04366682,12.46016,0.1958353,-1
19,M,0,1,5,7,1,20,4,3953,1,0.06306197,6.631637,0.518133,-1
19,M,0,1,5,8,1,18,2,2364,0,6.782167E-08,6.675755,0,-1
19,M,0,1,6,1,1,23,3,2631,2,0.1691953,6.334794,1.447803,-1
19,M,0,1,6,2,1,22,2,1964,0,0.03580366,6.679652,0.2934199,-1
19,M,0,1,6,3,2,24,4,3620,0,0.3133484,12.50563,1.416098,-1
19,M,0,1,6,4,1,21,1,1453,0,0.402492,6.309844,3.466732,-1
19,M,0,1,6,5,1,24,4,2853,0,0.2425696,6.628351,2.001152,-1
19,M,0,1,6,6,2,21,1,2120,0,0.5472518,12.41453,2.488921,-1
19,M,0,1,6,7,2,23,3,1698,0,0.6928591,12.40392,3.092501,-1
19,M,0,1,6,8,2,22,2,2209,1,0.7497758,12.45781,3.33049,-1
19,M,0,1,7,1,2,27,3,1520,0,0.3266428,12.39237,1.465136,-1
19,M,0,1,7,2,2,25,1,4898,0,0.6353729,12.42191,2.874533,-1
19,M,0,1,7,3,1,26,2,2420,0,0.310063,6.677907,2.518628,-1
19,M,0,1,7,4,1,25,1,1198,0,0.3018644,6.306875,2.588156,-1
19,M,0,1,7,5,2,28,4,3353,0,0.6376337,12.50275,2.831237,-1
19,M,0,1,7,6,1,27,3,6331,4,0.426165,6.331481,3.717575,-1
19,M,0,1,7,7,2,26,2,2109,0,0.4441106,12.46805,1.980903,-1
19,M,0,1,7,8,1,28,4,4820,0,1.117123E-07,6.637439,0,-1
19,M,0,1,8,1,1,31,3,4220,0,0.3447809,6.346294,2.956249,-1
19,M,0,1,8,2,2,29,1,1787,0,0.5603994,12.42902,2.538213,-1
19,M,0,1,8,3,2,31,3,2798,0,0.4784562,12.40491,2.140643,-1
19,M,0,1,8,4,1,32,4,4209,0,0.4372643,6.649611,3.576427,-1
19,M,0,1,8,5,2,30,2,1953,1,0.5325208,12.4754,2.365378,-1
19,M,0,1,8,6,1,29,1,1276,0,0.1787113,6.311537,1.534294,-1
19,M,0,1,8,7,1,30,2,1965,0,0.447314,6.680576,3.625959,-1
19,M,0,1,8,8,2,32,4,2264,0,0.7190064,12.50807,3.193102,-1
19,M,0,1,9,1,1,33,1,1264,0,0.343625,6.317708,2.969661,-1
19,M,0,1,9,2,1,36,4,2009,0,0.3194682,6.63631,2.655202,-1
19,M,0,1,9,3,1,34,2,3142,0,0.3767323,6.677988,3.044783,-1
19,M,0,1,9,4,1,35,3,3020,0,0.1803903,6.351869,1.545224,-1
19,M,0,1,9,5,2,33,1,4498,1,0.150374,12.43692,0.6801254,-1
19,M,0,1,9,6,2,36,4,7064,2,0.6359457,12.52683,2.884866,-1
19,M,0,1,9,7,2,34,2,1720,1,0.6321533,12.47377,2.855265,-1
19,M,0,1,9,8,2,35,3,2098,0,1.046844,12.41752,4.67219,-1
19,M,0,1,10,1,1,38,2,3831,0,0.04889094,6.679476,0.3995845,-1
19,M,0,1,10,2,2,39,3,3008,0,0.04566328,12.40258,0.2055842,-1
19,M,0,1,10,3,2,38,2,2365,0,2.95791E-07,12.46093,0.01978234,-1
19,M,0,1,10,4,1,40,4,3642,0,0.3986082,6.643064,3.313753,-1
19,M,0,1,10,5,1,37,1,1220,0,0.01842524,6.304463,0.1594904,-1
19,M,0,1,10,6,2,40,4,6630,1,6.768767E-08,12.50543,0,-1
19,M,0,1,10,7,1,39,3,2931,0,0.003471965,6.343978,0.02797646,-1
19,M,0,1,10,8,2,37,1,1675,0,0.2930757,12.42464,1.332074,-1
19,M,0,1,11,1,1,42,2,2253,0,0.139862,6.679811,1.140553,-1
19,M,0,1,11,2,1,44,4,2598,0,0.3175777,6.635496,2.586869,-1
19,M,0,1,11,3,2,42,2,5520,2,0.5250915,12.47259,2.379321,-1
19,M,0,1,11,4,2,43,3,2009,0,0.4633079,12.40743,2.066207,-1
19,M,0,1,11,5,2,41,1,2420,0,0.01313491,12.43248,0.05934703,-1
19,M,0,1,11,6,1,43,3,3976,0,0.3289836,6.345806,2.807283,-1
19,M,0,1,11,7,1,41,1,1176,0,2.13428E-07,6.306023,0,-1
19,M,0,1,11,8,2,44,4,1309,0,0.4361197,12.51332,1.940175,-1
19,M,0,1,12,1,2,46,2,1164,0,0.9645623,12.46677,4.283132,-1
19,M,0,1,12,2,2,48,4,1720,1,0.7421471,12.50396,3.29402,-1
19,M,0,1,12,3,1,47,3,3964,2,0.3116492,6.348542,2.674959,-1
19,M,0,1,12,4,1,48,4,3798,0,0.1243509,6.639291,1.027744,-1
19,M,0,1,12,5,1,45,1,2187,2,0.0181663,6.311022,0.1570175,-1
19,M,0,1,12,6,1,46,2,1776,0,0.2775083,6.676224,2.242888,-1
19,M,0,1,12,7,2,47,3,2331,0,0.3352045,12.4037,1.503761,-1
19,M,0,1,12,8,2,45,1,1798,0,1.748779E-07,12.42342,0,-1
19,M,0,1,13,1,1,50,2,4209,0,0.3540137,6.674463,2.862454,-1
19,M,0,1,13,2,2,51,3,7120,0,1.060755,12.42521,4.736028,-1
19,M,0,1,13,3,2,49,1,2053,1,0.4895078,12.44121,2.207973,-1
19,M,0,1,13,4,2,52,4,1431,0,0.0595283,12.52231,0.2661444,-1
19,M,0,1,13,5,1,51,3,3142,1,0.1458316,6.352094,1.25523,-1
19,M,0,1,13,6,1,52,4,3076,0,0.1305614,6.645288,1.068994,-1
19,M,0,1,13,7,1,49,1,1187,0,0.03081028,6.315847,0.2654082,-1
19,M,0,1,13,8,2,50,2,2553,1,0.9457279,12.47457,4.1968,-1
19,M,0,1,14,1,1,53,1,1231,0,4.119698E-08,6.317758,0.01978234,-1
19,M,0,1,14,2,2,56,4,2887,0,0.8737845,12.51853,3.874492,-1
19,M,0,1,14,3,1,54,2,3131,0,0.1635877,6.687064,1.324265,-1
19,M,0,1,14,4,1,55,3,2209,0,0.1414199,6.350641,1.208204,-1
19,M,0,1,14,5,1,56,4,2942,1,0.5183061,6.639557,4.242055,-1
19,M,0,1,14,6,2,53,1,6420,0,0.2185336,12.42285,0.9915005,-1
19,M,0,1,14,7,2,55,3,2342,0,0.6596947,12.41297,2.941978,-1
19,M,0,1,14,8,2,54,2,3242,2,0.7942026,12.32614,3.590087,-1
19,M,0,1,15,1,2,57,1,3998,0,0.2319698,12.31206,1.059433,-1
19,M,0,1,15,2,2,58,2,2161,1,0.4462629,12.34138,2.003888,-1
19,M,0,1,15,3,2,60,4,1487,0,0.5824142,12.38571,2.610595,-1
19,M,0,1,15,4,1,58,2,4243,1,0.1806005,6.527918,1.494362,-1
19,M,0,1,15,5,1,59,3,2532,0,0.3440307,6.250883,2.973021,-1
19,M,0,1,15,6,1,60,4,4899,0,0.5364608,6.523834,4.542605,-1
19,M,0,1,15,7,2,59,3,3076,1,0.6963722,12.2677,3.150886,-1
19,M,0,1,15,8,1,57,1,1409,0,0.1775763,6.149047,1.571719,-1
19,M,0,1,16,1,2,63,3,2109,0,0.7757863,12.28587,3.493119,-1
19,M,0,1,16,2,1,62,2,1309,0,0.5461786,6.504121,4.528353,-1
19,M,0,1,16,3,1,64,4,4587,1,0.4635878,6.51596,3.928997,-1
19,M,0,1,16,4,1,61,1,1553,0,0.1023934,6.159157,0.9041728,-1
19,M,0,1,16,5,2,62,2,2987,1,1.007026,12.29393,4.548638,-1
19,M,0,1,16,6,2,64,4,2387,1,0.6055349,12.34924,2.722827,-1
19,M,0,1,16,7,2,61,1,2476,0,0.3453673,12.25631,1.591761,-1
19,M,0,1,16,8,1,63,3,2420,0,0.06210938,6.248296,0.5388666,-1
19,M,0,1,17,1,3,68,4,3431,0,0.5160376,6.520102,4.253674,-1
19,M,0,1,17,2,3,65,1,1242,0,0.2040338,6.171762,1.784873,-1
19,M,0,1,17,3,4,68,4,2286,0,0.7425131,12.35645,3.330078,-1
19,M,0,1,17,4,3,67,3,2975,0,0.5072578,6.264757,4.351632,-1
19,M,0,1,17,5,4,66,2,1398,0,0.7576085,12.30924,3.406801,-1
19,M,0,1,17,6,4,65,1,2120,0,0.2399345,12.27211,1.098961,-1
19,M,0,1,17,7,3,66,2,7020,2,8.762546E-08,6.56482,0,-1
19,M,0,1,17,8,4,67,3,2565,0,0.4539375,12.2838,2.081401,-1
19,M,0,1,18,1,4,72,4,4075,1,0.1710851,12.35422,0.774302,-1
19,M,0,1,18,2,4,69,1,1198,0,0.1161414,12.2532,0.5322903,-1
19,M,0,1,18,3,4,71,3,2798,1,0.7669771,12.24826,3.495136,-1
19,M,0,1,18,4,3,70,2,2698,0,0.4054202,6.529488,3.406801,-1
19,M,0,1,18,5,3,69,1,1842,0,0.1650213,6.128472,1.45468,-1
19,M,0,1,18,6,4,70,2,1653,0,0.5380019,12.29506,2.426484,-1
19,M,0,1,18,7,3,71,3,2687,0,0.2004423,6.239662,1.734719,-1
19,M,0,1,18,8,3,72,4,5142,1,1.12915E-07,6.520372,0,-1
19,M,0,1,19,1,3,73,1,1209,0,0.1030015,6.139095,0.9196228,-1
19,M,0,1,19,2,4,75,3,3387,0,1.026085,12.3019,4.662032,-1
19,M,0,1,19,3,4,74,2,1276,0,0.5656982,12.29742,2.554049,-1
19,M,0,1,19,4,3,76,4,4631,1,0.1869702,6.502382,1.565106,-1
19,M,0,1,19,5,4,73,1,2453,0,0.2246369,12.22821,1.035143,-1
19,M,0,1,19,6,3,74,2,5231,1,7.456151E-08,6.527216,0,-1
19,M,0,1,19,7,3,75,3,2964,0,0.111863,6.220768,0.9775878,-1
19,M,0,1,19,8,4,76,4,5187,0,0.9332751,12.38739,4.210544,-1
19,M,0,1,20,1,3,78,2,1497,0,0.3956191,6.521601,3.328138,-1
19,M,0,1,20,2,4,77,1,3554,0,0.3984151,12.22644,1.82349,-1
19,M,0,1,20,3,4,79,3,2364,0,0.3658421,12.27905,1.663658,-1
19,M,0,1,20,4,3,80,4,4631,1,0.04422459,6.494956,0.3716771,-1
19,M,0,1,20,5,4,78,2,1253,0,0.6067464,12.30566,2.754987,-1
19,M,0,1,20,6,4,80,4,2553,0,0.5712435,12.30889,2.611345,-1
19,M,0,1,20,7,3,77,1,3176,0,0.2102091,6.130902,1.864456,-1
19,M,0,1,20,8,3,79,3,2264,0,0.0862781,6.232962,0.7488656,-1
19,M,0,1,20,1,1,77,1,1131,0,6.388186E-08,6.151547,0,-1
19,M,0,1,20,2,1,80,4,3120,0,0.3709405,6.517642,3.141428,-1
19,M,0,1,20,3,2,78,2,2064,1,0.005275798,12.26642,0.02797646,-1
19,M,0,1,20,4,2,79,3,1809,0,0.7482535,12.24263,3.410362,-1
19,M,0,1,20,5,1,78,2,2631,0,0.4137312,6.473847,3.444067,-1
19,M,0,1,20,6,2,80,4,4876,1,0.3002943,12.31407,1.368021,-1
19,M,0,1,20,7,1,79,3,2487,0,0.2216742,6.22713,1.936439,-1
19,M,0,1,20,8,2,77,1,1253,0,0.4217,12.25273,1.930365,-1
19,M,0,1,21,1,1,83,3,2553,0,0.5327793,6.235011,4.652484,-1
19,M,0,1,21,2,1,81,1,1165,0,9.817879E-08,6.144376,0,-1
19,M,0,1,21,3,1,84,4,3642,1,0.377065,6.502479,3.190341,-1
19,M,0,1,21,4,2,82,2,1220,0,0.3511598,12.27345,1.589178,-1
19,M,0,1,21,5,2,84,4,1309,0,0.2016707,12.31837,0.9145018,-1
19,M,0,1,21,6,2,81,1,1331,0,0.4245808,12.25074,1.943903,-1
19,M,0,1,21,7,2,83,3,1331,0,0.452151,12.25457,2.040376,-1
19,M,0,1,21,8,1,82,2,2420,1,0.3385775,6.46331,2.913629,-1
19,M,0,1,22,1,1,85,1,1287,0,0.07946459,6.124959,0.7047113,-1
19,M,0,1,22,2,2,86,2,2809,0,0.8901695,12.26405,4.002914,-1
19,M,0,1,22,3,2,87,3,1175,0,0.5751947,12.24753,2.598948,-1
19,M,0,1,22,4,2,88,4,1131,0,0.6969608,12.32337,3.149581,-1
19,M,0,1,22,5,1,86,2,2776,0,0.02914749,6.468551,0.2462884,-1
19,M,0,1,22,6,1,88,4,2809,0,0.4268754,6.492485,3.630599,-1
19,M,0,1,22,7,1,87,3,2842,0,0.533361,6.232433,4.659511,-1
19,M,0,1,22,8,2,85,1,2476,0,0.0484947,12.25728,0.220287,-1
19,M,0,1,23,1,2,92,4,2176,1,0.2284097,12.32648,1.03854,-1
19,M,0,1,23,2,2,89,1,1176,0,0.2549654,12.26015,1.166675,-1
19,M,0,1,23,3,1,90,2,2098,0,0.4613899,6.455307,3.824591,-1
19,M,0,1,23,4,1,89,1,1809,1,0.09281544,6.137714,0.8211529,-1
19,M,0,1,23,5,1,91,3,2287,0,0.2955332,6.234072,2.575875,-1
19,M,0,1,23,6,2,90,2,976,0,0.7051246,12.27992,3.172928,-1
19,M,0,1,23,7,2,91,3,3031,1,0.5900345,12.24854,2.669098,-1
19,M,0,1,23,8,1,92,4,2976,0,0.2309261,6.500161,1.940477,-1
19,M,0,1,24,1,1,93,1,942,0,0.01077559,6.128541,0.09487279,-1
19,M,0,1,24,2,2,94,2,1498,1,0.351532,12.27634,1.59127,-1
19,M,0,1,24,3,2,96,4,2487,0,0.1263415,12.32227,0.5726661,-1
19,M,0,1,24,4,1,95,3,2576,0,0.4181732,6.230016,3.652966,-1
19,M,0,1,24,5,2,93,1,2376,0,0.5885299,12.25141,2.698709,-1
19,M,0,1,24,6,1,96,4,4798,0,0.3230215,6.486395,2.748942,-1
19,M,0,1,24,7,2,95,3,2387,0,0.7366638,12.23157,3.329843,-1
19,M,0,1,24,8,1,94,2,2076,0,0.001142319,6.461814,0.01978234,-1
19,M,0,1,25,1,1,99,3,3353,1,0.08358738,6.225899,0.7287365,-1
19,M,0,1,25,2,2,100,4,1487,0,0.8302165,12.32298,3.731611,-1
19,M,0,1,25,3,2,97,1,3020,0,0.01551101,12.25281,0.07132626,-1
19,M,0,1,25,4,1,98,2,3687,2,0.3699777,6.460994,3.077526,-1
19,M,0,1,25,5,1,97,1,1153,0,0.4045253,6.126952,3.563263,-1
19,M,0,1,25,6,2,99,3,1776,0,0.3626937,12.24745,1.641394,-1
19,M,0,1,25,7,1,100,4,2809,1,0.2301212,6.496374,1.953645,-1
19,M,0,1,25,8,2,98,2,1453,1,0.6832762,12.25212,3.084007,-1
19,M,0,1,26,1,2,101,1,1765,0,0.01974192,12.24179,0.09065409,-1
19,M,0,1,26,2,1,103,3,2276,0,0.2590168,6.234127,2.26088,-1
19,M,0,1,26,3,1,104,4,3942,1,0.06327957,6.492571,0.5366834,-1
19,M,0,1,26,4,1,102,2,1865,0,0.0002522021,6.468621,0.01978234,-1
19,M,0,1,26,5,2,103,3,1764,0,0.6608639,12.22904,3.011229,-1
19,M,0,1,26,6,2,102,2,1020,0,0.7169431,12.25858,3.234464,-1
19,M,0,1,26,7,1,101,1,1187,0,0.2810051,6.125662,2.495048,-1
19,M,0,1,26,8,2,104,4,1820,0,0.7187509,12.3156,3.240451,-1
19,M,0,1,27,1,2,105,1,1387,0,0.1081026,12.23901,0.4969283,-1
19,M,0,1,27,2,1,108,4,4231,2,0.2569071,6.487187,2.14174,-1
19,M,0,1,27,3,1,106,2,1253,0,0.5179989,6.456065,4.324724,-1
19,M,0,1,27,4,1,105,1,1198,0,1.377246E-07,6.135408,0,-1
19,M,0,1,27,5,2,107,3,2631,1,0.6812765,12.23767,3.140368,-1
19,M,0,1,27,6,2,106,2,1486,0,0.7380301,12.27343,3.325784,-1
19,M,0,1,27,7,2,108,4,3298,2,0.06178955,12.32185,0.2797648,-1
19,M,0,1,27,8,1,107,3,2542,0,0.4707293,6.225984,4.111279,-1
19,M,0,1,28,1,1,112,4,2698,0,0.529411,6.482944,4.510758,-1
19,M,0,1,28,2,1,109,1,1042,0,1.078651E-07,6.134314,0,-1
19,M,0,1,28,3,2,112,4,2276,1,0.300795,12.3185,1.361138,-1
19,M,0,1,28,4,2,109,1,2198,0,0.2875063,12.2382,1.319824,-1
19,M,0,1,28,5,1,110,2,2798,1,0.4058748,6.462682,3.384024,-1
19,M,0,1,28,6,1,111,3,2331,0,0.4030336,6.217394,3.515189,-1
19,M,0,1,28,7,2,110,2,1509,0,0.8903724,12.25914,4.017856,-1
19,M,0,1,28,8,2,111,3,1876,0,0.06711558,12.23841,0.3064671,-1
19,M,0,1,29,1,2,114,2,2176,1,0.7782562,12.25944,3.511121,-1
19,M,0,1,29,2,2,115,3,1620,0,0.720693,12.24114,3.279904,-1
19,M,0,1,29,3,2,113,1,1165,0,0.3921662,12.25097,1.79526,-1
19,M,0,1,29,4,1,114,2,2164,0,1.734174E-07,6.460991,0,-1
19,M,0,1,29,5,1,116,4,2498,0,0.4677408,6.485184,3.977098,-1
19,M,0,1,29,6,1,115,3,2331,0,0.172878,6.22649,1.506492,-1
19,M,0,1,29,7,1,113,1,1109,0,0.1513129,6.134312,1.335888,-1
19,M,0,1,29,8,2,116,4,2453,0,0.93518,12.317,4.254871,-1
19,M,0,1,30,1,1,119,3,2320,0,0.3282184,6.2324,2.854442,-1
19,M,0,1,30,2,2,118,2,1320,0,0.7673982,12.2708,3.459042,-1
19,M,0,1,30,3,1,117,1,1076,0,0.4423193,6.146293,3.888165,-1
19,M,0,1,30,4,1,120,4,3876,0,0.2028969,6.491797,1.719422,-1
19,M,0,1,30,5,2,119,3,1676,0,0.9125343,12.25286,4.119037,-1
19,M,0,1,30,6,2,117,1,1576,0,0.4117548,12.25763,1.884191,-1
19,M,0,1,30,7,2,120,4,2453,0,0.5570144,12.32388,2.547374,-1
19,M,0,1,30,8,1,118,2,2331,1,0.1490738,6.479399,1.250544,-1
19,M,0,1,31,1,2,121,1,1065,0,0.1638094,12.25313,0.7527748,-1
19,M,0,1,31,2,2,122,2,1887,1,0.3795338,12.27466,1.719194,-1
19,M,0,1,31,3,1,124,4,3742,1,0.09571376,6.501544,0.8042993,-1
19,M,0,1,31,4,1,121,1,1120,0,0.1464348,6.140707,1.291346,-1
19,M,0,1,31,5,1,122,2,1976,0,0.1361887,6.483535,1.139008,-1
19,M,0,1,31,6,2,123,3,2409,0,0.2616524,12.24669,1.187621,-1
19,M,0,1,31,7,2,124,4,5342,1,0.563041,12.33009,2.534354,-1
19,M,0,1,31,8,1,123,3,2387,0,0.3467323,6.237017,3.007977,-1
19,M,0,1,32,1,2,125,1,5009,0,0.8803483,12.27582,4.030509,-1
19,M,0,1,32,2,2,126,2,1576,1,0.4278338,12.27085,1.932189,-1
19,M,0,1,32,3,1,125,1,1076,0,0.1152714,6.14501,1.017603,-1
19,M,0,1,32,4,1,126,2,2587,1,0.1537389,6.464711,1.28816,-1
19,M,0,1,32,5,1,127,3,2331,0,0.3175412,6.21584,2.773752,-1
19,M,0,1,32,6,1,128,4,3064,1,0.04845874,6.491093,0.410693,-1
19,M,0,1,32,7,2,127,3,1776,0,0.7117481,12.24757,3.214428,-1
19,M,0,1,32,8,2,128,4,1542,0,0.3901692,12.32301,1.760587,-1
19,M,0,1,33,1,2,130,2,1731,1,0.4459386,12.25962,2.021488,-1
19,M,0,1,33,2,2,131,3,1909,1,0.5440994,12.23909,2.464184,-1
19,M,0,1,33,3,2,132,4,1709,0,0.8681018,12.32478,3.915317,-1
19,M,0,1,33,4,1,131,3,1809,0,0.2960011,6.225973,2.586643,-1
19,M,0,1,33,5,2,129,1,998,0,0.4687789,12.24558,2.146852,-1
19,M,0,1,33,6,1,132,4,2320,0,0.298123,6.49588,2.533428,-1
19,M,0,1,33,7,1,130,2,2631,1,0.5074521,6.462862,4.232256,-1
19,M,0,1,33,8,1,129,1,3020,2,0.1950591,6.127838,1.751448,-1
19,M,0,1,34,1,1,134,2,2176,0,0.2074314,6.463846,1.729522,-1
19,M,0,1,34,2,1,136,4,3342,0,0.4170229,6.501688,3.542045,-1
19,M,0,1,34,3,2,134,2,1331,0,0.5269538,12.26587,2.379486,-1
19,M,0,1,34,4,2,135,3,5476,1,0.06465524,12.25433,0.2940859,-1
19,M,0,1,34,5,1,133,1,1042,0,0.1716178,6.145744,1.510254,-1
19,M,0,1,34,6,1,135,3,3231,2,0.1830381,6.234576,1.585356,-1
19,M,0,1,34,7,2,136,4,1997,0,0.725161,12.33543,3.265427,-1
19,M,0,1,34,8,2,133,1,1287,0,0.1980192,12.26395,0.9063343,-1
19,M,0,1,35,1,1,140,4,3320,1,0.4076839,6.501535,3.462323,-1
19,M,0,1,35,2,1,138,2,1898,0,0.1570526,6.47204,1.313731,-1
19,M,0,1,35,3,1,139,3,3453,1,0.2493244,6.245473,2.16844,-1
19,M,0,1,35,4,2,137,1,1798,0,0.5182462,12.29121,2.367363,-1
19,M,0,1,35,5,2,139,3,2442,1,0.6125584,12.27664,2.758538,-1
19,M,0,1,35,6,1,137,1,1042,0,0.01038723,6.163383,0.09278741,-1
19,M,0,1,35,7,2,138,2,1209,0,0.8236134,12.29073,3.706814,-1
19,M,0,1,35,8,2,140,4,1653,0,1.014677,12.34046,4.55234,-1
19,M,0,1,37,1,4,146,2,1553,0,0.8371871,12.32938,3.795605,-1
19,M,0,1,37,2,4,148,4,1420,0,0.6778431,12.34168,3.051077,-1
19,M,0,1,37,3,3,145,1,1098,0,0.3468845,6.159842,3.023556,-1
19,M,0,1,37,4,3,148,4,5064,0,0.3447634,6.513653,2.922015,-1
19,M,0,1,37,5,3,147,3,2520,0,0.4448247,6.252545,3.872774,-1
19,M,0,1,37,6,3,146,2,3753,0,0.1499234,6.481348,1.253045,-1
19,M,0,1,37,7,4,147,3,1898,0,0.4514642,12.2576,2.045358,-1
19,M,0,1,37,8,4,145,1,1165,0,0.3684434,12.26742,1.684931,-1
19,M,0,1,38,1,3,151,3,2465,0,0.3248884,6.246115,2.817584,-1
19,M,0,1,38,2,4,150,2,1153,0,0.6085708,12.28678,2.740955,-1
19,M,0,1,38,3,4,149,1,1242,0,0.3098072,12.2493,1.419411,-1
19,M,0,1,38,4,4,152,4,1742,1,0.316505,12.35659,1.430398,-1
19,M,0,1,38,5,3,149,1,1276,0,4.122584E-08,6.148037,0,-1
19,M,0,1,38,6,3,152,4,2731,1,0.3266756,6.486123,2.754632,-1
19,M,0,1,38,7,3,150,2,5531,1,0.165764,6.489852,1.380835,-1
19,M,0,1,38,8,4,151,3,2642,0,6.436488E-09,12.2642,0,-1
19,M,0,1,39,1,4,153,1,1165,0,0.1622022,12.26735,0.7423044,-1
19,M,0,1,39,2,4,154,2,1320,0,0.9748372,12.29494,4.404955,-1
19,M,0,1,39,3,3,155,3,3009,1,0.4399157,6.267688,3.821057,-1
19,M,0,1,39,4,4,156,4,2586,1,0.5634112,12.35612,2.538753,-1
19,M,0,1,39,5,3,153,1,4065,0,0.0568653,6.180537,0.5035778,-1
19,M,0,1,39,6,3,154,2,1931,0,0.2986509,6.481213,2.482464,-1
19,M,0,1,39,7,4,155,3,1887,0,0.4623765,12.26535,2.092,-1
19,M,0,1,39,8,3,156,4,3031,0,0.08593259,6.483747,0.7241574,-1
19,M,0,1,40,1,3,159,3,3642,0,0.5112345,6.239497,4.461288,-1
19,M,0,1,40,2,4,160,4,1876,0,0.5241584,12.38016,2.364882,-1
19,M,0,1,40,3,4,159,3,2520,2,0.5692946,12.28263,2.588609,-1
19,M,0,1,40,4,4,158,2,9999,0,-1,-1,-1,-1
19,M,0,1,40,5,3,157,1,6864,0,0.1688078,6.168622,1.52007,-1
19,M,0,1,40,6,3,158,2,2764,2,0.4338837,6.493681,3.605217,-1
19,M,0,1,40,7,4,157,1,1520,0,5.220422E-08,12.25911,0,-1
19,M,0,1,40,8,3,160,4,2987,0,0.3526776,6.516451,2.988062,-1
19,M,0,1,41,1,1,162,2,1587,0,0.4416049,6.478733,3.673918,-1
19,M,0,1,41,2,1,163,3,2253,0,0.06154048,6.236051,0.5359538,-1
19,M,0,1,41,3,1,164,4,2565,0,0.2971454,6.494724,2.473143,-1
19,M,0,1,41,4,2,162,2,1464,1,0.7489888,12.26836,3.379856,-1
19,M,0,1,41,5,2,164,4,1287,0,0.8291122,12.32005,3.730666,-1
19,M,0,1,41,6,2,161,1,1131,0,5.87354E-08,12.245,0,-1
19,M,0,1,41,7,2,163,3,2453,2,0.523356,12.24839,2.36513,-1
19,M,0,1,41,8,1,161,1,1098,0,0.06013645,6.144895,0.5341251,-1
19,M,0,1,42,1,2,168,4,1398,0,0.5288062,12.32326,2.382035,-1
19,M,0,1,42,2,2,166,2,1009,0,0.7480045,12.27288,3.370981,-1
19,M,0,1,42,3,2,167,3,1020,0,0.697436,12.25944,3.148524,-1
19,M,0,1,42,4,1,166,2,3965,3,9.242271E-08,6.483029,0,-1
19,M,0,1,42,5,1,165,1,1031,0,0.03466335,6.124667,0.3077414,-1
19,M,0,1,42,6,1,167,3,1731,0,0.3136038,6.237217,2.735808,-1
19,M,0,1,42,7,1,168,4,2953,0,0.248316,6.495937,2.092748,-1
19,M,0,1,42,8,2,165,1,5220,0,0.1433758,12.24487,0.6590852,-1
19,M,0,1,43,1,1,172,4,4053,0,0.3857978,6.502966,3.275843,-1
19,M,0,1,43,2,2,169,1,1365,0,0.7739667,12.25274,3.544698,-1
19,M,0,1,43,3,2,171,3,2520,1,0.5091692,12.25311,2.297718,-1
19,M,0,1,43,4,1,170,2,1276,0,0.1611164,6.477176,1.344503,-1
19,M,0,1,43,5,2,172,4,1620,0,0.7675996,12.32644,3.448441,-1
19,M,0,1,43,6,1,171,3,1776,0,0.5163125,6.227165,4.492047,-1
19,M,0,1,43,7,1,169,1,1065,0,0.2659914,6.131145,2.340005,-1
19,M,0,1,43,8,2,170,2,1209,0,0.8646811,12.29026,3.887611,-1
19,M,0,1,44,1,1,173,1,942,0,0.1689732,6.149685,1.486484,-1
19,M,0,1,44,2,2,174,2,1542,1,0.5173712,12.2921,2.329358,-1
19,M,0,1,44,3,1,176,4,1898,0,0.3933281,6.508574,3.337008,-1
19,M,0,1,44,4,1,175,3,2187,0,0.4000029,6.2519,3.482228,-1
19,M,0,1,44,5,1,174,2,2253,1,0.233723,6.487514,1.943803,-1
19,M,0,1,44,6,2,176,4,4820,0,0.7022783,12.3238,3.158085,-1
19,M,0,1,44,7,2,175,3,1942,0,0.7737579,12.26003,3.493679,-1
19,M,0,1,44,8,2,173,1,2309,1,5.610602E-08,12.25739,0,-1
19,M,0,1,45,1,2,179,3,1231,0,0.8278362,12.26564,3.732661,-1
19,M,0,1,45,2,2,178,2,1342,0,0.7510263,12.28715,3.380841,-1
19,M,0,1,45,3,1,180,4,2198,0,0.1018695,6.50557,0.857978,-1
19,M,0,1,45,4,1,177,1,987,0,0.09284185,6.140392,0.8213912,-1
19,M,0,1,45,5,1,179,3,2131,0,0.2245587,6.240065,1.957647,-1
19,M,0,1,45,6,2,180,4,4275,0,0.4510135,12.34159,2.05538,-1
19,M,0,1,45,7,2,177,1,1120,0,0.3701227,12.27246,1.69177,-1
19,M,0,1,45,8,1,178,2,3042,2,2.170452E-07,6.523026,0,-1
19,M,0,1,46,1,1,181,1,1142,0,2.023497E-08,6.118774,0,-1
19,M,0,1,46,2,2,184,4,2776,0,0.2402638,12.35531,1.083901,-1
19,M,0,1,46,3,1,182,2,2565,1,0.2488381,6.47624,2.072071,-1
19,M,0,1,46,4,1,183,3,2265,0,0.3488077,6.252398,3.03054,-1
19,M,0,1,46,5,2,182,2,1009,0,0.7479212,12.30829,3.361152,-1
19,M,0,1,46,6,2,181,1,1197,0,0.1111987,12.28138,0.5089886,-1
19,M,0,1,46,7,2,183,3,3853,3,0.6088218,12.27521,2.78073,-1
19,M,0,1,46,8,1,184,4,2698,0,0.4114436,6.530195,3.479247,-1
19,M,0,1,47,1,1,186,2,2453,1,0.05400726,6.499149,0.4519747,-1
19,M,0,1,47,2,2,185,1,2065,0,0.4596733,12.25882,2.103196,-1
19,M,0,1,47,3,1,188,4,2631,0,0.3351758,6.52094,2.815082,-1
19,M,0,1,47,4,1,185,1,1142,0,0.1039439,6.143477,0.922597,-1
19,M,0,1,47,5,2,188,4,1797,0,0.3160768,12.34663,1.446857,-1
19,M,0,1,47,6,1,187,3,3376,0,0.3326975,6.249397,2.896919,-1
19,M,0,1,47,7,2,186,2,1120,0,0.753768,12.28142,3.394653,-1
19,M,0,1,47,8,2,187,3,2009,1,0.7576743,12.26589,3.415811,-1
19,M,0,1,48,1,2,192,4,1176,0,0.3636527,12.33874,1.640082,-1
19,M,0,1,48,2,1,189,1,1353,1,0.1983754,6.147512,1.743721,-1
19,M,0,1,48,3,1,190,2,1676,0,0.3846266,6.492991,3.192611,-1
19,M,0,1,48,4,2,191,3,1976,0,0.4569046,12.26343,2.065165,-1
19,M,0,1,48,5,2,190,2,1220,0,0.1494828,12.28401,0.6798376,-1
19,M,0,1,48,6,1,191,3,1853,0,0.3487318,6.241544,3.018891,-1
19,M,0,1,48,7,2,189,1,1076,0,0.4770498,12.25833,2.203359,-1
19,M,0,1,48,8,1,192,4,3998,1,0.1744337,6.524325,1.452526,-1
19,M,0,1,49,1,2,195,3,2187,1,0.7454354,12.26129,3.361909,-1
19,M,0,1,49,2,2,194,2,753,0,0.2481974,12.29298,1.123613,-1
19,M,0,1,49,3,1,193,1,865,0,0.3321181,6.151881,2.915711,-1
19,M,0,1,49,4,1,196,4,2754,1,0.43975,6.5202,3.724993,-1
19,M,0,1,49,5,1,195,3,2131,0,0.4014807,6.240165,3.486555,-1
19,M,0,1,49,6,2,196,4,1253,0,0.5330716,12.35398,2.396207,-1
19,M,0,1,49,7,2,193,1,1276,0,0.6135955,12.26744,2.808259,-1
19,M,0,1,49,8,1,194,2,3031,1,0.3492643,6.494023,2.898473,-1
19,M,0,1,50,1,2,200,4,1131,0,0.7176366,12.34425,3.2227,-1
19,M,0,1,50,2,2,199,3,1809,0,1.049244,12.26571,4.73309,-1
19,M,0,1,50,3,1,198,2,3031,1,0.430838,6.494036,3.576208,-1
19,M,0,1,50,4,1,197,1,1120,0,0.459789,6.148166,4.040457,-1
19,M,0,1,50,5,1,200,4,3353,0,0.459525,6.518945,3.893399,-1
19,M,0,1,50,6,1,199,3,2898,0,0.221225,6.245535,1.926509,-1
19,M,0,1,50,7,2,198,2,1042,0,0.2819408,12.3004,1.274875,-1
19,M,0,1,50,8,2,197,1,1187,0,0.5803527,12.27714,2.651661,-1
19,M,0,1,51,1,1,204,4,2498,0,0.3235277,6.526735,2.736953,-1
19,M,0,1,51,2,2,202,2,976,0,0.9459196,12.29419,4.252615,-1
19,M,0,1,51,3,2,203,3,1608,0,0.7208397,12.27705,3.250163,-1
19,M,0,1,51,4,2,204,4,1253,0,0.6766098,12.35264,3.048574,-1
19,M,0,1,51,5,1,203,3,2098,0,0.333267,6.249735,2.894688,-1
19,M,0,1,51,6,2,201,1,1120,0,0.07849424,12.27301,0.3593647,-1
19,M,0,1,51,7,1,202,2,1520,0,0.3437409,6.495862,2.851904,-1
19,M,0,1,51,8,1,201,1,853,0,0.5154992,6.147023,4.531813,-1
19,M,0,1,52,1,2,206,2,976,0,0.6177247,12.29303,2.793442,-1
19,M,0,1,52,2,2,205,1,909,0,0.3199565,12.27785,1.461927,-1
19,M,0,1,52,3,1,207,3,2098,1,0.3169738,6.260778,2.754987,-1
19,M,0,1,52,4,2,208,4,1187,0,0.5229069,12.3618,2.348187,-1
19,M,0,1,52,5,1,206,2,2798,1,0.3966432,6.500017,3.289143,-1
19,M,0,1,52,6,1,208,4,3042,0,0.4148649,6.53703,3.478796,-1
19,M,0,1,52,7,1,205,1,987,0,0.380071,6.148782,3.336539,-1
19,M,0,1,52,8,2,207,3,1209,0,0.6161554,12.29302,2.774246,-1
19,M,0,1,53,1,2,209,1,1020,0,1.61113E-07,12.27774,0.01978234,-1
19,M,0,1,53,2,2,211,3,1831,1,0.6507443,12.29052,2.930377,-1
19,M,0,1,53,3,1,210,2,2076,1,0.4128191,6.499327,3.423769,-1
19,M,0,1,53,4,2,212,4,4253,0,0.9532545,12.34896,4.279609,-1
19,M,0,1,53,5,2,210,2,942,0,0.7758972,12.29524,3.490708,-1
19,M,0,1,53,6,1,211,3,2620,1,0.3628491,6.257209,3.153805,-1
19,M,0,1,53,7,1,212,4,2142,0,0.1276474,6.543532,1.064224,-1
19,M,0,1,53,8,1,209,1,1276,0,0.2197623,6.160483,1.940074,-1
19,M,0,1,54,1,2,214,2,2087,1,0.6234965,12.30906,2.802258,-1
19,M,0,1,54,2,2,216,4,2620,0,0.6987127,12.35796,3.139807,-1
19,M,0,1,54,3,2,215,3,2398,1,0.6717309,12.28288,3.024851,-1
19,M,0,1,54,4,2,213,1,1609,0,0.5035145,12.28604,2.298655,-1
19,M,0,1,54,5,1,214,2,1698,0,0.2886975,6.523149,2.400206,-1
19,M,0,1,54,6,1,213,1,1153,0,0.1852603,6.165221,1.624858,-1
19,M,0,1,54,7,1,215,3,1876,0,0.09612076,6.260457,0.835094,-1
19,M,0,1,54,8,1,216,4,2231,0,0.06540994,6.547727,0.5464389,-1
19,M,0,1,55,1,1,219,3,2265,0,0.2024022,6.263364,1.758139,-1
19,M,0,1,55,2,2,217,1,2620,0,0.2382609,12.30694,1.086425,-1
19,M,0,1,55,3,1,220,4,2776,0,0.4890334,6.545969,4.086051,-1
19,M,0,1,55,4,2,219,3,1509,0,0.6460204,12.29106,2.90872,-1
19,M,0,1,55,5,1,218,2,1620,0,8.9926E-08,6.524953,0.01978234,-1
19,M,0,1,55,6,1,217,1,920,0,0.4310648,6.174895,3.772059,-1
19,M,0,1,55,7,2,218,2,1154,0,0.7333829,12.31992,3.292772,-1
19,M,0,1,55,8,2,220,4,1298,0,0.6883267,12.36699,3.099962,-1
19,M,0,1,56,1,1,223,3,2042,0,0.5190353,6.273615,4.505283,-1
19,M,0,1,56,2,2,221,1,1020,0,0.0352782,12.2967,0.1607126,-1
19,M,0,1,56,3,2,222,2,1720,1,0.6260225,12.32169,2.810001,-1
19,M,0,1,56,4,2,224,4,1020,0,0.9342235,12.37559,4.175701,-1
19,M,0,1,56,5,2,223,3,1387,0,0.8126871,12.30668,3.652483,-1
19,M,0,1,56,6,1,221,1,909,0,0.145698,6.183195,1.277482,-1
19,M,0,1,56,7,1,222,2,2998,1,0.3411304,6.537833,2.804003,-1
19,M,0,1,56,8,1,224,4,2098,0,0.3529982,6.555997,2.973284,-1
19,M,0,1,57,1,3,226,2,1320,0,0.5453628,6.491556,4.592779,-1
19,M,0,1,57,2,3,225,1,1365,0,0.07179394,6.122059,0.6407191,-1
19,M,0,1,57,3,4,227,3,1031,0,0.442623,12.2272,2.00213,-1
19,M,0,1,57,4,4,228,4,2042,1,0.8419479,12.30105,3.798338,-1
19,M,0,1,57,5,3,227,3,2165,1,0.4589567,6.224106,3.980445,-1
19,M,0,1,57,6,3,228,4,2831,0,0.1239276,6.489654,1.037786,-1
19,M,0,1,57,7,4,226,2,1120,0,0.6705008,12.24409,3.079052,-1
19,M,0,1,57,8,4,225,1,887,0,0.4272802,12.20912,1.959446,-1
19,M,0,1,58,1,3,232,4,2042,0,0.3731125,6.481004,3.131816,-1
19,M,0,1,58,2,3,231,3,2487,0,0.2313125,6.222801,2.010713,-1
19,M,0,1,58,3,4,229,1,2642,0,0.4491912,12.28513,2.057759,-1
19,M,0,1,58,4,4,231,3,1242,0,0.967622,12.28556,4.405445,-1
19,M,0,1,58,5,4,232,4,1898,0,0.09837229,12.32455,0.4480613,-1
19,M,0,1,58,6,4,230,2,1209,0,0.9847182,12.25822,4.444705,-1
19,M,0,1,58,7,3,229,1,1320,0,0.1758587,6.147189,1.555196,-1
19,M,0,1,58,8,3,230,2,3164,0,0.3466898,6.461048,2.896446,-1
19,M,0,1,59,1,4,233,1,1120,0,0.1019728,12.21673,0.4689721,-1
19,M,0,1,59,2,3,234,2,3542,0,0.198105,6.46671,1.661304,-1
19,M,0,1,59,3,3,235,3,1454,0,0.4251749,6.256833,3.660997,-1
19,M,0,1,59,4,4,236,4,4164,1,0.1453562,12.36518,0.659382,-1
19,M,0,1,59,5,4,234,2,1020,0,0.6705992,12.28102,3.027115,-1
19,M,0,1,59,6,4,235,3,2331,2,0.6411369,12.32508,2.90569,-1
19,M,0,1,59,7,3,236,4,2776,0,0.2154279,6.506739,1.796894,-1
19,M,0,1,59,8,3,233,1,1253,0,0.4997938,6.191252,4.414816,-1
19,M,0,1,60,1,4,240,4,1909,0,0.2600441,12.38107,1.176363,-1
19,M,0,1,60,2,4,238,2,1065,0,0.8249688,12.29776,3.710879,-1
19,M,0,1,60,3,3,240,4,2298,0,0.3970648,6.531422,3.308313,-1
19,M,0,1,60,4,3,239,3,2853,0,0.19388,6.284934,1.68342,-1
19,M,0,1,60,5,3,237,1,1076,0,0.01431871,6.203634,0.1266688,-1
19,M,0,1,60,6,4,239,3,4875,0,0.5218829,12.31207,2.352684,-1
19,M,0,1,60,7,3,238,2,1865,0,0.4838513,6.498489,4.013565,-1
19,M,0,1,60,8,4,237,1,1065,0,0.5927153,12.27399,2.702333,-1
19,M,0,1,61,1,1,242,2,2153,0,0.2035243,6.510984,1.686208,-1
19,M,0,1,61,2,1,241,1,1376,0,0.1600705,6.172918,1.406392,-1
19,M,0,1,61,3,2,244,4,2909,0,0.03315081,12.36894,0.1493534,-1
19,M,0,1,61,4,2,243,3,2031,2,0.5027803,12.30271,2.260187,-1
19,M,0,1,61,5,2,242,2,1098,0,0.9517856,12.31774,4.27558,-1
19,M,0,1,61,6,1,243,3,2042,0,0.4420646,6.285908,3.829094,-1
19,M,0,1,61,7,2,241,1,1053,0,0.5580648,12.30977,2.543221,-1
19,M,0,1,61,8,1,244,4,2420,0,0.2782455,6.537679,2.349521,-1
19,M,0,1,62,1,1,247,3,1609,0,0.5140142,6.285807,4.432261,-1
19,M,0,1,62,2,1,245,1,1031,0,0.2879615,6.189092,2.513338,-1
19,M,0,1,62,3,2,246,2,1642,1,0.226315,12.32272,1.024693,-1
19,M,0,1,62,4,1,248,4,2053,0,0.4180001,6.540203,3.529475,-1
19,M,0,1,62,5,2,247,3,1676,0,0.7194802,12.31217,3.231376,-1
19,M,0,1,62,6,1,246,2,1431,0,0.2110123,6.510734,1.748205,-1
19,M,0,1,62,7,2,248,4,3331,0,0.6942815,12.37281,3.140992,-1
19,M,0,1,62,8,2,245,1,876,0,0.8371626,12.32228,3.812643,-1
19,M,0,1,1,1,6,4,4,4774,0,0.5792077,12.34377,2.60797,-1
19,M,0,1,1,2,7,2,2,4553,0,3.326349,6.463466,29.99049,-1
19,M,0,1,1,3,7,4,4,3964,0,2.444355,6.522787,21.16371,-1
19,M,0,1,1,4,5,1,1,1542,0,0.7409441,6.148742,6.519087,-1
19,M,0,1,1,5,5,4,4,2398,0,2.938573,6.496706,25.83117,-1
19,M,0,1,1,6,5,3,3,4331,0,3.549368,6.287979,32.4892,-1
19,M,0,1,1,7,8,2,2,2242,0,9.201312,12.29888,48.4297,-1
19,M,0,1,1,8,7,1,1,3109,0,3.598816,6.167718,35.69654,-1
19,M,0,1,1,9,6,2,2,5064,0,7.989588,12.29724,40.51944,-1
19,M,0,1,1,10,6,1,1,1853,0,1.282656,12.2632,5.988084,-1
19,M,0,1,1,11,7,3,3,2320,0,2.817387,6.285645,25.05301,-1
19,M,0,1,1,12,5,2,2,1098,0,1.790707,6.49058,15.03486,-1
19,M,0,1,1,13,8,3,3,987,0,2.178449,12.2845,9.859994,-1
19,M,0,1,1,14,8,4,4,5442,0,5.29208,12.39603,25.10232,-1
19,M,0,1,1,15,8,1,1,2320,0,3.408832,12.28229,16.08253,-1
19,M,0,1,1,16,6,3,3,3353,0,1.574568,12.28175,7.103985,-1
19,M,0,1,2,1,7,3,3,3520,0,0.3974946,6.258276,3.432963,-1
19,M,0,1,2,2,7,4,4,4598,0,4.669792,6.536312,45.59719,-1
19,M,0,1,2,3,7,1,1,4387,0,5.014774,6.173932,54.0058,-1
19,M,0,1,2,4,8,4,4,3375,0,1.64555,12.42178,7.564081,-1
19,M,0,1,2,5,5,2,2,3876,0,0.7924961,6.516939,6.54008,-1
19,M,0,1,2,6,5,3,3,1420,0,3.487664,6.300092,31.72074,-1
19,M,0,1,2,7,7,2,2,1165,0,2.207985,6.497825,18.65523,-1
19,M,0,1,2,8,8,3,3,1387,0,1.393785,12.30133,6.281569,-1
19,M,0,1,2,9,5,1,1,1598,0,4.221572,6.196092,42.94752,-1
19,M,0,1,2,10,5,4,4,1042,0,5.272338,6.555906,53.53421,-1
19,M,0,1,2,11,6,2,2,1065,0,3.50342,12.30472,15.98597,-1
19,M,0,1,2,12,6,1,1,1276,0,0.514388,12.28137,2.36604,-1
19,M,0,1,2,13,8,2,2,1231,0,6.772602,12.33023,33.3168,-1
19,M,0,1,2,14,8,1,1,2264,0,4.710148,12.28094,22.5527,-1
19,M,0,1,2,15,6,4,4,3242,0,0.995541,12.37638,4.460014,-1
19,M,0,1,2,16,6,3,3,1587,0,7.357424,12.31581,36.68367,-1
