Age, Gender, Awareness Type, Session, Block, Trial, Set, Pattern, Quadrant, Response Time, Num Mistakes, Distance From Target, Camera Distance From Target, Angle Error (Degrees), FC Response
19,F,0,1,1,1,2,1,1,2331,0,0.9338474,12.15156,4.310163,-1
19,F,0,1,1,2,2,4,4,7286,0,0.3976386,12.30129,1.816608,-1
19,F,0,1,1,3,2,2,2,1153,0,0.08442976,12.36371,0.3810355,-1
19,F,0,1,1,4,1,1,1,2509,0,0.4551299,6.315609,3.888114,-1
19,F,0,1,1,5,1,2,2,2453,1,0.2178851,6.48424,1.826706,-1
19,F,0,1,1,6,2,3,3,3787,1,0.6602005,12.09281,3.106082,-1
19,F,0,1,1,7,1,4,4,5087,1,0.1919324,6.30346,1.655049,-1
19,F,0,1,1,8,1,3,3,4942,0,0.03620911,6.194756,0.3202056,-1
19,F,0,1,2,1,2,5,1,1787,0,0.4329894,12.14172,1.990561,-1
19,F,0,1,2,2,1,6,2,1520,0,0.4191057,6.487665,3.507048,-1
19,F,0,1,2,3,1,5,1,2142,0,0.2119362,6.306912,1.811862,-1
19,F,0,1,2,4,1,8,4,3787,0,0.01946014,6.312859,0.166689,-1
19,F,0,1,2,5,2,7,3,2276,0,0.4398764,12.09815,2.034997,-1
19,F,0,1,2,6,2,6,2,1198,0,0.9431928,12.35858,4.230497,-1
19,F,0,1,2,7,2,8,4,1476,0,0.3127382,12.29978,1.413747,-1
19,F,0,1,2,8,1,7,3,5197,1,0.3561598,6.190953,3.162731,-1
19,F,0,1,3,1,1,10,2,1498,0,0.1354286,6.487312,1.135394,-1
19,F,0,1,3,2,2,9,1,4865,0,0.6264308,12.13844,2.885205,-1
19,F,0,1,3,3,2,12,4,3342,0,1.013233,12.29664,4.695693,-1
19,F,0,1,3,4,1,9,1,2353,0,0.3915651,6.318446,3.351585,-1
19,F,0,1,3,5,2,11,3,3909,1,0.4768889,12.08587,2.227214,-1
19,F,0,1,3,6,2,10,2,1698,0,2.107469E-07,12.35546,0,-1
19,F,0,1,3,7,1,12,4,8498,0,0.09969617,6.300192,0.8616194,-1
19,F,0,1,3,8,1,11,3,4787,0,0.2997078,6.195959,2.640861,-1
19,F,0,1,4,1,1,16,4,4276,0,0.1586873,6.303992,1.37487,-1
19,F,0,1,4,2,2,13,1,2553,0,0.1705098,12.14137,0.7890712,-1
19,F,0,1,4,3,2,14,2,1209,0,1.018456,12.35792,4.568233,-1
19,F,0,1,4,4,2,16,4,2253,0,0.1462928,12.30174,0.6679325,-1
19,F,0,1,4,5,1,13,1,1809,0,0.1683268,6.317739,1.440214,-1
19,F,0,1,4,6,1,15,3,4753,0,0.001052288,6.202426,0.01978234,-1
19,F,0,1,4,7,1,14,2,1498,0,9.163024E-08,6.496422,0,-1
19,F,0,1,4,8,2,15,3,2398,0,0.6009055,12.09544,2.814039,-1
19,F,0,1,5,1,1,20,4,3509,0,0.4713048,6.332551,4.068664,-1
19,F,0,1,5,2,1,19,3,3753,0,0.1530446,6.231695,1.350602,-1
19,F,0,1,5,3,1,17,1,4298,2,0.2865558,6.292696,2.509909,-1
19,F,0,1,5,4,1,18,2,1342,0,0.3303896,6.489954,2.76265,-1
19,F,0,1,5,5,2,19,3,5698,0,0.2716712,12.11419,1.264085,-1
19,F,0,1,5,6,2,20,4,2464,0,0.5812753,12.3227,2.663078,-1
19,F,0,1,5,7,2,18,2,1287,0,0.3072971,12.3784,1.381119,-1
19,F,0,1,5,8,2,17,1,2420,0,0.1148876,12.15963,0.5289715,-1
19,F,0,1,6,1,1,24,4,2687,0,0.06969798,6.331618,0.598725,-1
19,F,0,1,6,2,1,22,2,1620,0,0.004311409,6.503646,0.02797646,-1
19,F,0,1,6,3,2,21,1,2153,0,0.2009933,12.16299,0.9238687,-1
19,F,0,1,6,4,2,24,4,2420,0,1.715776E-07,12.33176,0,-1
19,F,0,1,6,5,2,22,2,1176,0,2.197473E-08,12.38389,0,-1
19,F,0,1,6,6,1,23,3,4142,0,0.1287902,6.22795,1.136772,-1
19,F,0,1,6,7,1,21,1,4720,0,0.3554048,6.347934,3.022844,-1
19,F,0,1,6,8,2,23,3,3253,1,0.2470407,12.13593,1.139351,-1
19,F,0,1,7,1,1,26,2,1942,0,0.01882196,6.517253,0.1582588,-1
19,F,0,1,7,2,1,27,3,3798,0,2.985863E-08,6.233751,0,-1
19,F,0,1,7,3,2,28,4,2664,0,0.1773747,12.33421,0.8079404,-1
19,F,0,1,7,4,1,25,1,2565,0,0.09316746,6.332377,0.7991739,-1
19,F,0,1,7,5,2,27,3,2898,0,0.5140032,12.1294,2.398004,-1
19,F,0,1,7,6,1,28,4,3453,0,0.1790138,6.337811,1.542816,-1
19,F,0,1,7,7,2,25,1,1965,0,0.3689805,12.18433,1.694082,-1
19,F,0,1,7,8,2,26,2,1186,0,0.03237196,12.38882,0.14537,-1
19,F,0,1,8,1,1,32,4,3087,0,0.325883,6.340984,2.788884,-1
19,F,0,1,8,2,2,31,3,2242,0,0.09974249,12.1321,0.4605518,-1
19,F,0,1,8,3,2,32,4,3298,0,0.2807385,12.33776,1.282069,-1
19,F,0,1,8,4,1,29,1,5787,1,0.03785165,6.329705,0.3280534,-1
19,F,0,1,8,5,1,31,3,3442,0,0.3490774,6.231989,3.055309,-1
19,F,0,1,8,6,2,30,2,1309,0,0.1787389,12.3896,0.8106001,-1
19,F,0,1,8,7,2,29,1,2053,1,0.2078125,12.17217,0.9608305,-1
19,F,0,1,8,8,1,30,2,1576,0,0.09401924,6.509467,0.7833468,-1
19,F,0,1,9,1,1,36,4,3909,0,0.4796356,6.341262,4.114755,-1
19,F,0,1,9,2,2,34,2,1509,0,0.1905802,12.394,0.858206,-1
19,F,0,1,9,3,1,33,1,5687,0,0.3004992,6.340966,2.562389,-1
19,F,0,1,9,4,2,35,3,2787,0,0.5536739,12.13218,2.563688,-1
19,F,0,1,9,5,1,34,2,1498,0,0.3656442,6.510879,3.04806,-1
19,F,0,1,9,6,1,35,3,3776,0,0.04537608,6.232983,0.3971285,-1
19,F,0,1,9,7,2,33,1,1653,0,0.4095975,12.1783,1.883048,-1
19,F,0,1,9,8,2,36,4,2598,0,0.5527184,12.334,2.537288,-1
19,F,0,1,10,1,1,37,1,6898,0,0.09774202,6.340889,0.8538629,-1
19,F,0,1,10,2,2,40,4,2720,0,0.171012,12.33501,0.7732905,-1
19,F,0,1,10,3,2,38,2,1154,0,0.1785794,12.39291,0.8101172,-1
19,F,0,1,10,4,2,39,3,2531,1,0.8847563,12.12484,4.157794,-1
19,F,0,1,10,5,2,37,1,2075,0,0.1145415,12.178,0.5271187,-1
19,F,0,1,10,6,1,38,2,1431,0,0.4831218,6.510115,4.02944,-1
19,F,0,1,10,7,1,39,3,3698,0,0.1153748,6.229675,1.010463,-1
19,F,0,1,10,8,1,40,4,4020,0,0.28113,6.339208,2.399228,-1
19,F,0,1,11,1,1,41,1,6653,0,4.521907E-08,6.344812,0,-1
19,F,0,1,11,2,1,44,4,4109,1,2.208696E-07,6.338651,0,-1
19,F,0,1,11,3,2,42,2,1176,0,0.5896623,12.39194,2.641973,-1
19,F,0,1,11,4,1,43,3,3409,0,0.2609931,6.233378,2.283705,-1
19,F,0,1,11,5,2,41,1,2920,1,1.444883E-08,12.17418,0,-1
19,F,0,1,11,6,2,44,4,2453,0,0.2475167,12.33153,1.131942,-1
19,F,0,1,11,7,2,43,3,2131,0,0.3974577,12.13215,1.832803,-1
19,F,0,1,11,8,1,42,2,2176,1,1.018755E-07,6.509409,0,-1
19,F,0,1,12,1,1,47,3,5042,0,0.1116847,6.233984,0.977788,-1
19,F,0,1,12,2,2,48,4,3098,0,0.8754359,12.33863,4.024236,-1
19,F,0,1,12,3,1,46,2,3031,0,0.4561298,6.522884,3.796276,-1
19,F,0,1,12,4,1,48,4,3831,0,0.4547931,6.340405,3.920565,-1
19,F,0,1,12,5,2,45,1,1620,0,0.662473,12.18898,3.066693,-1
19,F,0,1,12,6,2,46,2,1475,0,1.66538E-07,12.39612,0,-1
19,F,0,1,12,7,1,45,1,1987,0,0.1620232,6.346488,1.378992,-1
19,F,0,1,12,8,2,47,3,2098,0,0.5615335,12.13729,2.621072,-1
19,F,0,1,13,1,1,50,2,2031,1,6.590761E-08,6.519792,0,-1
19,F,0,1,13,2,2,49,1,1731,0,0.5631998,12.18618,2.585583,-1
19,F,0,1,13,3,1,52,4,3309,0,0.4914108,6.344611,4.193252,-1
19,F,0,1,13,4,1,51,3,3920,0,0.0929237,6.232299,0.8137322,-1
19,F,0,1,13,5,1,49,1,1942,0,0.2401659,6.339253,2.042868,-1
19,F,0,1,13,6,2,52,4,1331,0,0.4775074,12.33751,2.190173,-1
19,F,0,1,13,7,2,50,2,1142,0,0.1080276,12.39749,0.4893896,-1
19,F,0,1,13,8,2,51,3,2464,1,0.390491,12.13023,1.8179,-1
19,F,0,1,14,1,1,56,4,3098,0,0.2400237,6.340847,2.067059,-1
19,F,0,1,14,2,1,54,2,1676,0,0.5174267,6.518116,4.306753,-1
19,F,0,1,14,3,2,55,3,1853,0,0.5826828,12.13462,2.705952,-1
19,F,0,1,14,4,1,53,1,2298,0,0.0656032,6.343271,0.5623221,-1
19,F,0,1,14,5,1,55,3,3553,0,0.2462109,6.2349,2.153405,-1
19,F,0,1,14,6,2,54,2,1054,0,0.3231693,12.40212,1.449424,-1
19,F,0,1,14,7,2,53,1,2298,0,0.3156142,12.18446,1.449019,-1
19,F,0,1,14,8,2,56,4,3409,0,0.1831812,12.33574,0.8322775,-1
19,F,0,1,15,1,2,57,1,1865,0,0.1781771,12.18323,0.8192443,-1
19,F,0,1,15,2,2,60,4,1498,0,0.2138263,12.33677,0.9669209,-1
19,F,0,1,15,3,1,59,3,2920,0,0.2542368,6.232485,2.227126,-1
19,F,0,1,15,4,2,58,2,1998,0,0.09684175,12.39844,0.4379019,-1
19,F,0,1,15,5,1,60,4,4164,1,0.1414531,6.342359,1.211115,-1
19,F,0,1,15,6,1,58,2,1465,0,0.3140213,6.519161,2.606919,-1
19,F,0,1,15,7,2,59,3,5142,0,0.1925867,12.13332,0.8893346,-1
19,F,0,1,15,8,1,57,1,2587,0,1.103525E-07,6.344391,0,-1
19,F,0,1,16,1,2,63,3,5053,0,0.6660655,12.13385,3.114265,-1
19,F,0,1,16,2,1,61,1,2576,0,0.3808396,6.335749,3.242504,-1
19,F,0,1,16,3,2,64,4,1564,0,0.4593572,12.33729,2.104312,-1
19,F,0,1,16,4,2,61,1,1509,0,0.07646754,12.17637,0.3522151,-1
19,F,0,1,16,5,1,62,2,2142,1,0.2998936,6.509168,2.500455,-1
19,F,0,1,16,6,1,63,3,3253,0,0.366793,6.233369,3.209552,-1
19,F,0,1,16,7,1,64,4,5298,0,0.2980429,6.339312,2.568341,-1
19,F,0,1,16,8,2,62,2,1131,0,0.5153565,12.39505,2.305711,-1
19,F,0,1,17,1,4,68,4,2187,0,0.6308245,12.33149,2.838694,-1
19,F,0,1,17,2,3,67,3,2287,0,0.4192196,6.243387,3.664151,-1
19,F,0,1,17,3,4,66,2,1531,1,0.5542316,12.39631,2.528013,-1
19,F,0,1,17,4,4,65,1,2042,0,0.3904677,12.18343,1.810133,-1
19,F,0,1,17,5,4,67,3,2331,0,0.2706127,12.12953,1.257099,-1
19,F,0,1,17,6,3,68,4,3087,0,0.03278204,6.346676,0.2804634,-1
19,F,0,1,17,7,3,66,2,1531,0,0.1804212,6.515328,1.505582,-1
19,F,0,1,17,8,3,65,1,2531,1,0.4117146,6.327634,3.562329,-1
19,F,0,1,18,1,3,71,3,2487,0,3.322931E-07,6.22978,0,-1
19,F,0,1,18,2,4,70,2,1198,0,0.2019695,12.39148,0.9089215,-1
19,F,0,1,18,3,4,71,3,1920,0,0.2595172,12.12672,1.196649,-1
19,F,0,1,18,4,4,69,1,1509,0,0.6675645,12.17412,3.057038,-1
19,F,0,1,18,5,3,70,2,1809,0,0.43343,6.514964,3.571058,-1
19,F,0,1,18,6,4,72,4,3731,0,0.5041506,12.34051,2.292943,-1
19,F,0,1,18,7,3,69,1,2865,1,0.0318414,6.335465,0.2762456,-1
19,F,0,1,18,8,3,72,4,2820,0,0.2626124,6.343966,2.233444,-1
19,F,0,1,19,1,4,73,1,9020,1,0.8363062,12.17035,3.906304,-1
19,F,0,1,19,2,3,76,4,4120,0,1.428911E-07,6.332091,0,-1
19,F,0,1,19,3,4,74,2,1565,0,0.6099516,12.38729,2.785091,-1
19,F,0,1,19,4,4,76,4,2220,0,0.6253438,12.33299,2.865257,-1
19,F,0,1,19,5,3,75,3,4887,0,2.423419E-07,6.216444,0,-1
19,F,0,1,19,6,3,73,1,1698,0,1.416817E-07,6.335108,0,-1
19,F,0,1,19,7,3,74,2,1476,0,1.043128E-07,6.508559,0,-1
19,F,0,1,19,8,4,75,3,2054,0,0.04016436,12.12844,0.1855749,-1
19,F,0,1,20,1,3,78,2,1298,0,0.08418838,6.520095,0.7044336,-1
19,F,0,1,20,2,4,79,3,2120,0,1.664396E-07,12.12627,0,-1
19,F,0,1,20,3,3,80,4,2876,0,0.005176911,6.335585,0.04423466,-1
19,F,0,1,20,4,3,79,3,2220,0,1.448839E-07,6.22513,0,-1
19,F,0,1,20,5,4,77,1,1587,0,0.7929657,12.1615,3.70248,-1
19,F,0,1,20,6,4,80,4,3953,0,0.3637835,12.33229,1.669295,-1
19,F,0,1,20,7,3,77,1,1831,0,0.006535119,6.332591,0.05934703,-1
19,F,0,1,20,8,4,78,2,1331,0,0.1296924,12.38539,0.5845029,-1
19,F,0,1,20,1,2,79,3,2154,0,0.2892971,12.12166,1.344066,-1
19,F,0,1,20,2,1,77,1,2231,0,0.2285667,6.343011,1.962939,-1
19,F,0,1,20,3,2,78,2,2309,0,0.04533426,12.38523,0.2046302,-1
19,F,0,1,20,4,2,80,4,2331,0,0.2044847,12.33272,0.9320924,-1
19,F,0,1,20,5,1,78,2,1531,0,0.2871339,6.516874,2.381706,-1
19,F,0,1,20,6,1,80,4,4065,0,0.4724939,6.335679,4.034686,-1
19,F,0,1,20,7,2,77,1,1631,0,0.6651267,12.1792,3.055886,-1
19,F,0,1,20,8,1,79,3,3153,0,0.4948472,6.232943,4.332417,-1
19,F,0,1,21,1,1,82,2,1242,0,0.1792436,6.536023,1.488195,-1
19,F,0,1,21,2,1,81,1,1998,0,0.2411718,6.357846,2.060706,-1
19,F,0,1,21,3,1,84,4,2531,0,0.09187723,6.371179,0.7853427,-1
19,F,0,1,21,4,2,82,2,1620,0,0.6047524,12.43489,2.763146,-1
19,F,0,1,21,5,2,83,3,1731,0,0.2761883,12.16899,1.276869,-1
19,F,0,1,21,6,2,81,1,1720,0,0.4266114,12.20289,1.977739,-1
19,F,0,1,21,7,1,83,3,3276,0,0.01912113,6.268167,0.165511,-1
19,F,0,1,21,8,2,84,4,2165,0,0.4239749,12.37607,1.936944,-1
19,F,0,1,22,1,1,87,3,3553,0,4.671927E-08,6.263136,0,-1
19,F,0,1,22,2,2,86,2,1742,0,0.4635777,12.42385,2.078861,-1
19,F,0,1,22,3,1,88,4,3809,0,0.2919075,6.378039,2.50069,-1
19,F,0,1,22,4,2,85,1,1676,0,0.3067029,12.21072,1.416098,-1
19,F,0,1,22,5,2,87,3,2153,0,0.5996644,12.16637,2.795124,-1
19,F,0,1,22,6,1,86,2,1265,0,0.03745224,6.528797,0.3127867,-1
19,F,0,1,22,7,1,85,1,1642,0,0.07998898,6.35136,0.6841414,-1
19,F,0,1,22,8,2,88,4,3220,0,0.1359673,12.36825,0.6135744,-1
19,F,0,1,23,1,1,91,3,4198,0,4.904088E-08,6.259435,0,-1
19,F,0,1,23,2,1,90,2,1409,0,0.1921716,6.530376,1.594955,-1
19,F,0,1,23,3,1,92,4,4087,0,0.1651078,6.36764,1.412916,-1
19,F,0,1,23,4,1,89,1,1842,0,0.3601864,6.352152,3.090602,-1
19,F,0,1,23,5,2,92,4,4287,2,0.1709774,12.36422,0.7763211,-1
19,F,0,1,23,6,2,89,1,1765,0,0.6868225,12.20419,3.201307,-1
19,F,0,1,23,7,2,91,3,2076,0,0.6018608,12.16166,2.806516,-1
19,F,0,1,23,8,2,90,2,1209,0,1.455803E-07,12.41704,0,-1
19,F,0,1,24,1,1,95,3,4798,0,0.369467,6.2559,3.260087,-1
19,F,0,1,24,2,1,93,1,2276,0,0.1133635,6.34621,0.9803861,-1
19,F,0,1,24,3,2,96,4,2531,1,0.04009696,12.36625,0.1802258,-1
19,F,0,1,24,4,1,94,2,1331,0,0.3533486,6.527624,2.937916,-1
19,F,0,1,24,5,2,95,3,2420,0,0.6487491,12.15695,3.036091,-1
19,F,0,1,24,6,1,96,4,3642,0,8.386913E-08,6.366575,0,-1
19,F,0,1,24,7,2,93,1,2142,0,0.008936001,12.20444,0.03956468,-1
19,F,0,1,24,8,2,94,2,1231,0,0.4736983,12.41302,2.122279,-1
19,F,0,1,25,1,2,100,4,1853,0,0.4440162,12.44216,1.985541,-1
19,F,0,1,25,2,2,99,3,1809,0,0.4818204,12.24782,2.201937,-1
19,F,0,1,25,3,1,98,2,1898,1,0.2748455,6.550591,2.276323,-1
19,F,0,1,25,4,1,97,1,2731,1,0.3993608,6.364085,3.455304,-1
19,F,0,1,25,5,2,98,2,1776,0,0.2049927,12.46488,0.9270402,-1
19,F,0,1,25,6,1,99,3,4287,0,2.364748E-07,6.341388,0,-1
19,F,0,1,25,7,2,97,1,1454,0,0.6365201,12.26361,2.897865,-1
19,F,0,1,25,8,1,100,4,2898,0,0.5049686,6.441379,4.268841,-1
19,F,0,1,26,1,2,101,1,1698,0,0.3178921,12.26265,1.448614,-1
19,F,0,1,26,2,1,104,4,3698,0,1.911157E-07,6.442404,0,-1
19,F,0,1,26,3,1,103,3,2953,0,0.2238293,6.340501,1.943299,-1
19,F,0,1,26,4,2,102,2,1176,0,0.3997981,12.4676,1.785202,-1
19,F,0,1,26,5,2,104,4,8587,1,0.2953455,12.44127,1.334862,-1
19,F,0,1,26,6,2,103,3,2276,0,0.47131,12.23935,2.155495,-1
19,F,0,1,26,7,1,102,2,1687,0,0.50803,6.553353,4.160148,-1
19,F,0,1,26,8,1,101,1,2987,1,1.085822E-07,6.365293,0,-1
19,F,0,1,27,1,1,107,3,3642,0,1.404396E-08,6.345023,0,-1
19,F,0,1,27,2,1,106,2,1309,0,0.07057033,6.554835,0.5868416,-1
19,F,0,1,27,3,1,105,1,1842,0,0.2728676,6.366591,2.3619,-1
19,F,0,1,27,4,2,106,2,1375,0,0.4863892,12.46143,2.16835,-1
19,F,0,1,27,5,2,107,3,2531,0,0.5892347,12.22741,2.733517,-1
19,F,0,1,27,6,1,108,4,3331,0,0.1926324,6.445518,1.633387,-1
19,F,0,1,27,7,2,105,1,1653,0,0.07995249,12.26348,0.365305,-1
19,F,0,1,27,8,2,108,4,2565,0,0.6974295,12.43563,3.169718,-1
19,F,0,1,28,1,1,111,3,2831,0,0.1237888,6.33991,1.073379,-1
19,F,0,1,28,2,1,112,4,4031,0,0.05279465,6.447781,0.4449939,-1
19,F,0,1,28,3,2,109,1,1587,0,0.03355168,12.25853,0.1532334,-1
19,F,0,1,28,4,1,110,2,1631,0,8.560405E-08,6.545987,0,-1
19,F,0,1,28,5,2,111,3,1731,0,0.9433368,12.22845,4.391239,-1
19,F,0,1,28,6,2,112,4,2187,0,0.750328,12.44175,3.434959,-1
19,F,0,1,28,7,2,110,2,1064,0,0.349349,12.46755,1.560472,-1
19,F,0,1,28,8,1,109,1,2231,0,0.03473005,6.3736,0.2973941,-1
19,F,0,1,29,1,1,115,3,3222,0,0.3659765,6.314588,3.189666,-1
19,F,0,1,29,2,1,114,2,1243,0,0.2356315,6.547397,1.952542,-1
19,F,0,1,29,3,2,115,3,1776,0,0.7326471,12.20728,3.415009,-1
19,F,0,1,29,4,2,113,1,1798,0,0.6234831,12.23752,2.883305,-1
19,F,0,1,29,5,1,116,4,3076,0,0.4370093,6.421976,3.752124,-1
19,F,0,1,29,6,2,114,2,1176,0,0.7289933,12.45372,3.257263,-1
19,F,0,1,29,7,2,116,4,2376,0,0.9948665,12.41885,4.564972,-1
19,F,0,1,29,8,1,113,1,6798,3,0.06390265,6.344985,0.5482264,-1
19,F,0,1,30,1,1,118,2,1487,0,0.3118885,6.530765,2.591028,-1
19,F,0,1,30,2,1,120,4,4431,0,0.06075245,6.427142,0.5154827,-1
19,F,0,1,30,3,2,118,2,2020,1,0.6727912,12.44655,3.011749,-1
19,F,0,1,30,4,1,119,3,3753,0,2.504316E-07,6.313295,0,-1
19,F,0,1,30,5,2,117,1,4742,2,0.4254126,12.23228,1.966425,-1
19,F,0,1,30,6,2,119,3,2109,0,0.3347226,12.21193,1.545857,-1
19,F,0,1,30,7,2,120,4,2642,0,0.7491174,12.42453,3.41942,-1
19,F,0,1,30,8,1,117,1,2420,0,0.3989838,6.345244,3.416614,-1
19,F,0,1,31,1,2,123,3,3653,0,0.4803657,12.209,2.229673,-1
19,F,0,1,31,2,2,124,4,2609,0,0.2771298,12.42327,1.245055,-1
19,F,0,1,31,3,1,123,3,4253,0,0.327414,6.316517,2.858006,-1
19,F,0,1,31,4,2,122,2,1142,0,0.6554963,12.44974,2.917724,-1
19,F,0,1,31,5,1,124,4,3487,0,6.921662E-08,6.430212,0,-1
19,F,0,1,31,6,1,121,1,1965,0,0.4419968,6.350995,3.780252,-1
19,F,0,1,31,7,1,122,2,4087,2,0.281961,6.518312,2.337159,-1
19,F,0,1,31,8,2,121,1,5587,1,0.72398,12.22611,3.358413,-1
19,F,0,1,32,1,2,127,3,3454,1,0.9012723,12.20184,4.204213,-1
19,F,0,1,32,2,2,128,4,2631,0,0.475189,12.42053,2.160301,-1
19,F,0,1,32,3,1,127,3,3453,0,0.03151068,6.323065,0.2741124,-1
19,F,0,1,32,4,1,128,4,3653,0,0.07444449,6.432338,0.6311808,-1
19,F,0,1,32,5,2,125,1,1887,0,0.9734489,12.23556,4.463571,-1
19,F,0,1,32,6,2,126,2,1176,0,0.783504,12.44931,3.488183,-1
19,F,0,1,32,7,1,125,1,2276,0,0.3458724,6.350351,3.008628,-1
19,F,0,1,32,8,1,126,2,2642,1,0.4142541,6.521443,3.44526,-1
19,F,0,1,33,1,1,132,4,3753,1,0.1173202,6.440202,0.993669,-1
19,F,0,1,33,2,1,131,3,2964,0,2.492154E-07,6.328758,0,-1
19,F,0,1,33,3,2,132,4,4064,1,0.6504247,12.42418,2.906835,-1
19,F,0,1,33,4,2,129,1,1842,0,0.636174,12.23374,2.93805,-1
19,F,0,1,33,5,1,130,2,1720,0,0.4980463,6.532685,4.138295,-1
19,F,0,1,33,6,2,131,3,1809,0,0.2939787,12.21258,1.357539,-1
19,F,0,1,33,7,1,129,1,2253,0,0.1749121,6.355133,1.484113,-1
19,F,0,1,33,8,2,130,2,1409,0,0.7807698,12.44685,3.476713,-1
19,F,0,1,34,1,2,133,1,1598,0,0.8456893,12.22702,3.894204,-1
19,F,0,1,34,2,2,136,4,2631,0,0.7219885,12.42304,3.271657,-1
19,F,0,1,34,3,2,135,3,1887,0,0.369277,12.21176,1.70869,-1
19,F,0,1,34,4,1,136,4,3765,0,0.05021447,6.436916,0.4261257,-1
19,F,0,1,34,5,2,134,2,2809,1,0.4621203,12.44243,2.06175,-1
19,F,0,1,34,6,1,135,3,4398,0,2.060962E-07,6.321198,0,-1
19,F,0,1,34,7,1,133,1,2120,0,0.4047968,6.349597,3.439003,-1
19,F,0,1,34,8,1,134,2,1587,0,0.3584307,6.527626,2.979007,-1
19,F,0,1,35,1,1,140,4,3798,0,0.3124325,6.427989,2.639379,-1
19,F,0,1,35,2,1,138,2,4176,2,2.148601E-08,6.515552,0,-1
19,F,0,1,35,3,2,139,3,2143,0,0.8264993,12.21116,3.851835,-1
19,F,0,1,35,4,1,137,1,3231,1,0.04690444,6.337756,0.4044518,-1
19,F,0,1,35,5,2,138,2,1320,0,0.8015726,12.44485,3.569961,-1
19,F,0,1,35,6,2,137,1,1653,0,0.6287662,12.23482,2.886426,-1
19,F,0,1,35,7,2,140,4,2987,0,0.6732627,12.42149,3.068224,-1
19,F,0,1,35,8,1,139,3,3065,0,1.284041E-07,6.330459,0,-1
19,F,0,1,37,1,4,148,4,1653,0,0.4585269,12.42369,2.089097,-1
19,F,0,1,37,2,3,147,3,2831,0,0.05446537,6.324003,0.4727124,-1
19,F,0,1,37,3,4,146,2,2576,0,1.501159E-07,12.44988,0,-1
19,F,0,1,37,4,3,148,4,3875,0,0.07337957,6.433035,0.6230683,-1
19,F,0,1,37,5,4,147,3,3942,0,0.6968508,12.22276,3.242565,-1
19,F,0,1,37,6,4,145,1,1976,0,0.5387768,12.23702,2.477097,-1
19,F,0,1,37,7,3,146,2,1931,0,0.5143505,6.538084,4.266546,-1
19,F,0,1,37,8,3,145,1,3776,2,0.2212768,6.346096,1.884191,-1
19,F,0,1,38,1,3,152,4,3465,0,0.04717633,6.438332,0.4000739,-1
19,F,0,1,38,2,3,149,1,2198,0,0.3444912,6.350499,2.926768,-1
19,F,0,1,38,3,4,152,4,1320,0,0.319221,12.42043,1.431218,-1
19,F,0,1,38,4,4,150,2,2631,0,0.9203771,12.44402,4.097586,-1
19,F,0,1,38,5,4,149,1,1742,0,0.8384133,12.23825,3.86508,-1
19,F,0,1,38,6,3,151,3,3142,0,1.435804E-07,6.327043,0,-1
19,F,0,1,38,7,3,150,2,3720,1,0.4138458,6.512766,3.451619,-1
19,F,0,1,38,8,4,151,3,5764,0,0.3138598,12.22761,1.445774,-1
19,F,0,1,39,1,3,156,4,3553,0,0.2309629,6.437782,1.962839,-1
19,F,0,1,39,2,4,154,2,2631,1,0.4414076,12.44346,1.976749,-1
19,F,0,1,39,3,4,153,1,2697,1,0.5212822,12.23768,2.408103,-1
19,F,0,1,39,4,4,155,3,2465,0,0.4541925,12.22056,2.1058,-1
19,F,0,1,39,5,3,154,2,3442,2,0.3104876,6.516585,2.589592,-1
19,F,0,1,39,6,3,153,1,3343,1,0.09411089,6.338685,0.8062432,-1
19,F,0,1,39,7,3,155,3,3576,0,0.3898051,6.334646,3.398515,-1
19,F,0,1,39,8,4,156,4,2120,0,0.3428554,12.42634,1.551795,-1
19,F,0,1,40,1,3,159,3,3942,0,0.1208703,6.319266,1.050157,-1
19,F,0,1,40,2,3,157,1,2742,0,0.364205,6.363961,3.090665,-1
19,F,0,1,40,3,4,159,3,2564,0,0.3360767,12.21923,1.553434,-1
19,F,0,1,40,4,3,158,2,3409,2,0.5188503,6.519336,4.317653,-1
19,F,0,1,40,5,4,157,1,9999,0,-1,-1,-1,-1
19,F,0,1,40,6,4,160,4,2964,0,0.5092109,12.41966,2.321193,-1
19,F,0,1,40,7,4,158,2,1220,0,0.5708764,12.44671,2.579823,-1
19,F,0,1,40,8,3,160,4,3776,0,0.1259295,6.429966,1.078653,-1
19,F,0,1,41,1,1,161,1,1442,0,0.2306293,6.302206,2.013437,-1
19,F,0,1,41,2,2,163,3,1965,0,0.4861223,12.07339,2.281991,-1
19,F,0,1,41,3,2,162,2,1065,0,0.02950564,12.32168,0.1341704,-1
19,F,0,1,41,4,1,163,3,2998,0,0.05481644,6.201127,0.4833549,-1
19,F,0,1,41,5,1,164,4,3320,0,0.225691,6.297995,1.949332,-1
19,F,0,1,41,6,2,161,1,1831,0,0.4631441,12.12103,2.164556,-1
19,F,0,1,41,7,1,162,2,1387,0,0.1351142,6.456318,1.135049,-1
19,F,0,1,41,8,2,164,4,1809,0,2.51662E-07,12.27717,0,-1
19,F,0,1,42,1,1,166,2,1509,0,0.2472542,6.455722,2.077636,-1
19,F,0,1,42,2,2,167,3,1620,0,0.2094959,12.07803,0.9707584,-1
19,F,0,1,42,3,1,168,4,3454,0,0.2114436,6.306618,1.810673,-1
19,F,0,1,42,4,2,165,1,1564,0,0.2418007,12.12584,1.115749,-1
19,F,0,1,42,5,2,168,4,1609,0,0.1645794,12.28293,0.747558,-1
19,F,0,1,42,6,1,165,1,1853,0,0.3809674,6.28882,3.265907,-1
19,F,0,1,42,7,1,167,3,2776,0,0.4263323,6.209934,3.747425,-1
19,F,0,1,42,8,2,166,2,1687,0,0.2358527,12.33175,1.067712,-1
19,F,0,1,43,1,1,169,1,2965,0,0.314951,6.28739,2.714114,-1
19,F,0,1,43,2,1,172,4,3742,0,0.2138337,6.292684,1.845784,-1
19,F,0,1,43,3,1,171,3,3109,0,0.1597982,6.21017,1.403606,-1
19,F,0,1,43,4,2,172,4,2264,0,0.4181188,12.27601,1.889584,-1
19,F,0,1,43,5,2,170,2,1342,0,0.9844017,12.322,4.428194,-1
19,F,0,1,43,6,2,169,1,1242,0,0.7755828,12.12924,3.562659,-1
19,F,0,1,43,7,1,170,2,1442,0,0.2944021,6.459154,2.4672,-1
19,F,0,1,43,8,2,171,3,1809,0,0.6340849,12.09221,2.934449,-1
19,F,0,1,44,1,1,174,2,1087,0,0.3564932,6.466447,2.981175,-1
19,F,0,1,44,2,1,173,1,2098,0,0.4834068,6.293747,4.154448,-1
19,F,0,1,44,3,2,176,4,2365,0,0.498892,12.28059,2.296099,-1
19,F,0,1,44,4,2,174,2,1198,0,0.4726743,12.34218,2.12624,-1
19,F,0,1,44,5,2,173,1,1676,0,0.3114601,12.12395,1.443878,-1
19,F,0,1,44,6,2,175,3,1631,0,0.8652243,12.08987,4.08327,-1
19,F,0,1,44,7,1,176,4,3520,0,0.1562739,6.306355,1.351181,-1
19,F,0,1,44,8,1,175,3,2987,0,0.4200177,6.210314,3.694062,-1
19,F,0,1,45,1,1,178,2,1976,1,8.487923E-08,6.459237,0,-1
19,F,0,1,45,2,1,180,4,3320,0,0.1556798,6.30081,1.339691,-1
19,F,0,1,45,3,1,179,3,3376,0,0.1408062,6.214873,1.239542,-1
19,F,0,1,45,4,2,177,1,2187,1,0.5827447,12.14159,2.684601,-1
19,F,0,1,45,5,2,179,3,1831,0,0.7984154,12.09947,3.712515,-1
19,F,0,1,45,6,2,180,4,2064,0,0.1388364,12.28755,0.6339648,-1
19,F,0,1,45,7,2,178,2,876,0,0.2746817,12.34175,1.239069,-1
19,F,0,1,45,8,1,177,1,4776,0,0.3120854,6.302315,2.676934,-1
19,F,0,1,46,1,2,183,3,2031,0,0.4716777,12.09288,2.185343,-1
19,F,0,1,46,2,2,184,4,1309,0,0.4727408,12.2901,2.139729,-1
19,F,0,1,46,3,2,182,2,1064,0,0.9513541,12.33389,4.290031,-1
19,F,0,1,46,4,2,181,1,1353,0,0.7512674,12.1356,3.447646,-1
19,F,0,1,46,5,1,182,2,3076,1,2.057993E-08,6.459932,0,-1
19,F,0,1,46,6,1,183,3,3509,0,0.1665838,6.222853,1.460051,-1
19,F,0,1,46,7,1,184,4,3387,0,1.332404E-08,6.316299,0,-1
19,F,0,1,46,8,1,181,1,4153,0,0.1500866,6.30942,1.284052,-1
19,F,0,1,47,1,2,188,4,1887,0,0.1879738,12.29266,0.861165,-1
19,F,0,1,47,2,2,186,2,1253,0,0.5303328,12.33654,2.384088,-1
19,F,0,1,47,3,2,185,1,1376,0,0.6526449,12.13075,3.001005,-1
19,F,0,1,47,4,1,186,2,1531,0,0.3786127,6.462751,3.166319,-1
19,F,0,1,47,5,1,187,3,3453,0,0.1527117,6.213414,1.340859,-1
19,F,0,1,47,6,1,185,1,2220,0,0.3320355,6.2952,2.843173,-1
19,F,0,1,47,7,2,187,3,1731,0,0.09738944,12.09893,0.4511079,-1
19,F,0,1,47,8,1,188,4,3154,0,0.09173249,6.318485,0.7917944,-1
19,F,0,1,48,1,1,190,2,1809,0,0.1319056,6.467805,1.103049,-1
19,F,0,1,48,2,2,191,3,1731,0,0.09406689,12.09305,0.4365593,-1
19,F,0,1,48,3,1,189,1,1720,0,0.185118,6.294977,1.615073,-1
19,F,0,1,48,4,1,192,4,2464,0,2.07954E-07,6.311068,0,-1
19,F,0,1,48,5,2,190,2,1164,0,0.58336,12.34436,2.630538,-1
19,F,0,1,48,6,2,189,1,2398,1,0.04986147,12.13525,0.2298502,-1
19,F,0,1,48,7,1,191,3,3053,0,0.1161955,6.213367,1.023738,-1
19,F,0,1,48,8,2,192,4,5631,0,0.2934586,12.29189,1.342026,-1
19,F,0,1,49,1,1,194,2,1265,0,3.887281E-08,6.404933,0,-1
19,F,0,1,49,2,2,196,4,1331,0,0.0008570519,12.39758,0,-1
19,F,0,1,49,3,2,194,2,1142,0,0.2697927,12.36014,1.21724,-1
19,F,0,1,49,4,1,193,1,1865,0,0.3365952,6.239232,2.911478,-1
19,F,0,1,49,5,2,195,3,2687,1,0.1763157,12.17799,0.8137322,-1
19,F,0,1,49,6,2,193,1,1720,0,0.1351774,12.16422,0.6221254,-1
19,F,0,1,49,7,1,195,3,2587,0,4.60154E-09,6.396054,0,-1
19,F,0,1,49,8,1,196,4,3887,0,0.07467563,6.4906,0.6258884,-1
19,F,0,1,50,1,1,197,1,1997,0,0.3371777,6.23833,2.916315,-1
19,F,0,1,50,2,1,200,4,3131,0,8.374948E-08,6.481069,0,-1
19,F,0,1,50,3,2,199,3,1931,0,0.5384985,12.18089,2.492771,-1
19,F,0,1,50,4,2,198,2,3520,1,0.6178406,12.35736,2.838281,-1
19,F,0,1,50,5,2,197,1,1353,0,0.9300065,12.16382,4.267373,-1
19,F,0,1,50,6,2,200,4,2120,0,0.9275816,12.39635,4.258092,-1
19,F,0,1,50,7,1,199,3,3531,0,0.2341638,6.392569,2.015671,-1
19,F,0,1,50,8,1,198,2,1587,0,0.4095522,6.410185,3.426456,-1
19,F,0,1,51,1,1,201,1,3098,0,0.2306567,6.235137,1.995471,-1
19,F,0,1,51,2,1,202,2,1354,0,0.4802103,6.409365,4.013126,-1
19,F,0,1,51,3,1,204,4,2398,0,0.4320178,6.497022,3.598422,-1
19,F,0,1,51,4,2,203,3,1854,0,0.5000946,12.17974,2.320181,-1
19,F,0,1,51,5,2,202,2,1320,0,0.1589917,12.36151,0.7222635,-1
19,F,0,1,51,6,2,204,4,3153,0,0.9828053,12.3953,4.48205,-1
19,F,0,1,51,7,1,203,3,3520,0,0.3831926,6.387929,3.317178,-1
19,F,0,1,51,8,2,201,1,1264,0,0.5350416,12.18422,2.456706,-1
19,F,0,1,52,1,2,208,4,2098,0,0.4453639,12.39215,2.029894,-1
19,F,0,1,52,2,2,207,3,2653,1,0.1464938,12.18179,0.6746368,-1
19,F,0,1,52,3,1,205,1,1809,0,0.5352388,6.2577,4.620376,-1
19,F,0,1,52,4,1,206,2,1564,0,0.4477774,6.425426,3.733185,-1
19,F,0,1,52,5,2,205,1,1787,0,0.2907234,12.17556,1.334569,-1
19,F,0,1,52,6,1,208,4,3876,0,0.490316,6.476664,4.09639,-1
19,F,0,1,52,7,1,207,3,4642,0,0.007071044,6.377408,0.05595291,-1
19,F,0,1,52,8,2,206,2,5131,0,0.199444,12.3693,0.8996165,-1
19,F,0,1,53,1,1,212,4,3277,0,2.777582E-07,6.452919,0,-1
19,F,0,1,53,2,1,211,3,3631,0,0.31015,6.348003,2.686787,-1
19,F,0,1,53,3,2,209,1,1465,0,0.9855652,12.1389,4.591926,-1
19,F,0,1,53,4,2,212,4,2342,0,0.9381323,12.37055,4.317518,-1
19,F,0,1,53,5,1,210,2,1376,0,0.4773666,6.402495,4.041523,-1
19,F,0,1,53,6,1,209,1,3620,2,0.428004,6.20207,3.714466,-1
19,F,0,1,53,7,2,211,3,4487,2,0.7659575,12.13584,3.590578,-1
19,F,0,1,53,8,2,210,2,1987,0,0.213153,12.33298,0.9646922,-1
19,F,0,1,54,1,1,213,1,4220,1,0.5282454,6.214804,4.577742,-1
19,F,0,1,54,2,2,216,4,2231,0,1.735102E-07,12.35399,0,-1
19,F,0,1,54,3,1,214,2,1309,0,0.3584663,6.406507,3.027956,-1
19,F,0,1,54,4,2,213,1,1420,0,0.01212387,12.14786,0.05595291,-1
19,F,0,1,54,5,2,214,2,1420,0,0.6562361,12.34291,2.95519,-1
19,F,0,1,54,6,2,215,3,1787,0,0.7199208,12.15821,3.350008,-1
19,F,0,1,54,7,1,216,4,3642,0,0.0005255853,6.461069,0,-1
19,F,0,1,54,8,1,215,3,3276,0,2.170545E-07,6.420872,0,-1
19,F,0,1,55,1,2,220,4,2287,0,0.07252425,12.41782,0.3274564,-1
19,F,0,1,55,2,2,219,3,3675,0,0.6905444,12.21088,3.208576,-1
19,F,0,1,55,3,2,218,2,1020,0,0.4276828,12.3867,1.924273,-1
19,F,0,1,55,4,2,217,1,1620,0,0.7436175,12.19442,3.401682,-1
19,F,0,1,55,5,1,218,2,1676,0,0.2346965,6.440485,1.964334,-1
19,F,0,1,55,6,1,217,1,3142,1,0.3574416,6.25623,3.077335,-1
19,F,0,1,55,7,1,220,4,3420,0,2.006222E-07,6.510717,0,-1
19,F,0,1,55,8,1,219,3,4231,0,1.103234E-07,6.394702,0,-1
19,F,0,1,56,1,2,224,4,2542,0,0.04513513,12.41197,0.2046302,-1
19,F,0,1,56,2,1,223,3,3509,0,0.5100104,6.387111,4.395831,-1
19,F,0,1,56,3,1,222,2,1276,0,0.3845695,6.44243,3.23513,-1
19,F,0,1,56,4,2,223,3,2176,0,0.7744694,12.19464,3.612704,-1
19,F,0,1,56,5,1,221,1,2242,0,0.4871864,6.258358,4.192318,-1
19,F,0,1,56,6,2,222,2,2665,0,0.4276158,12.39286,1.920812,-1
19,F,0,1,56,7,2,221,1,2620,1,0.8292334,12.19287,3.797771,-1
19,F,0,1,56,8,1,224,4,3576,0,0.2702669,6.503387,2.247509,-1
19,F,0,1,57,1,4,226,2,1531,0,0.4674751,12.39891,2.095178,-1
19,F,0,1,57,2,4,228,4,1264,0,0.6177329,12.42083,2.814873,-1
19,F,0,1,57,3,3,227,3,2865,0,0.3556085,6.403274,3.070584,-1
19,F,0,1,57,4,3,226,2,1920,0,0.2338047,6.444783,1.949834,-1
19,F,0,1,57,5,3,225,1,2842,1,0.2632565,6.259989,2.305966,-1
19,F,0,1,57,6,3,228,4,3542,0,0.03448537,6.493351,0.2907402,-1
19,F,0,1,57,7,4,225,1,1398,0,0.08909336,12.21465,0.4083038,-1
19,F,0,1,57,8,4,227,3,4387,0,0.7653586,12.21504,3.562879,-1
19,F,0,1,58,1,3,229,1,2120,0,0.5004078,6.260702,4.308617,-1
19,F,0,1,58,2,4,230,2,1676,0,0.6167142,12.39465,2.764917,-1
19,F,0,1,58,3,4,231,3,1642,0,0.3204268,12.20801,1.481605,-1
19,F,0,1,58,4,4,229,1,1498,0,0.4539906,12.19643,2.098818,-1
19,F,0,1,58,5,3,230,2,1731,0,0.3579068,6.448845,3.006024,-1
19,F,0,1,58,6,3,232,4,3487,0,0.02162193,6.500709,0.1823843,-1
19,F,0,1,58,7,3,231,3,3165,0,1.880348E-07,6.406057,0,-1
19,F,0,1,58,8,4,232,4,2698,0,0.3220857,12.42419,1.462596,-1
19,F,0,1,59,1,4,233,1,1598,0,0.6180742,12.21149,2.858417,-1
19,F,0,1,59,2,3,235,3,3342,0,0.12017,6.384838,1.035143,-1
19,F,0,1,59,3,4,236,4,2187,0,1.025107,12.42423,4.66917,-1
19,F,0,1,59,4,3,234,2,1909,0,0.2094929,6.469266,1.740913,-1
19,F,0,1,59,5,3,236,4,3376,0,0.03932003,6.498208,0.3310224,-1
19,F,0,1,59,6,4,235,3,2298,0,0.626206,12.21476,2.86307,-1
19,F,0,1,59,7,4,234,2,1042,0,0.5740412,12.4078,2.61898,-1
19,F,0,1,59,8,3,233,1,6231,4,0.1431662,6.245959,1.239069,-1
19,F,0,1,60,1,3,238,2,2209,1,0.3653516,6.442615,3.073516,-1
19,F,0,1,60,2,4,239,3,1953,0,0.3021508,12.21248,1.395777,-1
19,F,0,1,60,3,4,237,1,1765,0,0.4274192,12.20919,1.961642,-1
19,F,0,1,60,4,4,240,4,1453,0,1.059201,12.42217,4.829902,-1
19,F,0,1,60,5,3,239,3,3442,0,1.161143E-08,6.397278,0,-1
19,F,0,1,60,6,3,240,4,2820,0,2.454104E-07,6.521602,0,-1
19,F,0,1,60,7,4,238,2,1165,0,0.2675934,12.41022,1.20496,-1
19,F,0,1,60,8,3,237,1,4220,0,0.094149,6.284542,0.8132511,-1
19,F,0,1,61,1,2,244,4,1909,1,0.2604125,12.42316,1.16634,-1
19,F,0,1,61,2,1,242,2,1487,0,0.1798546,6.444829,1.501156,-1
19,F,0,1,61,3,1,243,3,2531,0,3.709307E-08,6.40896,0,-1
19,F,0,1,61,4,1,241,1,1820,0,0.5044571,6.25849,4.347805,-1
19,F,0,1,61,5,2,243,3,1798,0,0.6449264,12.2204,2.954328,-1
19,F,0,1,61,6,2,241,1,1509,0,0.1373901,12.21863,0.6296288,-1
19,F,0,1,61,7,2,242,2,1353,0,0.1496016,12.40533,0.6734757,-1
19,F,0,1,61,8,1,244,4,3242,0,0.05364931,6.505818,0.4476244,-1
19,F,0,1,62,1,2,247,3,2720,1,0.9076959,12.22001,4.240024,-1
19,F,0,1,62,2,2,246,2,931,0,0.3246094,12.42075,1.461123,-1
19,F,0,1,62,3,2,245,1,1276,0,0.5312512,12.20773,2.430272,-1
19,F,0,1,62,4,2,248,4,1587,0,0.2085492,12.41966,0.9439828,-1
19,F,0,1,62,5,1,247,3,3342,0,0.07378214,6.40423,0.633656,-1
19,F,0,1,62,6,1,245,1,2064,0,0.2693933,6.293419,2.304947,-1
19,F,0,1,62,7,1,246,2,1409,0,0.527239,6.47888,4.383114,-1
19,F,0,1,62,8,1,248,4,3042,0,0.02603401,6.506731,0.2185032,-1
19,F,0,1,1,1,7,2,2,8985,0,1.134144,6.455523,9.562792,-1
19,F,0,1,1,2,5,1,1,7220,0,5.000051,6.316351,52.33569,-1
19,F,0,1,1,3,6,2,2,8175,0,1.584936,12.39361,7.100228,-1
19,F,0,1,1,4,7,1,1,12620,0,4.929527,6.308206,51.39324,-1
19,F,0,1,1,5,6,4,4,14998,0,1.844517,12.42949,8.476302,-1
19,F,0,1,1,6,8,1,1,7131,0,3.519712,12.22143,16.73796,-1
19,F,0,1,1,7,6,3,3,3020,0,1.383494,12.22309,6.468812,-1
19,F,0,1,1,8,8,4,4,5753,0,2.520169,12.41941,11.33499,-1
19,F,0,1,1,9,7,3,3,5864,0,0.645691,6.401796,5.551603,-1
19,F,0,1,1,10,5,4,4,3720,0,3.836572,6.52143,34.19191,-1
19,F,0,1,1,11,6,1,1,4064,0,9.212382,12.23978,48.82127,-1
19,F,0,1,1,12,5,2,2,5909,0,2.315434,6.451691,19.84032,-1
19,F,0,1,1,13,7,4,4,3053,0,3.791729,6.52582,33.68201,-1
19,F,0,1,1,14,5,3,3,2387,0,0.5141228,6.407716,4.387402,-1
19,F,0,1,1,15,8,2,2,3698,0,2.006971,12.38967,9.034572,-1
19,F,0,1,1,16,8,3,3,3131,0,4.910328,12.23626,23.54228,-1
19,F,0,1,2,1,7,4,4,3587,0,5.357738,6.546366,54.92788,-1
19,F,0,1,2,2,5,1,1,4531,0,0.4510272,6.28025,3.988014,-1
19,F,0,1,2,3,8,2,2,5387,0,6.752117,12.40213,32.98585,-1
19,F,0,1,2,4,6,3,3,3998,0,0.895392,12.21945,4.097299,-1
19,F,0,1,2,5,5,4,4,5820,0,3.201348,6.512431,28.0028,-1
19,F,0,1,2,6,8,1,1,5876,0,8.441375,12.23309,43.63363,-1
19,F,0,1,2,7,5,2,2,6865,0,4.992727,6.492088,50.26847,-1
19,F,0,1,2,8,8,3,3,5042,0,4.992722,12.22449,23.98886,-1
19,F,0,1,2,9,7,2,2,6431,0,4.330133,6.52151,41.43253,-1
19,F,0,1,2,10,8,4,4,7664,0,3.36481,12.40636,15.63019,-1
19,F,0,1,2,11,7,3,3,2787,0,0.1296172,6.348034,1.11452,-1
19,F,0,1,2,12,7,1,1,1420,0,1.344854,6.348515,11.98392,-1
19,F,0,1,2,13,6,4,4,3653,0,0.125557,12.41426,0.5650989,-1
19,F,0,1,2,14,6,2,2,3853,0,2.589924,12.41902,11.95459,-1
19,F,0,1,2,15,5,3,3,4231,0,0.9557719,6.356728,8.235758,-1
19,F,0,1,2,16,6,1,1,1142,0,3.882061,12.22746,18.51101,-1
