Age, Gender, Awareness Type, Session, Block, Trial, Set, Pattern, Quadrant, Response Time, Num Mistakes, Distance From Target, Camera Distance From Target, Angle Error (Degrees), FC Response
19,M,0,1,1,1,1,2,2,5497,1,0.2847225,6.454443,2.405094,-1
19,M,0,1,1,2,2,4,4,5375,0,0.7542303,12.47977,3.375567,-1
19,M,0,1,1,3,2,1,1,2275,0,0.65535,12.3082,3.031832,-1
19,M,0,1,1,4,1,4,4,6097,2,0.355189,6.501935,2.977627,-1
19,M,0,1,1,5,2,2,2,9999,0,-1,-1,-1,-1
19,M,0,1,1,6,1,3,3,4253,0,0.4468113,6.32302,3.895863,-1
19,M,0,1,1,7,1,1,1,3464,1,0.1205878,6.274636,1.054991,-1
19,M,0,1,1,8,2,3,3,8486,0,0.9751335,12.23024,4.556297,-1
19,M,0,1,2,1,2,6,2,9999,0,-1,-1,-1,-1
19,M,0,1,2,2,1,5,1,2631,0,0.4481253,6.25993,3.977049,-1
19,M,0,1,2,3,1,7,3,3609,0,0.3500676,6.3364,3.045747,-1
19,M,0,1,2,4,1,8,4,6042,2,0.1881625,6.490009,1.578056,-1
19,M,0,1,2,5,2,5,1,2131,0,0.9932995,12.2916,4.607172,-1
19,M,0,1,2,6,2,8,4,4153,1,0.5710747,12.47404,2.557037,-1
19,M,0,1,2,7,2,7,3,2975,0,0.6961309,12.22133,3.238698,-1
19,M,0,1,2,8,1,6,2,3853,1,0.2081085,6.438577,1.763474,-1
19,M,0,1,3,1,1,11,3,4586,0,0.2086994,6.321075,1.819407,-1
19,M,0,1,3,2,1,12,4,4120,0,0.3782834,6.495704,3.213331,-1
19,M,0,1,3,3,1,9,1,2442,0,0.2067285,6.261611,1.792095,-1
19,M,0,1,3,4,1,10,2,2331,0,0.3204558,6.446367,2.710145,-1
19,M,0,1,3,5,2,9,1,1920,0,1.254445E-08,12.31325,0,-1
19,M,0,1,3,6,2,11,3,1944,0,4.163646E-08,12.23937,0,-1
19,M,0,1,3,7,2,12,4,3587,1,0.6975034,12.47948,3.114579,-1
19,M,0,1,3,8,2,10,2,7731,0,7.006309E-08,12.33557,0,-1
19,M,0,1,4,1,2,15,3,3653,1,0.2396824,12.19721,1.101273,-1
19,M,0,1,4,2,1,13,1,1765,0,0.1598482,6.228694,1.407782,-1
19,M,0,1,4,3,1,16,4,3898,1,0.2258708,6.482199,1.896923,-1
19,M,0,1,4,4,1,14,2,2386,0,1.511006E-07,6.412277,0,-1
19,M,0,1,4,5,2,16,4,2386,0,0.4428343,12.45481,1.999489,-1
19,M,0,1,4,6,2,13,1,1898,0,0.4350015,12.28155,2.006816,-1
19,M,0,1,4,7,2,14,2,9999,2,-1,-1,-1,-1
19,M,0,1,4,8,1,15,3,4998,0,0.3943638,6.454415,3.361676,-1
19,M,0,1,5,1,1,20,4,2542,0,0.4778381,6.568708,3.990273,-1
19,M,0,1,5,2,1,17,1,1354,0,0.3314596,6.228116,2.912285,-1
19,M,0,1,5,3,2,20,4,2308,0,0.5916702,12.535,2.636559,-1
19,M,0,1,5,4,2,17,1,1220,0,0.1860252,12.32902,0.8506485,-1
19,M,0,1,5,5,1,19,3,2509,0,0.3856803,6.426393,3.311389,-1
19,M,0,1,5,6,2,18,2,4331,0,0.5330012,12.34716,2.41897,-1
19,M,0,1,5,7,2,19,3,2042,0,0.3369328,12.26892,1.555071,-1
19,M,0,1,5,8,1,18,2,1542,0,0.1971995,6.380487,1.683885,-1
19,M,0,1,6,1,2,21,1,1442,0,0.3230215,12.32222,1.476578,-1
19,M,0,1,6,2,2,23,3,5197,0,0.689,12.28293,3.184568,-1
19,M,0,1,6,3,2,24,4,7775,3,0.3874172,12.61098,1.738213,-1
19,M,0,1,6,4,1,22,2,4031,1,0.3732097,6.383196,3.18383,-1
19,M,0,1,6,5,1,24,4,2964,0,0.2172004,6.634708,1.800159,-1
19,M,0,1,6,6,1,23,3,3042,0,0.1636958,6.470791,1.395777,-1
19,M,0,1,6,7,1,21,1,1375,0,0.4587674,6.203061,4.011906,-1
19,M,0,1,6,8,2,22,2,4775,0,0.2704565,12.39924,1.219328,-1
19,M,0,1,7,1,2,28,4,1686,0,1.048518,12.53813,4.694316,-1
19,M,0,1,7,2,2,26,2,4497,0,0.4603047,12.38519,2.072732,-1
19,M,0,1,7,3,1,28,4,3064,0,0.3914064,6.631123,3.209918,-1
19,M,0,1,7,4,2,25,1,1386,0,0.1272022,12.34136,0.5801346,-1
19,M,0,1,7,5,1,26,2,2275,1,0.2819968,6.382677,2.403548,-1
19,M,0,1,7,6,1,27,3,2820,0,0.5416487,6.460646,4.681153,-1
19,M,0,1,7,7,1,25,1,2864,1,0.4747087,6.19627,4.156993,-1
19,M,0,1,7,8,2,27,3,3798,1,0.3319407,12.1753,1.53926,-1
19,M,0,1,8,1,1,30,2,1353,0,0.5246376,6.403915,4.433807,-1
19,M,0,1,8,2,2,31,3,5764,3,0.8903402,12.15113,4.161278,-1
19,M,0,1,8,3,2,32,4,2309,0,0.3471715,12.54746,1.563855,-1
19,M,0,1,8,4,2,30,2,2587,0,0.860959,12.33854,3.897672,-1
19,M,0,1,8,5,2,29,1,1209,0,0.2111708,12.29989,0.9644893,-1
19,M,0,1,8,6,1,32,4,2886,0,0.5357827,6.605666,4.502021,-1
19,M,0,1,8,7,1,31,3,3686,1,0.148559,6.446631,1.26424,-1
19,M,0,1,8,8,1,29,1,2953,1,0.05103588,6.183032,0.4502396,-1
19,M,0,1,9,1,2,36,4,1831,0,0.9407559,12.54317,4.182168,-1
19,M,0,1,9,2,1,35,3,5453,1,3.271602E-08,6.454268,0,-1
19,M,0,1,9,3,2,34,2,4775,1,0.4786923,12.35784,2.16853,-1
19,M,0,1,9,4,1,36,4,2931,0,1.142176E-07,6.628942,0,-1
19,M,0,1,9,5,2,33,1,1298,0,0.3114901,12.36849,1.4143,-1
19,M,0,1,9,6,1,34,2,2809,0,0.4632454,6.428632,3.918466,-1
19,M,0,1,9,7,1,33,1,1776,0,0.4332397,6.242,3.777661,-1
19,M,0,1,9,8,2,35,3,2942,0,0.3858713,12.31658,1.773434,-1
19,M,0,1,10,1,1,40,4,3330,0,0.004500871,6.631703,0.04423466,-1
19,M,0,1,10,2,2,38,2,3853,0,0.6942999,12.41683,3.111497,-1
19,M,0,1,10,3,2,39,3,2075,0,0.3123106,12.31994,1.429166,-1
19,M,0,1,10,4,1,38,2,2819,1,0.2560666,6.420297,2.172498,-1
19,M,0,1,10,5,1,37,1,1864,0,0.5260221,6.235561,4.589067,-1
19,M,0,1,10,6,2,40,4,3465,0,0.5444248,12.59037,2.415732,-1
19,M,0,1,10,7,2,37,1,1075,0,0.9307465,12.38089,4.229063,-1
19,M,0,1,10,8,1,39,3,2920,0,0.1120961,6.479156,0.9433607,-1
19,M,0,1,11,1,1,41,1,2242,1,0.3015162,6.24001,2.630911,-1
19,M,0,1,11,2,1,44,4,2864,0,0.2677085,6.634123,2.206821,-1
19,M,0,1,11,3,1,43,3,2975,0,0.05854196,6.477207,0.5004597,-1
19,M,0,1,11,4,1,42,2,2576,0,0.5399675,6.428099,4.579795,-1
19,M,0,1,11,5,2,43,3,5197,0,0.3508943,12.32188,1.61034,-1
19,M,0,1,11,6,2,41,1,1309,0,0.6753007,12.37387,3.064585,-1
19,M,0,1,11,7,2,42,2,3708,0,0.2385589,12.43147,1.074108,-1
19,M,0,1,11,8,2,44,4,3120,1,0.9257899,12.57469,4.128392,-1
19,M,0,1,12,1,2,46,2,8242,0,0.64818,12.334,2.989306,-1
19,M,0,1,12,2,1,48,4,3164,0,0.5500816,6.613741,4.616092,-1
19,M,0,1,12,3,2,47,3,2542,1,0.7640176,12.31412,3.52359,-1
19,M,0,1,12,4,1,46,2,2298,1,0.3860183,6.441828,3.264288,-1
19,M,0,1,12,5,1,45,1,2120,1,0.3197244,6.254426,2.773611,-1
19,M,0,1,12,6,1,47,3,2808,0,2.924101E-08,6.467055,0,-1
19,M,0,1,12,7,2,45,1,1509,0,0.1297603,12.38486,0.589503,-1
19,M,0,1,12,8,2,48,4,2598,0,0.3078048,12.6024,1.36573,-1
19,M,0,1,13,1,1,51,3,1964,0,0.4661637,6.480522,3.978723,-1
19,M,0,1,13,2,2,50,2,3620,1,0.2711865,12.35439,1.23337,-1
19,M,0,1,13,3,2,52,4,1664,0,0.7348765,12.58695,3.261288,-1
19,M,0,1,13,4,1,49,1,1753,0,0.1986641,6.258897,1.746637,-1
19,M,0,1,13,5,1,52,4,2109,0,0.3258464,6.635871,2.723042,-1
19,M,0,1,13,6,2,51,3,2209,0,0.008796785,12.33253,0.03426402,-1
19,M,0,1,13,7,2,49,1,1298,0,0.08241733,12.39413,0.373777,-1
19,M,0,1,13,8,1,50,2,5775,3,0.2161641,6.319478,1.86183,-1
19,M,0,1,14,1,2,53,1,1442,0,0.4248066,12.38054,1.941183,-1
19,M,0,1,14,2,2,54,2,4231,0,0.5044848,12.45189,2.258974,-1
19,M,0,1,14,3,1,56,4,3254,0,0.20936,6.644013,1.72499,-1
19,M,0,1,14,4,1,54,2,2320,0,0.3799316,6.431888,3.218567,-1
19,M,0,1,14,5,1,55,3,3331,0,0.01471831,6.482405,0.1235407,-1
19,M,0,1,14,6,2,56,4,2153,0,0.8073284,12.61024,3.587905,-1
19,M,0,1,14,7,1,53,1,1386,0,0.1595702,6.251507,1.387057,-1
19,M,0,1,14,8,2,55,3,2953,0,0.8435704,12.33621,3.883882,-1
19,M,0,1,15,1,1,58,2,3998,1,0.3263592,6.435905,2.763217,-1
19,M,0,1,15,2,1,60,4,6498,3,0.09061639,6.550304,0.749649,-1
19,M,0,1,15,3,2,57,1,8831,3,0.0943803,12.37821,0.4288719,-1
19,M,0,1,15,4,2,59,3,2175,0,1.383309E-07,12.33417,0,-1
19,M,0,1,15,5,1,57,1,1998,0,0.2861491,6.26285,2.483962,-1
19,M,0,1,15,6,2,60,4,2164,0,0.9944172,12.60321,4.400507,-1
19,M,0,1,15,7,1,59,3,3387,0,0.2414213,6.485397,2.060896,-1
19,M,0,1,15,8,2,58,2,4375,0,0.6743785,12.44471,3.01675,-1
19,M,0,1,16,1,1,64,4,3909,0,0.2344657,6.649781,1.954947,-1
19,M,0,1,16,2,2,62,2,1120,0,0.04670345,12.48588,0.2093567,-1
19,M,0,1,16,3,1,63,3,3842,1,0.2801519,6.475514,2.381295,-1
19,M,0,1,16,4,2,61,1,2031,0,0.779838,12.38632,3.575222,-1
19,M,0,1,16,5,1,62,2,2209,0,0.278314,6.448822,2.351103,-1
19,M,0,1,16,6,2,63,3,2042,0,0.1096553,12.34363,0.4996771,-1
19,M,0,1,16,7,2,64,4,2020,0,0.9923345,12.6112,4.398103,-1
19,M,0,1,16,8,1,61,1,1754,0,0.4690739,6.26357,4.065004,-1
19,M,0,1,17,1,3,68,4,2965,0,0.4847423,6.639683,3.984624,-1
19,M,0,1,17,2,3,65,1,1853,0,0.4730779,6.262318,4.100261,-1
19,M,0,1,17,3,4,68,4,1531,0,0.3901057,12.61658,1.728277,-1
19,M,0,1,17,4,4,66,2,1608,0,0.2263972,12.49995,1.019716,-1
19,M,0,1,17,5,3,67,3,2775,0,1.430168E-07,6.516578,0,-1
19,M,0,1,17,6,4,65,1,2664,1,0.2928922,12.43454,1.333689,-1
19,M,0,1,17,7,4,67,3,4520,0,0.6869134,12.34849,3.166876,-1
19,M,0,1,17,8,3,66,2,1476,0,0.5375891,6.44688,4.557672,-1
19,M,0,1,18,1,4,69,1,3075,1,0.4555511,12.40587,2.072827,-1
19,M,0,1,18,2,4,70,2,1609,0,0.1355938,12.52977,0.6081289,-1
19,M,0,1,18,3,3,71,3,3353,0,0.4043599,6.503817,3.44401,-1
19,M,0,1,18,4,3,69,1,2920,1,0.2592327,6.270087,2.251163,-1
19,M,0,1,18,5,3,72,4,2309,0,0.2273226,6.666401,1.880864,-1
19,M,0,1,18,6,4,71,3,3642,0,0.5834068,12.27979,2.67203,-1
19,M,0,1,18,7,4,72,4,1897,0,0.1287719,12.62088,0.5709552,-1
19,M,0,1,18,8,3,70,2,2075,0,0.4417969,6.458124,3.728882,-1
19,M,0,1,19,1,3,76,4,3309,0,1.329254E-07,6.68531,0,-1
19,M,0,1,19,2,4,75,3,2664,1,0.01228079,12.34582,0.05595291,-1
19,M,0,1,19,3,4,73,1,1230,0,0.5471256,12.41688,2.47599,-1
19,M,0,1,19,4,4,74,2,1430,0,0.4029218,12.50847,1.801462,-1
19,M,0,1,19,5,4,76,4,1631,0,0.07568958,12.61892,0.3357179,-1
19,M,0,1,19,6,3,73,1,1931,0,0.3498072,6.295182,3.04928,-1
19,M,0,1,19,7,3,74,2,2408,0,0.3881208,6.450125,3.30073,-1
19,M,0,1,19,8,3,75,3,3453,1,2.473663E-07,6.509184,0,-1
19,M,0,1,20,1,3,80,4,2998,0,0.123772,6.671548,1.021633,-1
19,M,0,1,20,2,4,77,1,6864,0,0.6656722,12.42126,3.04851,-1
19,M,0,1,20,3,3,79,3,2509,0,0.2566662,6.462468,2.180321,-1
19,M,0,1,20,4,3,78,2,4719,2,0.5195448,6.389637,4.422706,-1
19,M,0,1,20,5,4,79,3,1375,0,0.1393718,12.30375,0.6376578,-1
19,M,0,1,20,6,3,77,1,2231,1,0.3991707,6.212113,3.5609,-1
19,M,0,1,20,7,4,80,4,2132,0,0.3762168,12.58037,1.672925,-1
19,M,0,1,20,8,4,78,2,1253,0,0.4365406,12.45902,1.953645,-1
19,M,0,1,20,1,1,77,1,2464,0,0.16152,6.230587,1.408199,-1
19,M,0,1,20,2,2,78,2,1831,0,0.3467349,12.41806,1.559092,-1
19,M,0,1,20,3,1,80,4,3353,0,0.4110142,6.647417,3.430795,-1
19,M,0,1,20,4,2,79,3,2386,0,0.6690873,12.31762,3.061646,-1
19,M,0,1,20,5,2,80,4,2487,0,0.1699895,12.60036,0.7522548,-1
19,M,0,1,20,6,2,77,1,2053,0,1.020516,12.36919,4.659216,-1
19,M,0,1,20,7,1,78,2,2775,1,0.4251718,6.405309,3.616659,-1
19,M,0,1,20,8,1,79,3,3187,0,2.204598E-07,6.490422,0,-1
19,M,0,1,21,1,2,84,4,1675,0,0.750183,12.5999,3.319243,-1
19,M,0,1,21,2,2,82,2,1831,0,0.01932737,12.44891,0.08846933,-1
19,M,0,1,21,3,1,81,1,3320,1,0.2137002,6.204736,1.867288,-1
19,M,0,1,21,4,1,83,3,2620,0,0.0540164,6.508775,0.454995,-1
19,M,0,1,21,5,2,81,1,1131,0,0.3180234,12.36835,1.445639,-1
19,M,0,1,21,6,2,83,3,1564,0,0.01777822,12.32477,0.08156469,-1
19,M,0,1,21,7,1,84,4,6853,2,0.3024489,6.661162,2.47156,-1
19,M,0,1,21,8,1,82,2,9999,0,-1,-1,-1,-1
19,M,0,1,22,1,2,88,4,9999,0,-1,-1,-1,-1
19,M,0,1,22,2,2,87,3,9999,0,-1,-1,-1,-1
19,M,0,1,22,3,1,85,1,9999,0,-1,-1,-1,-1
19,M,0,1,22,4,2,86,2,9999,0,-1,-1,-1,-1
19,M,0,1,22,5,1,88,4,9999,0,-1,-1,-1,-1
19,M,0,1,22,6,2,85,1,9999,0,-1,-1,-1,-1
19,M,0,1,22,7,1,86,2,9999,0,-1,-1,-1,-1
19,M,0,1,22,8,1,87,3,9999,0,-1,-1,-1,-1
19,M,0,1,23,1,1,90,2,9999,0,-1,-1,-1,-1
19,M,0,1,23,2,2,91,3,7664,0,0.6513888,12.22621,3.024398,-1
19,M,0,1,23,3,1,92,4,3020,0,1.02462E-07,6.568686,0,-1
19,M,0,1,23,4,2,89,1,1342,0,0.3199886,12.30571,1.467538,-1
19,M,0,1,23,5,1,91,3,4031,0,0.4998297,6.426567,4.309572,-1
19,M,0,1,23,6,2,90,2,2020,0,0.1817159,12.34563,0.8266156,-1
19,M,0,1,23,7,2,92,4,1642,0,0.5441768,12.52363,2.421316,-1
19,M,0,1,23,8,1,89,1,1531,0,0.04990068,6.19747,0.4392403,-1
19,M,0,1,24,1,2,96,4,1431,0,0.9241254,12.53201,4.111613,-1
19,M,0,1,24,2,2,93,1,1164,0,0.09121966,12.31577,0.416371,-1
19,M,0,1,24,3,1,95,3,2320,0,0.4701774,6.444099,4.04288,-1
19,M,0,1,24,4,1,93,1,1520,0,0.1205847,6.203134,1.054063,-1
19,M,0,1,24,5,1,94,2,2597,1,0.4328967,6.385542,3.689872,-1
19,M,0,1,24,6,1,96,4,2498,0,0.3181958,6.604473,2.67225,-1
19,M,0,1,24,7,2,95,3,3176,0,0.06180083,12.26759,0.2832403,-1
19,M,0,1,24,8,2,94,2,2042,0,0.5548149,12.39929,2.544452,-1
19,M,0,1,25,1,2,99,3,7342,0,0.409079,12.27357,1.867079,-1
19,M,0,1,25,2,1,98,2,1864,0,0.3865737,6.383271,3.299543,-1
19,M,0,1,25,3,1,99,3,3064,0,0.2877204,6.442832,2.473064,-1
19,M,0,1,25,4,2,100,4,1831,0,0.3054033,12.55023,1.354508,-1
19,M,0,1,25,5,2,97,1,1197,0,0.2661398,12.3149,1.217883,-1
19,M,0,1,25,6,2,98,2,2675,0,6.491086E-08,12.39334,0,-1
19,M,0,1,25,7,1,100,4,2419,0,0.08176284,6.618661,0.6835691,-1
19,M,0,1,25,8,1,97,1,1609,0,0.4614885,6.233314,4.065486,-1
19,M,0,1,26,1,2,102,2,4720,1,0.09523004,12.38239,0.4311472,-1
19,M,0,1,26,2,2,101,1,1298,0,0.3317319,12.35537,1.513878,-1
19,M,0,1,26,3,1,104,4,3531,1,0.5475724,6.608638,4.502978,-1
19,M,0,1,26,4,1,102,2,2120,0,0.05245848,6.414103,0.4458725,-1
19,M,0,1,26,5,2,104,4,9931,4,0.770336,12.56558,3.463511,-1
19,M,0,1,26,6,1,103,3,2742,0,0.1846036,6.422422,1.585849,-1
19,M,0,1,26,7,1,101,1,1442,0,0.2086769,6.207641,1.823167,-1
19,M,0,1,26,8,2,103,3,2754,1,0.4941036,12.27188,2.258021,-1
19,M,0,1,27,1,2,105,1,1076,0,1.999659E-08,12.32595,0,-1
19,M,0,1,27,2,2,106,2,2498,1,1.007643,12.38129,4.523419,-1
19,M,0,1,27,3,2,108,4,1720,0,0.2830522,12.55869,1.260364,-1
19,M,0,1,27,4,1,106,2,1953,0,0.5119249,6.384538,4.354197,-1
19,M,0,1,27,5,1,108,4,2797,0,0.06353882,6.634534,0.5278606,-1
19,M,0,1,27,6,1,107,3,3420,0,0.1327798,6.473908,1.135911,-1
19,M,0,1,27,7,1,105,1,1298,0,0.2927321,6.200094,2.569788,-1
19,M,0,1,27,8,2,107,3,2109,0,0.7109952,12.29322,3.258826,-1
19,M,0,1,28,1,1,112,4,2753,0,0.559699,6.639278,4.680233,-1
19,M,0,1,28,2,2,109,1,1086,0,0.5294781,12.34382,2.40851,-1
19,M,0,1,28,3,1,111,3,2298,0,0.06628804,6.472698,0.5664824,-1
19,M,0,1,28,4,1,110,2,3731,0,0.4532993,6.392211,3.829503,-1
19,M,0,1,28,5,1,109,1,1642,0,0.4879942,6.20623,4.282354,-1
19,M,0,1,28,6,2,112,4,1875,0,1.474805E-07,12.58406,0,-1
19,M,0,1,28,7,2,110,2,1609,0,0.3746809,12.41851,1.689918,-1
19,M,0,1,28,8,2,111,3,3120,1,0.2599359,12.30019,1.185312,-1
19,M,0,1,29,1,1,113,1,1320,0,0.3566613,6.218742,3.11998,-1
19,M,0,1,29,2,1,116,4,2431,0,0.001885313,6.640018,0.01978234,-1
19,M,0,1,29,3,2,113,1,964,0,0.8131567,12.36573,3.698141,-1
19,M,0,1,29,4,2,115,3,1742,0,0.9790531,12.31426,4.532633,-1
19,M,0,1,29,5,1,114,2,1498,0,0.540094,6.414503,4.585138,-1
19,M,0,1,29,6,1,115,3,3142,0,1.656751E-07,6.471346,0,-1
19,M,0,1,29,7,2,116,4,4120,1,0.7242396,12.57946,3.211503,-1
19,M,0,1,29,8,2,114,2,1242,0,0.339998,12.43281,1.530846,-1
19,M,0,1,30,1,2,117,1,1253,0,0.03537979,12.34936,0.1594904,-1
19,M,0,1,30,2,2,118,2,1709,0,0.3859626,12.44208,1.731331,-1
19,M,0,1,30,3,1,117,1,2042,1,1.33801E-07,6.226078,0,-1
19,M,0,1,30,4,2,119,3,2075,0,0.3145624,12.3123,1.438991,-1
19,M,0,1,30,5,2,120,4,1809,0,1.026274,12.5875,4.547389,-1
19,M,0,1,30,6,1,118,2,1853,0,0.3183663,6.417124,2.702695,-1
19,M,0,1,30,7,1,119,3,1775,0,0.2978966,6.481319,2.545529,-1
19,M,0,1,30,8,1,120,4,2220,0,0.08960435,6.642797,0.7470343,-1
19,M,0,1,31,1,2,121,1,2931,1,0.1810032,12.36307,0.8223435,-1
19,M,0,1,31,2,2,124,4,1542,0,2.037167E-07,12.58897,0,-1
19,M,0,1,31,3,2,122,2,1386,0,0.4633099,12.44134,2.106357,-1
19,M,0,1,31,4,1,123,3,3675,1,4.140661E-08,6.469172,0,-1
19,M,0,1,31,5,1,124,4,2731,0,0.332307,6.632214,2.725126,-1
19,M,0,1,31,6,2,123,3,2398,0,1.047023,12.30943,4.844441,-1
19,M,0,1,31,7,1,122,2,2064,0,0.4030874,6.42068,3.410649,-1
19,M,0,1,31,8,1,121,1,1198,0,0.06958361,6.227093,0.612617,-1
19,M,0,1,32,1,2,127,3,2076,0,0.7139938,12.30832,3.291761,-1
19,M,0,1,32,2,2,128,4,2131,0,2.218906E-07,12.59029,0,-1
19,M,0,1,32,3,1,127,3,3031,0,0.1935614,6.479869,1.640082,-1
19,M,0,1,32,4,1,128,4,2275,0,0.3225345,6.640798,2.675544,-1
19,M,0,1,32,5,1,125,1,1198,0,0.4274769,6.240248,3.731086,-1
19,M,0,1,32,6,1,126,2,1665,0,0.5380665,6.425407,4.523852,-1
19,M,0,1,32,7,2,125,1,1353,0,0.7274664,12.37198,3.302746,-1
19,M,0,1,32,8,2,126,2,1320,0,0.6355526,12.46155,2.890425,-1
19,M,0,1,33,1,2,129,1,1453,0,0.4762815,12.37022,2.16157,-1
19,M,0,1,33,2,1,130,2,5676,4,0.2736048,6.341964,2.349021,-1
19,M,0,1,33,3,1,129,1,2942,1,0.2429893,6.213497,2.123754,-1
19,M,0,1,33,4,2,131,3,1176,0,0.1562896,12.3123,0.7121689,-1
19,M,0,1,33,5,2,132,4,1220,0,0.4705251,12.59598,2.112759,-1
19,M,0,1,33,6,1,131,3,2654,0,0.3483348,6.478818,2.961938,-1
19,M,0,1,33,7,2,130,2,2475,1,0.8250096,12.42912,3.748051,-1
19,M,0,1,33,8,1,132,4,2186,0,1.042377E-07,6.640512,0,-1
19,M,0,1,34,1,1,135,3,2364,0,0.5191758,6.474794,4.426557,-1
19,M,0,1,34,2,2,136,4,2242,1,0.4771526,12.59111,2.143658,-1
19,M,0,1,34,3,1,134,2,2076,0,0.3018805,6.423773,2.575951,-1
19,M,0,1,34,4,2,135,3,6642,0,0.4451465,12.32455,2.025647,-1
19,M,0,1,34,5,2,133,1,1064,0,0.867017,12.39466,3.933082,-1
19,M,0,1,34,6,2,134,2,3719,2,0.6825925,12.37128,3.068352,-1
19,M,0,1,34,7,1,136,4,3420,0,0.365741,6.640341,3.048766,-1
19,M,0,1,34,8,1,133,1,1242,0,0.4148137,6.183957,3.65184,-1
19,M,0,1,35,1,1,139,3,2831,0,1.46087E-07,6.483824,0,-1
19,M,0,1,35,2,1,138,2,2453,0,0.4214376,6.373794,3.60174,-1
19,M,0,1,35,3,1,140,4,2898,0,0.5267875,6.662653,4.338921,-1
19,M,0,1,35,4,1,137,1,1909,1,0.4080465,6.174743,3.593304,-1
19,M,0,1,35,5,2,139,3,1664,0,0.1144203,12.2852,0.5241405,-1
19,M,0,1,35,6,2,137,1,1275,0,2.83453E-08,12.32891,0,-1
19,M,0,1,35,7,2,138,2,1176,0,0.7021956,12.43332,3.198309,-1
19,M,0,1,35,8,2,140,4,2509,1,0.2449651,12.5883,1.092174,-1
19,M,0,1,37,1,3,145,1,2253,1,0.4621302,6.174995,4.09041,-1
19,M,0,1,37,2,4,146,2,1298,0,0.1529477,12.43189,0.6892704,-1
19,M,0,1,37,3,3,148,4,2409,0,0.2273294,6.688306,1.856146,-1
19,M,0,1,37,4,3,146,2,3264,2,0.2592703,6.353702,2.221406,-1
19,M,0,1,37,5,3,147,3,2520,0,0.1655902,6.495798,1.399417,-1
19,M,0,1,37,6,4,148,4,1698,0,0.307569,12.59753,1.376008,-1
19,M,0,1,37,7,4,147,3,2809,0,0.4146101,12.28771,1.914382,-1
19,M,0,1,37,8,4,145,1,2031,1,0.6610541,12.32813,3.050756,-1
19,M,0,1,38,1,3,150,2,2687,1,0.397213,6.34538,3.417186,-1
19,M,0,1,38,2,3,149,1,1998,0,0.3921861,6.16412,3.46074,-1
19,M,0,1,38,3,3,152,4,2497,0,0.034918,6.655221,0.2880355,-1
19,M,0,1,38,4,4,150,2,1287,0,0.09208442,12.468,0.416371,-1
19,M,0,1,38,5,3,151,3,3075,0,0.3502308,6.522562,2.960154,-1
19,M,0,1,38,6,4,149,1,3698,1,0.6861988,12.32421,3.148214,-1
19,M,0,1,38,7,4,151,3,1886,0,0.5574581,12.28743,2.576102,-1
19,M,0,1,38,8,4,152,4,1876,0,0.06549109,12.59416,0.2914124,-1
19,M,0,1,39,1,3,154,2,2375,0,0.2898454,6.366134,2.488135,-1
19,M,0,1,39,2,4,156,4,2531,0,1.165489E-07,12.59738,0,-1
19,M,0,1,39,3,4,154,2,1231,0,0.9697782,12.44171,4.363633,-1
19,M,0,1,39,4,4,155,3,2286,1,4.775233E-08,12.29961,0,-1
19,M,0,1,39,5,3,153,1,3131,1,0.1640667,6.201431,1.440078,-1
19,M,0,1,39,6,3,155,3,3487,0,2.353979E-07,6.514786,0,-1
19,M,0,1,39,7,4,153,1,1864,0,0.2002761,12.36881,0.9121451,-1
19,M,0,1,39,8,3,156,4,2953,0,0.3517433,6.673561,2.925028,-1
19,M,0,1,40,1,4,159,3,3931,0,0.7489069,12.29667,3.465489,-1
19,M,0,1,40,2,4,157,1,887,0,0.4336801,12.33067,1.977937,-1
19,M,0,1,40,3,3,159,3,2098,0,0.4783656,6.501605,4.045689,-1
19,M,0,1,40,4,3,160,4,3708,0,0.3113337,6.672627,2.52189,-1
19,M,0,1,40,5,3,158,2,3853,3,0.2955701,6.339303,2.541681,-1
19,M,0,1,40,6,4,160,4,1876,0,0.6191742,12.60038,2.768242,-1
19,M,0,1,40,7,3,157,1,1887,0,0.4133289,6.178342,3.643359,-1
19,M,0,1,40,8,4,158,2,1853,0,0.9918236,12.43431,4.469096,-1
19,M,0,1,41,1,1,163,3,2753,1,2.687067E-08,6.511671,0,-1
19,M,0,1,41,2,2,164,4,1342,0,0.5247375,12.60392,2.354015,-1
19,M,0,1,41,3,1,161,1,2897,0,0.5203466,6.168021,4.592693,-1
19,M,0,1,41,4,1,162,2,2576,1,0.09310457,6.352018,0.7957386,-1
19,M,0,1,41,5,1,164,4,1898,0,0.05678878,6.681058,0.466462,-1
19,M,0,1,41,6,2,161,1,1442,0,0.09187073,12.32952,0.4187142,-1
19,M,0,1,41,7,2,163,3,1853,0,0.238441,12.29894,1.093785,-1
19,M,0,1,41,8,2,162,2,1431,0,1.010217,12.42898,4.605598,-1
19,M,0,1,42,1,1,168,4,1764,0,0.3682866,6.680768,3.054668,-1
19,M,0,1,42,2,2,165,1,2186,1,1.004701,12.32848,4.604407,-1
19,M,0,1,42,3,1,167,3,2753,0,0.4164178,6.515523,3.518363,-1
19,M,0,1,42,4,1,165,1,1631,0,0.4414169,6.169313,3.894254,-1
19,M,0,1,42,5,1,166,2,4598,2,0.1694751,6.360729,1.438719,-1
19,M,0,1,42,6,2,167,3,1676,0,0.2087026,12.30083,0.9567486,-1
19,M,0,1,42,7,2,166,2,1520,0,0.9062811,12.4187,4.13891,-1
19,M,0,1,42,8,2,168,4,1898,0,0.2232357,12.60642,0.9985801,-1
19,M,0,1,43,1,1,169,1,3408,1,0.01657984,6.148395,0.1467098,-1
19,M,0,1,43,2,2,170,2,3120,2,0.4342345,12.36526,1.993901,-1
19,M,0,1,43,3,2,169,1,2520,1,0.5755857,12.35366,2.616363,-1
19,M,0,1,43,4,1,171,3,2897,0,0.236806,6.506031,2.013242,-1
19,M,0,1,43,5,1,172,4,2454,0,0.2645366,6.676743,2.176008,-1
19,M,0,1,43,6,2,171,3,1809,0,0.4158762,12.31934,1.912336,-1
19,M,0,1,43,7,2,172,4,1742,0,0.09193003,12.6219,0.4087828,-1
19,M,0,1,43,8,1,170,2,2709,1,0.1237362,6.40049,1.047358,-1
19,M,0,1,44,1,2,175,3,1586,0,0.07519266,12.3145,0.3432113,-1
19,M,0,1,44,2,2,173,1,1198,0,0.8436248,12.34388,3.900635,-1
19,M,0,1,44,3,1,176,4,2564,0,0.3403257,6.664486,2.833311,-1
19,M,0,1,44,4,1,173,1,1664,0,0.2355164,6.207998,2.064406,-1
19,M,0,1,44,5,1,174,2,2164,0,0.3899667,6.409865,3.277755,-1
19,M,0,1,44,6,1,175,3,2520,0,0.3571356,6.519919,3.014478,-1
19,M,0,1,44,7,2,176,4,1509,0,0.3283406,12.62326,1.44442,-1
19,M,0,1,44,8,2,174,2,2909,0,0.8348271,12.48305,3.788013,-1
19,M,0,1,45,1,2,179,3,1820,0,0.4363592,12.32047,2.004084,-1
19,M,0,1,45,2,2,178,2,1031,0,0.1027395,12.46724,0.4639383,-1
19,M,0,1,45,3,1,177,1,2387,1,0.07432571,6.193863,0.6531205,-1
19,M,0,1,45,4,2,180,4,1398,0,0.7853323,12.61655,3.470683,-1
19,M,0,1,45,5,1,178,2,1942,0,0.4511911,6.396205,3.837778,-1
19,M,0,1,45,6,1,180,4,2865,0,0.5036528,6.689343,4.180248,-1
19,M,0,1,45,7,2,177,1,1587,0,0.9243525,12.36253,4.218908,-1
19,M,0,1,45,8,1,179,3,2753,0,0.2622821,6.522288,2.210897,-1
19,M,0,1,46,1,2,181,1,2386,1,0.8109452,12.35719,3.744968,-1
19,M,0,1,46,2,2,184,4,2364,0,0.2358041,12.63125,1.052391,-1
19,M,0,1,46,3,1,181,1,1676,0,0.4566959,6.205183,4.006826,-1
19,M,0,1,46,4,1,184,4,2320,0,0.1887088,6.690973,1.56448,-1
19,M,0,1,46,5,2,183,3,1252,0,0.4216246,12.33387,1.926001,-1
19,M,0,1,46,6,2,182,2,4875,1,0.8828321,12.43035,3.96862,-1
19,M,0,1,46,7,1,183,3,2797,0,2.065071E-07,6.439694,0,-1
19,M,0,1,46,8,1,182,2,1709,0,4.610146E-08,6.461128,0,-1
19,M,0,1,47,1,1,185,1,2531,1,7.787791E-08,6.233019,0,-1
19,M,0,1,47,2,2,187,3,6853,5,0.7384624,12.25268,3.420107,-1
19,M,0,1,47,3,2,185,1,820,0,0.4963628,12.33378,2.269175,-1
19,M,0,1,47,4,2,188,4,1309,0,0.4204464,12.56995,1.863827,-1
19,M,0,1,47,5,2,186,2,6787,5,0.7791816,12.29613,3.590687,-1
19,M,0,1,47,6,1,187,3,2331,0,0.1335508,6.400137,1.144834,-1
19,M,0,1,47,7,1,186,2,1376,0,0.02035376,6.428416,0.1735894,-1
19,M,0,1,47,8,1,188,4,2020,0,0.03951149,6.586912,0.3292442,-1
19,M,0,1,48,1,1,189,1,1275,0,0.4076972,6.236503,3.559415,-1
19,M,0,1,48,2,2,190,2,2497,1,0.7298456,12.40461,3.27387,-1
19,M,0,1,48,3,1,192,4,2898,1,0.2610356,6.617475,2.146213,-1
19,M,0,1,48,4,2,191,3,1920,0,0.4009247,12.278,1.844723,-1
19,M,0,1,48,5,1,190,2,4031,2,0.05023148,6.416782,0.4265846,-1
19,M,0,1,48,6,2,192,4,1475,0,4.991168E-08,12.58836,0,-1
19,M,0,1,48,7,1,191,3,2975,0,0.02973872,6.462976,0.2533378,-1
19,M,0,1,48,8,2,189,1,1087,0,1.010998,12.35444,4.614606,-1
19,M,0,1,49,1,1,196,4,4177,2,0.1962475,6.604339,1.616284,-1
19,M,0,1,49,2,1,195,3,1764,0,2.08139E-07,6.425292,0,-1
19,M,0,1,49,3,1,193,1,1442,0,0.4614975,6.214315,4.031578,-1
19,M,0,1,49,4,2,196,4,1454,0,0.5723099,12.55143,2.568569,-1
19,M,0,1,49,5,1,194,2,2242,1,0.4150322,6.417176,3.524812,-1
19,M,0,1,49,6,2,195,3,1631,0,0.5669674,12.28989,2.584902,-1
19,M,0,1,49,7,2,194,2,1031,0,0.785762,12.46068,3.578671,-1
19,M,0,1,49,8,2,193,1,1742,1,0.6584153,12.33927,3.001397,-1
19,M,0,1,50,1,2,198,2,4175,3,0.6671532,12.29155,3.087179,-1
19,M,0,1,50,2,1,197,1,1409,0,0.08848945,6.254591,0.7692311,-1
19,M,0,1,50,3,2,199,3,1964,0,0.1893444,12.29296,0.867955,-1
19,M,0,1,50,4,1,200,4,3508,1,0.4823739,6.606473,3.979559,-1
19,M,0,1,50,5,1,199,3,2842,0,0.163946,6.425186,1.403885,-1
19,M,0,1,50,6,2,200,4,1886,0,0.3906658,12.57914,1.750218,-1
19,M,0,1,50,7,1,198,2,1764,0,0.4442587,6.439678,3.760934,-1
19,M,0,1,50,8,2,197,1,1320,0,0.1797522,12.35653,0.8173313,-1
19,M,0,1,51,1,1,202,2,2465,0,0.4907953,6.427385,4.162407,-1
19,M,0,1,51,2,1,203,3,2498,0,0.137945,6.447241,1.18068,-1
19,M,0,1,51,3,2,202,2,1542,0,0.4540307,12.47643,2.05852,-1
19,M,0,1,51,4,1,201,1,2642,1,0.1093517,6.233871,0.9544962,-1
19,M,0,1,51,5,2,204,4,1776,0,0.3127401,12.59467,1.388185,-1
19,M,0,1,51,6,2,203,3,1853,0,0.3413214,12.30753,1.568228,-1
19,M,0,1,51,7,1,204,4,2787,0,0.4227862,6.641854,3.531582,-1
19,M,0,1,51,8,2,201,1,2431,1,0.3596528,12.36445,1.64211,-1
19,M,0,1,52,1,1,207,3,3009,0,0.0883883,6.468902,0.7561465,-1
19,M,0,1,52,2,2,205,1,1298,0,0.6339833,12.36622,2.888934,-1
19,M,0,1,52,3,2,206,2,1575,0,0.9072387,12.49017,4.114232,-1
19,M,0,1,52,4,2,207,3,1587,0,0.768338,12.30803,3.545415,-1
19,M,0,1,52,5,2,208,4,1453,0,0.03863518,12.60547,0.1713202,-1
19,M,0,1,52,6,1,205,1,2732,1,1.616059E-07,6.241918,0.01978234,-1
19,M,0,1,52,7,1,206,2,2453,1,0.08090793,6.437958,0.6832828,-1
19,M,0,1,52,8,1,208,4,2876,0,0.06537274,6.650957,0.5374122,-1
19,M,0,1,53,1,1,211,3,2786,0,0.1553079,6.471763,1.326627,-1
19,M,0,1,53,2,2,212,4,1575,0,0.3375327,12.61016,1.513878,-1
19,M,0,1,53,3,1,210,2,1886,0,0.5288546,6.443225,4.475228,-1
19,M,0,1,53,4,2,211,3,2275,0,0.5109764,12.31675,2.35576,-1
19,M,0,1,53,5,2,209,1,1276,0,1.02337,12.36475,4.728991,-1
19,M,0,1,53,6,1,212,4,2209,0,0.5020699,6.659929,4.154589,-1
19,M,0,1,53,7,1,209,1,1553,0,0.2891406,6.245111,2.518084,-1
19,M,0,1,53,8,2,210,2,3675,1,0.5584216,12.40861,2.527549,-1
19,M,0,1,54,1,2,216,4,1275,0,0.2157138,12.56929,0.9559301,-1
19,M,0,1,54,2,1,213,1,1520,0,0.3722089,6.263397,3.235795,-1
19,M,0,1,54,3,2,215,3,2553,0,3.616804E-08,12.30791,0,-1
19,M,0,1,54,4,2,214,2,2908,0,0.7498422,12.47757,3.403235,-1
19,M,0,1,54,5,1,216,4,2942,0,0.203168,6.643064,1.695929,-1
19,M,0,1,54,6,2,213,1,1264,0,0.3014671,12.36861,1.372876,-1
19,M,0,1,54,7,1,215,3,2487,0,0.1997083,6.464873,1.708461,-1
19,M,0,1,54,8,1,214,2,3254,1,0.199969,6.447206,1.671872,-1
19,M,0,1,55,1,2,220,4,1575,0,0.5762337,12.60037,2.591103,-1
19,M,0,1,55,2,2,219,3,1764,0,0.2869388,12.32269,1.315071,-1
19,M,0,1,55,3,2,217,1,1398,0,0.904707,12.36441,4.175795,-1
19,M,0,1,55,4,2,218,2,1386,0,0.593385,12.50737,2.686059,-1
19,M,0,1,55,5,1,220,4,2731,0,0.1462496,6.648156,1.219649,-1
19,M,0,1,55,6,1,218,2,2220,1,0.161103,6.441682,1.351905,-1
19,M,0,1,55,7,1,217,1,1153,0,0.4408653,6.235231,3.841908,-1
19,M,0,1,55,8,1,219,3,2153,0,0.2654811,6.47323,2.270037,-1
19,M,0,1,56,1,1,222,2,1253,0,0.3558894,6.441744,3.010709,-1
19,M,0,1,56,2,2,221,1,1309,0,0.6088846,12.36429,2.775798,-1
19,M,0,1,56,3,1,223,3,2620,0,0.3986963,6.470871,3.402315,-1
19,M,0,1,56,4,1,224,4,2142,0,0.3252951,6.6443,2.662784,-1
19,M,0,1,56,5,1,221,1,1154,0,0.4427109,6.245085,3.848732,-1
19,M,0,1,56,6,2,224,4,1875,0,0.818958,12.60441,3.671199,-1
19,M,0,1,56,7,2,223,3,3175,0,0.8152881,12.31771,3.759475,-1
19,M,0,1,56,8,2,222,2,4153,3,0.9245703,12.28855,4.209521,-1
19,M,0,1,57,1,4,225,1,2731,0,0.1110075,12.38198,0.5066768,-1
19,M,0,1,57,2,3,226,2,1476,0,0.3627909,6.460763,3.088954,-1
19,M,0,1,57,3,4,227,3,2220,0,0.6313621,12.28129,2.887443,-1
19,M,0,1,57,4,3,225,1,1197,0,0.3552376,6.291908,3.098067,-1
19,M,0,1,57,5,4,228,4,1253,0,0.7645272,12.56075,3.403293,-1
19,M,0,1,57,6,4,226,2,1009,0,0.1748163,12.47474,0.7898148,-1
19,M,0,1,57,7,3,228,4,3664,1,0.3432839,6.596477,2.881675,-1
19,M,0,1,57,8,3,227,3,2087,0,0.08456591,6.385835,0.7255072,-1
19,M,0,1,58,1,4,232,4,1731,0,0.2875998,12.57081,1.288312,-1
19,M,0,1,58,2,4,231,3,1620,0,0.7503695,12.28503,3.484701,-1
19,M,0,1,58,3,3,232,4,2130,0,0.08783495,6.598055,0.7257769,-1
19,M,0,1,58,4,4,230,2,1109,0,0.664412,12.49412,3.020576,-1
19,M,0,1,58,5,3,229,1,1398,0,0.5357576,6.292957,4.676632,-1
19,M,0,1,58,6,3,230,2,1142,0,0.3433592,6.469631,2.886291,-1
19,M,0,1,58,7,3,231,3,2198,0,2.002797E-07,6.393884,0,-1
19,M,0,1,58,8,4,229,1,1497,0,0.8464155,12.41032,3.84578,-1
19,M,0,1,59,1,4,234,2,1142,0,1.063877,12.49096,4.791296,-1
19,M,0,1,59,2,3,236,4,3065,0,0.01836122,6.58035,0.1519511,-1
19,M,0,1,59,3,3,234,2,1298,0,0.2915306,6.451108,2.467835,-1
19,M,0,1,59,4,3,235,3,2331,0,0.05079048,6.436412,0.4352126,-1
19,M,0,1,59,5,4,233,1,1486,0,0.2989835,12.40436,1.359123,-1
19,M,0,1,59,6,4,236,4,1986,0,0.6803549,12.5823,3.040343,-1
19,M,0,1,59,7,3,233,1,2098,1,0.2783099,6.28222,2.423336,-1
19,M,0,1,59,8,4,235,3,1164,0,0.7311444,12.29129,3.322957,-1
19,M,0,1,60,1,4,238,2,1120,0,0.1160734,12.50576,0.5215207,-1
19,M,0,1,60,2,3,240,4,3253,0,6.271699E-08,6.611683,0,-1
19,M,0,1,60,3,3,237,1,2308,0,1.74696E-08,6.258154,0,-1
19,M,0,1,60,4,4,239,3,1042,0,0.1839993,12.28969,0.8400003,-1
19,M,0,1,60,5,3,238,2,2975,2,0.3702787,6.461714,3.092122,-1
19,M,0,1,60,6,3,239,3,3120,0,0.2932719,6.431446,2.507568,-1
19,M,0,1,60,7,4,237,1,2709,0,0.3395549,12.41602,1.540404,-1
19,M,0,1,60,8,4,240,4,1631,0,0.671111,12.57817,3.006415,-1
19,M,0,1,61,1,2,243,3,1032,0,0.8192528,12.31129,3.719365,-1
19,M,0,1,61,2,1,242,2,2420,1,0.5356862,6.47176,4.515445,-1
19,M,0,1,61,3,1,243,3,2786,0,0.3383604,6.422921,2.910268,-1
19,M,0,1,61,4,2,244,4,1353,0,2.755631E-07,12.58081,0,-1
19,M,0,1,61,5,1,241,1,1220,0,0.1476388,6.280342,1.288615,-1
19,M,0,1,61,6,2,242,2,1098,0,0.8476744,12.49617,3.860214,-1
19,M,0,1,61,7,2,241,1,898,0,0.2534112,12.37047,1.150971,-1
19,M,0,1,61,8,1,244,4,2586,1,0.2755168,6.601535,2.270382,-1
19,M,0,1,62,1,1,247,3,3009,0,3.060436E-07,6.428134,0,-1
19,M,0,1,62,2,1,248,4,1942,0,0.2330392,6.601952,1.956648,-1
19,M,0,1,62,3,1,245,1,1320,0,0.1124815,6.283924,0.9745807,-1
19,M,0,1,62,4,1,246,2,1930,0,0.01917873,6.472968,0.1607126,-1
19,M,0,1,62,5,2,245,1,964,0,0.2828255,12.36738,1.29074,-1
19,M,0,1,62,6,2,247,3,1286,0,2.072087E-07,12.31011,0,-1
19,M,0,1,62,7,2,248,4,1286,0,1.524117E-07,12.57842,0,-1
19,M,0,1,62,8,2,246,2,4886,2,0.5669785,12.45616,2.536516,-1
19,M,0,1,1,1,7,2,2,6185,0,2.866354,6.434283,25.30023,-1
19,M,0,1,1,2,7,3,3,4420,0,3.545175,6.513593,31.53639,-1
19,M,0,1,1,3,6,1,1,3563,0,0.8731973,12.37899,3.976359,-1
19,M,0,1,1,4,6,4,4,3508,0,3.108123,12.59708,14.11782,-1
19,M,0,1,1,5,5,1,1,2664,0,1.165267,6.258424,10.18978,-1
19,M,0,1,1,6,5,3,3,4109,0,4.764328,6.507342,45.03752,-1
19,M,0,1,1,7,7,1,1,3285,0,0.5808346,6.273502,5.050358,-1
19,M,0,1,1,8,5,4,4,3031,0,1.521321,6.640056,12.81085,-1
19,M,0,1,1,9,5,2,2,3342,0,2.990208,6.440193,26.19912,-1
19,M,0,1,1,10,7,4,4,3097,0,6.394808,6.716799,72.18736,-1
19,M,0,1,1,11,8,3,3,1852,0,8.459967,12.35961,43.19511,-1
19,M,0,1,1,12,6,2,2,1652,0,7.07662E-08,12.45644,0,-1
19,M,0,1,1,13,8,1,1,4719,0,4.112257,12.38958,19.35257,-1
19,M,0,1,1,14,8,2,2,7420,0,2.09784,12.5207,9.552631,-1
19,M,0,1,1,15,6,3,3,2407,0,3.425901,12.33834,16.02148,-1
19,M,0,1,1,16,8,4,4,2197,0,1.316256,12.60523,5.819721,-1
19,M,0,1,2,1,8,4,4,2042,0,4.033558,12.60358,18.10576,-1
19,M,0,1,2,2,5,1,1,2887,0,1.069157,6.251563,9.350382,-1
19,M,0,1,2,3,8,3,3,3186,0,8.307802,12.34498,41.99306,-1
19,M,0,1,2,4,8,2,2,3031,0,4.725142,12.50172,22.20733,-1
19,M,0,1,2,5,6,4,4,1909,0,1.651254,12.59962,7.322176,-1
19,M,0,1,2,6,6,1,1,4364,0,1.233217,12.3796,5.631168,-1
19,M,0,1,2,7,6,2,2,1309,0,0.8735087,12.49384,3.960025,-1
19,M,0,1,2,8,7,3,3,2398,0,5.840008,6.56432,62.83046,-1
19,M,0,1,2,9,8,1,1,1753,0,4.352594,12.39631,20.5217,-1
19,M,0,1,2,10,7,4,4,2786,0,0.3205166,6.692497,2.638563,-1
19,M,0,1,2,11,7,2,2,2398,0,3.856761,6.46379,35.72901,-1
19,M,0,1,2,12,7,1,1,1186,0,1.701447,6.29966,14.88319,-1
19,M,0,1,2,13,5,2,2,2053,0,5.710338,6.515107,61.2202,-1
19,M,0,1,2,14,6,3,3,2131,0,2.640173,12.37392,12.30794,-1
19,M,0,1,2,15,5,4,4,2720,0,0.5490508,6.682722,4.559476,-1
19,M,0,1,2,16,5,3,3,5520,0,0.1121903,6.413418,0.9685385,-1
