Age, Gender, Awareness Type, Session, Block, Trial, Set, Pattern, Quadrant, Response Time, Num Mistakes, Distance From Target, Camera Distance From Target, Angle Error (Degrees), FC Response
18,F,0,1,1,1,2,2,2,4987,0,0.4206983,12.37476,1.904954,-1
18,F,0,1,1,2,1,4,4,4665,2,0.4117104,6.495896,3.434959,-1
18,F,0,1,1,3,1,1,1,1820,0,0.3576598,6.236063,3.151632,-1
18,F,0,1,1,4,1,3,3,1309,0,0.125454,6.158605,1.118201,-1
18,F,0,1,1,5,2,1,1,1697,0,0.3799862,12.18991,1.753346,-1
18,F,0,1,1,6,2,3,3,3287,0,0.4490316,12.23248,2.075657,-1
18,F,0,1,1,7,1,2,2,1320,0,0.4189925,6.516613,3.460796,-1
18,F,0,1,1,8,2,4,4,2620,1,0.2689238,12.40495,1.203985,-1
18,F,0,1,2,1,2,5,1,1342,0,0.8742731,12.18775,4.030995,-1
18,F,0,1,2,2,2,8,4,2398,0,0.6047546,12.51572,2.703564,-1
18,F,0,1,2,3,1,6,2,2042,2,0.4309351,6.627617,3.64728,-1
18,F,0,1,2,4,2,7,3,6764,0,0.6803471,12.35207,3.08553,-1
18,F,0,1,2,5,1,5,1,4076,0,0.1756132,6.302052,1.527903,-1
18,F,0,1,2,6,1,8,4,2209,0,2.00346E-07,6.58652,0,-1
18,F,0,1,2,7,2,6,2,1187,0,0.1471981,12.45251,0.6658786,-1
18,F,0,1,2,8,1,7,3,2109,0,0.07980899,6.260096,0.6988559,-1
18,F,0,1,3,1,2,10,2,1054,0,1.029384,12.44112,4.632442,-1
18,F,0,1,3,2,1,9,1,1409,0,1.015933E-07,6.288887,0,-1
18,F,0,1,3,3,1,10,2,1331,0,0.4265894,6.593861,3.499727,-1
18,F,0,1,3,4,1,12,4,2920,0,1.602378E-07,6.580698,0,-1
18,F,0,1,3,5,2,9,1,1109,0,0.529138,12.28504,2.420022,-1
18,F,0,1,3,6,2,11,3,2653,1,0.6179477,12.33263,2.833587,-1
18,F,0,1,3,7,2,12,4,2898,0,0.4159634,12.50356,1.872835,-1
18,F,0,1,3,8,1,11,3,1420,0,0.1574381,6.264773,1.381827,-1
18,F,0,1,4,1,2,14,2,2731,0,5.09023E-08,12.44588,0.01978234,-1
18,F,0,1,4,2,1,16,4,3742,0,0.2282004,6.586297,1.87043,-1
18,F,0,1,4,3,1,15,3,2420,0,0.420984,6.258368,3.733552,-1
18,F,0,1,4,4,1,13,1,2098,0,0.1133443,6.281962,0.9897227,-1
18,F,0,1,4,5,2,15,3,2609,1,0.3431219,12.3332,1.54345,-1
18,F,0,1,4,6,2,13,1,1553,0,0.06416025,12.27229,0.2940859,-1
18,F,0,1,4,7,2,16,4,2131,0,0.7667139,12.50149,3.467861,-1
18,F,0,1,4,8,1,14,2,2075,1,0.2683206,6.59061,2.26434,-1
18,F,0,1,5,1,2,19,3,3420,0,0.1198515,12.32388,0.5450047,-1
18,F,0,1,5,2,2,18,2,9999,0,-1,-1,-1,-1
18,F,0,1,5,3,1,20,4,2442,0,0.07065389,6.575563,0.5834977,-1
18,F,0,1,5,4,1,17,1,3275,0,0.2958224,6.299633,2.579671,-1
18,F,0,1,5,5,1,18,2,1720,0,0.4307036,6.598083,3.512069,-1
18,F,0,1,5,6,1,19,3,3587,0,0.1000168,6.256262,0.8818219,-1
18,F,0,1,5,7,2,17,1,1220,0,0.1240098,12.2786,0.5695826,-1
18,F,0,1,5,8,2,20,4,2620,0,0.4887681,12.49022,2.189727,-1
18,F,0,1,6,1,2,22,2,1898,0,0.8869343,12.44695,3.988407,-1
18,F,0,1,6,2,2,23,3,1687,0,0.1690637,12.32153,0.7737964,-1
18,F,0,1,6,3,1,22,2,4765,0,0.18052,6.597796,1.47949,-1
18,F,0,1,6,4,1,21,1,1798,0,1.313527E-07,6.38593,0,-1
18,F,0,1,6,5,1,24,4,2409,0,0.2839448,6.661341,2.323974,-1
18,F,0,1,6,6,1,23,3,1865,0,9.890653E-08,6.338251,0,-1
18,F,0,1,6,7,2,21,1,1842,1,0.6526571,12.37973,2.994737,-1
18,F,0,1,6,8,2,24,4,2231,0,0.5300837,12.58581,2.348938,-1
18,F,0,1,7,1,1,26,2,1942,1,0.4223844,6.681545,3.486723,-1
18,F,0,1,7,2,2,27,3,2109,0,0.6015747,12.41748,2.739812,-1
18,F,0,1,7,3,2,28,4,2364,0,0.1118008,12.57568,0.4996771,-1
18,F,0,1,7,4,1,27,3,5776,0,0.1815109,6.330261,1.589916,-1
18,F,0,1,7,5,2,26,2,5698,0,0.233324,12.5264,1.042865,-1
18,F,0,1,7,6,1,25,1,1954,0,0.4174524,6.350488,3.607443,-1
18,F,0,1,7,7,1,28,4,2409,0,0.07942976,6.646753,0.6584912,-1
18,F,0,1,7,8,2,25,1,1553,0,0.01401139,12.35814,0.06255726,-1
18,F,0,1,8,1,1,30,2,1242,0,1.060255E-07,6.670839,0,-1
18,F,0,1,8,2,1,29,1,1831,1,0.2456581,6.357777,2.122463,-1
18,F,0,1,8,3,2,31,3,2198,0,0.7294018,12.40509,3.326843,-1
18,F,0,1,8,4,1,32,4,2287,0,1.70449E-07,6.64946,0.01978234,-1
18,F,0,1,8,5,2,30,2,3098,0,0.07469267,12.53052,0.3351346,-1
18,F,0,1,8,6,2,29,1,1398,0,0.8004991,12.35362,3.63825,-1
18,F,0,1,8,7,1,31,3,2009,0,0.3651761,6.338887,3.131191,-1
18,F,0,1,8,8,2,32,4,3753,0,0.4083285,12.58013,1.829383,-1
18,F,0,1,9,1,2,35,3,1809,0,0.505272,12.41952,2.273053,-1
18,F,0,1,9,2,2,34,2,3809,0,0.5850637,12.52978,2.613668,-1
18,F,0,1,9,3,2,33,1,2198,1,0.5419466,12.35473,2.483253,-1
18,F,0,1,9,4,1,36,4,3253,1,0.05993796,6.652401,0.4897892,-1
18,F,0,1,9,5,1,33,1,1798,0,0.3683982,6.358773,3.184138,-1
18,F,0,1,9,6,2,36,4,1731,0,0.2124122,12.58405,0.9501812,-1
18,F,0,1,9,7,1,35,3,2775,0,0.07423813,6.34951,0.6376578,-1
18,F,0,1,9,8,1,34,2,1187,0,1.388912E-07,6.67547,0,-1
18,F,0,1,10,1,1,37,1,2253,0,0.1059988,6.361453,0.9164255,-1
18,F,0,1,10,2,1,38,2,1109,0,0.2769829,6.667155,2.24123,-1
18,F,0,1,10,3,2,40,4,3098,0,0.1123861,12.58484,0.5016313,-1
18,F,0,1,10,4,2,39,3,1698,0,0.0681525,12.41823,0.3077414,-1
18,F,0,1,10,5,2,38,2,1242,0,0.4839443,12.53552,2.194905,-1
18,F,0,1,10,6,1,39,3,9820,1,0.1835275,6.322643,1.595323,-1
18,F,0,1,10,7,1,40,4,2109,0,0.3733784,6.650757,3.066182,-1
18,F,0,1,10,8,2,37,1,1576,0,0.4557548,12.36192,2.071126,-1
18,F,0,1,11,1,2,44,4,2287,0,0.1039808,12.58474,0.4643598,-1
18,F,0,1,11,2,1,41,1,1676,0,0.4911132,6.365671,4.248929,-1
18,F,0,1,11,3,2,42,2,3098,0,0.5334144,12.54385,2.390155,-1
18,F,0,1,11,4,2,41,1,1620,0,0.6931079,12.36253,3.150824,-1
18,F,0,1,11,5,1,44,4,2242,0,0.1800161,6.652573,1.464334,-1
18,F,0,1,11,6,1,43,3,6875,0,0.002496721,6.344547,0.02797646,-1
18,F,0,1,11,7,1,42,2,1387,0,0.0004668795,6.685575,0,-1
18,F,0,1,11,8,2,43,3,1798,0,0.6560043,12.41578,2.988455,-1
18,F,0,1,12,1,2,45,1,1120,0,0.2677838,12.36312,1.217883,-1
18,F,0,1,12,2,2,48,4,1342,0,0.5329437,12.58565,2.384662,-1
18,F,0,1,12,3,2,47,3,1865,0,0.3037482,12.41715,1.372306,-1
18,F,0,1,12,4,1,48,4,4187,0,0.2492547,6.63661,2.040951,-1
18,F,0,1,12,5,2,46,2,4131,0,0.2666031,12.52614,1.201871,-1
18,F,0,1,12,6,1,47,3,6809,0,0.3074067,6.320997,2.643084,-1
18,F,0,1,12,7,1,46,2,1142,0,0.1239108,6.672205,1.022973,-1
18,F,0,1,12,8,1,45,1,5087,0,0.4145302,6.364392,3.595483,-1
18,F,0,1,13,1,1,51,3,1931,1,0.1481861,6.3309,1.279013,-1
18,F,0,1,13,2,2,49,1,2331,0,0.9424702,12.35587,4.306161,-1
18,F,0,1,13,3,2,51,3,1987,1,0.8297026,12.40327,3.785532,-1
18,F,0,1,13,4,1,50,2,1976,0,1.707167E-07,6.669188,0,-1
18,F,0,1,13,5,2,52,4,3898,1,2.104906E-07,12.56864,0,-1
18,F,0,1,13,6,2,50,2,4319,0,0.0320507,12.52593,0.1440177,-1
18,F,0,1,13,7,1,49,1,1865,0,0.3595584,6.369519,3.107846,-1
18,F,0,1,13,8,1,52,4,3020,0,1.630538E-07,6.634521,0,-1
18,F,0,1,14,1,1,54,2,1353,0,8.855109E-08,6.675184,0,-1
18,F,0,1,14,2,1,56,4,2553,0,0.003747472,6.631407,0,-1
18,F,0,1,14,3,2,55,3,1720,0,0.3056013,12.40362,1.38211,-1
18,F,0,1,14,4,2,56,4,4198,0,0.09182891,12.56418,0.409739,-1
18,F,0,1,14,5,1,55,3,1954,0,0.232833,6.321373,2.004572,-1
18,F,0,1,14,6,1,53,1,5020,1,5.766408E-08,6.357207,0,-1
18,F,0,1,14,7,2,54,2,1664,1,0.5547554,12.53336,2.50022,-1
18,F,0,1,14,8,2,53,1,1442,0,0.7331228,12.34777,3.336657,-1
18,F,0,1,15,1,1,58,2,1487,0,6.18649E-08,6.666749,0,-1
18,F,0,1,15,2,2,57,1,1154,0,0.7210993,12.34824,3.277874,-1
18,F,0,1,15,3,2,59,3,1664,0,0.8098757,12.39863,3.69634,-1
18,F,0,1,15,4,2,58,2,3353,0,0.6726905,12.5321,3.058319,-1
18,F,0,1,15,5,1,57,1,3998,0,0.3510319,6.350617,3.032994,-1
18,F,0,1,15,6,1,60,4,2376,0,0.08910196,6.641267,0.7265852,-1
18,F,0,1,15,7,1,59,3,4031,0,0.4488042,6.322583,3.855493,-1
18,F,0,1,15,8,2,60,4,3353,0,0.339458,12.56416,1.521228,-1
18,F,0,1,16,1,2,61,1,1531,0,8.494596E-08,12.33969,0,-1
18,F,0,1,16,2,2,63,3,1376,0,0.4839083,12.40225,2.196954,-1
18,F,0,1,16,3,2,64,4,1653,0,0.2630115,12.55734,1.179188,-1
18,F,0,1,16,4,2,62,2,5998,0,0.9618196,12.5185,4.373631,-1
18,F,0,1,16,5,1,64,4,3176,0,8.365758E-08,6.642602,0,-1
18,F,0,1,16,6,1,63,3,4587,0,0.1535662,6.317111,1.336766,-1
18,F,0,1,16,7,1,61,1,3809,0,2.373859E-08,6.350165,0,-1
18,F,0,1,16,8,1,62,2,1553,0,0.2332159,6.679764,1.929148,-1
18,F,0,1,17,1,3,67,3,1442,0,0.02800492,6.322683,0.2406627,-1
18,F,0,1,17,2,4,65,1,1165,0,0.3310877,12.28575,1.517751,-1
18,F,0,1,17,3,3,66,2,3187,0,6.90265E-08,6.680598,0,-1
18,F,0,1,17,4,4,67,3,1420,0,0.391079,12.45463,1.772661,-1
18,F,0,1,17,5,3,68,4,4209,0,1.551355E-07,6.63841,0,-1
18,F,0,1,17,6,4,66,2,1020,0,0.8516541,12.47483,3.865942,-1
18,F,0,1,17,7,3,65,1,2453,1,3.235853E-08,6.314057,0,-1
18,F,0,1,17,8,4,68,4,1531,0,0.7947764,12.56203,3.568041,-1
18,F,0,1,18,1,4,70,2,1242,0,1.044841,12.52178,4.717336,-1
18,F,0,1,18,2,3,72,4,2320,0,0.3107786,6.665251,2.549371,-1
18,F,0,1,18,3,3,70,2,4098,0,0.3452295,6.710739,2.87283,-1
18,F,0,1,18,4,4,71,3,2776,0,0.002812461,12.43977,0,-1
18,F,0,1,18,5,4,69,1,5687,0,0.01591176,12.28656,0.06852804,-1
18,F,0,1,18,6,4,72,4,1442,0,0.3329936,12.56502,1.492921,-1
18,F,0,1,18,7,3,69,1,1909,1,3.403207E-08,6.314703,0,-1
18,F,0,1,18,8,3,71,3,3543,1,0.2145206,6.31589,1.874297,-1
18,F,0,1,19,1,3,76,4,1653,0,0.1262303,6.640458,1.030786,-1
18,F,0,1,19,2,3,75,3,2242,0,2.422773E-07,6.306629,0,-1
18,F,0,1,19,3,4,73,1,1298,0,0.3640685,12.29056,1.673978,-1
18,F,0,1,19,4,4,75,3,3453,0,0.4826966,12.40251,2.164284,-1
18,F,0,1,19,5,4,74,2,1487,0,0.9821219,12.48173,4.454698,-1
18,F,0,1,19,6,4,76,4,2498,0,0.727847,12.56971,3.217958,-1
18,F,0,1,19,7,3,73,1,1920,1,3.156844E-07,6.308323,0,-1
18,F,0,1,19,8,3,74,2,2109,0,0.3682146,6.688572,3.025174,-1
18,F,0,1,20,1,3,79,3,5320,0,0.4277506,6.35817,3.69438,-1
18,F,0,1,20,2,3,77,1,3909,0,0.4778985,6.349394,4.161654,-1
18,F,0,1,20,3,3,78,2,2254,0,0.06509446,6.659195,0.5337587,-1
18,F,0,1,20,4,3,80,4,3198,0,2.164488E-07,6.631115,0,-1
18,F,0,1,20,5,4,79,3,2465,0,0.08879156,12.32548,0.4049353,-1
18,F,0,1,20,6,4,80,4,1153,0,0.5329978,12.50935,2.405989,-1
18,F,0,1,20,7,4,78,2,1087,0,0.4086658,12.34562,1.857094,-1
18,F,0,1,20,8,4,77,1,2020,1,7.855343E-08,12.17819,0,-1
18,F,0,1,20,1,2,80,4,1553,0,0.3169034,12.46038,1.427796,-1
18,F,0,1,20,2,2,77,1,954,0,0.8309714,12.22268,3.829759,-1
18,F,0,1,20,3,2,78,2,1265,0,0.1176713,12.39611,0.5344914,-1
18,F,0,1,20,4,2,79,3,2109,0,1.492136E-07,12.29024,0,-1
18,F,0,1,20,5,1,78,2,2165,0,0.1176433,6.556164,0.9915005,-1
18,F,0,1,20,6,1,79,3,2331,0,0.172405,6.213889,1.508569,-1
18,F,0,1,20,7,1,77,1,2076,1,1.033889E-07,6.236403,0,-1
18,F,0,1,20,8,1,80,4,2687,0,0.1449607,6.566976,1.189103,-1
18,F,0,1,21,1,2,82,2,2953,0,0.5679448,12.41897,2.582856,-1
18,F,0,1,21,2,1,83,3,9999,2,-1,-1,-1,-1
18,F,0,1,21,3,1,82,2,2642,0,3.554379E-08,6.575794,0,-1
18,F,0,1,21,4,2,84,4,1487,0,0.2034398,12.46948,0.917919,-1
18,F,0,1,21,5,1,81,1,1909,0,0.2113293,6.245996,1.861094,-1
18,F,0,1,21,6,2,83,3,1654,0,0.1306143,12.28706,0.5977437,-1
18,F,0,1,21,7,2,81,1,1576,0,4.431143E-09,12.21807,0,-1
18,F,0,1,21,8,1,84,4,2687,0,1.411657E-07,6.569334,0.01978234,-1
18,F,0,1,22,1,2,86,2,3176,0,0.5022791,12.41523,2.273484,-1
18,F,0,1,22,2,2,88,4,2498,0,0.5132652,12.46499,2.303928,-1
18,F,0,1,22,3,1,85,1,3020,0,0.2823937,6.246924,2.486876,-1
18,F,0,1,22,4,1,87,3,2553,1,0.1876607,6.216702,1.641037,-1
18,F,0,1,22,5,1,86,2,1776,0,1.20897E-07,6.557317,0,-1
18,F,0,1,22,6,1,88,4,3365,0,0.4332411,6.557146,3.609288,-1
18,F,0,1,22,7,2,87,3,4364,1,0.238075,12.28312,1.085344,-1
18,F,0,1,22,8,2,85,1,1564,0,0.3777388,12.22501,1.737312,-1
18,F,0,1,23,1,1,90,2,3198,0,9.427396E-08,6.558112,0,-1
18,F,0,1,23,2,2,89,1,2253,0,0.04859154,12.21261,0.2246844,-1
18,F,0,1,23,3,2,92,4,1509,0,0.5999171,12.46339,2.666163,-1
18,F,0,1,23,4,1,89,1,3142,1,0.005458259,6.237062,0.04423466,-1
18,F,0,1,23,5,1,91,3,1809,0,0.4660473,6.210144,4.02803,-1
18,F,0,1,23,6,2,90,2,2542,0,2.321248E-07,12.39654,0,-1
18,F,0,1,23,7,1,92,4,1698,0,0.3153504,6.557477,2.625996,-1
18,F,0,1,23,8,2,91,3,2787,0,0.8826529,12.29367,4.041233,-1
18,F,0,1,24,1,1,96,4,3676,0,0.1676556,6.567465,1.380835,-1
18,F,0,1,24,2,1,95,3,3887,0,0.2184287,6.212983,1.910186,-1
18,F,0,1,24,3,1,93,1,2220,0,0.514475,6.244149,4.536262,-1
18,F,0,1,24,4,2,96,4,7031,0,0.6608324,12.46747,2.986817,-1
18,F,0,1,24,5,2,94,2,3009,0,0.5413514,12.40544,2.464263,-1
18,F,0,1,24,6,2,95,3,3942,0,0.5190797,12.2832,2.375122,-1
18,F,0,1,24,7,2,93,1,2109,0,0.9785211,12.23491,4.497712,-1
18,F,0,1,24,8,1,94,2,2142,1,0.213399,6.566809,1.813157,-1
18,F,0,1,25,1,2,99,3,1565,0,0.6628203,12.30279,2.994606,-1
18,F,0,1,25,2,1,97,1,2065,0,0.2096081,6.248318,1.844723,-1
18,F,0,1,25,3,2,100,4,2076,0,0.02126825,12.46239,0.09691329,-1
18,F,0,1,25,4,2,98,2,2109,0,0.8527691,12.40159,3.918417,-1
18,F,0,1,25,5,1,99,3,2665,0,0.2570428,6.21806,2.236334,-1
18,F,0,1,25,6,2,97,1,2653,0,1.004448E-07,12.22117,0,-1
18,F,0,1,25,7,1,100,4,7764,0,0.08225526,6.567278,0.6778198,-1
18,F,0,1,25,8,1,98,2,1520,0,0.2600626,6.571264,2.198201,-1
18,F,0,1,26,1,1,103,3,2142,0,0.4263045,6.218505,3.721523,-1
18,F,0,1,26,2,1,104,4,1431,0,0.4102145,6.567719,3.401049,-1
18,F,0,1,26,3,2,102,2,5664,0,0.01315909,12.4018,0.05934703,-1
18,F,0,1,26,4,2,104,4,7298,0,0.339817,12.46407,1.514395,-1
18,F,0,1,26,5,2,101,1,2176,0,0.1059677,12.22825,0.4873863,-1
18,F,0,1,26,6,1,102,2,7564,0,0.00232715,6.564713,0.01978234,-1
18,F,0,1,26,7,2,103,3,1820,0,0.1449638,12.29184,0.6644077,-1
18,F,0,1,26,8,1,101,1,5787,1,0.3867697,6.23653,3.419248,-1
18,F,0,1,27,1,2,106,2,5142,0,0.5833783,12.39759,2.630092,-1
18,F,0,1,27,2,1,107,3,7775,0,0.4089158,6.227859,3.565406,-1
18,F,0,1,27,3,2,105,1,2320,0,0.7591774,12.23548,3.483408,-1
18,F,0,1,27,4,2,108,4,1353,0,0.2730918,12.46995,1.21724,-1
18,F,0,1,27,5,1,106,2,2387,0,0.1123751,6.562474,0.9329317,-1
18,F,0,1,27,6,2,107,3,1564,0,0.3816327,12.29627,1.722379,-1
18,F,0,1,27,7,1,108,4,8342,0,0.3227136,6.565857,2.654464,-1
18,F,0,1,27,8,1,105,1,5787,0,0.3614202,6.239405,3.187149,-1
18,F,0,1,28,1,1,112,4,3509,0,0.06158043,6.58337,0.5078341,-1
18,F,0,1,28,2,2,111,3,1098,0,0.053149,12.31042,0.2422834,-1
18,F,0,1,28,3,1,110,2,1709,0,0.1319831,6.56005,1.091995,-1
18,F,0,1,28,4,1,111,3,3109,1,0.501938,6.242569,4.354017,-1
18,F,0,1,28,5,2,110,2,9999,2,-1,-1,-1,-1
18,F,0,1,28,6,2,109,1,4753,2,0.9033923,12.20808,4.229479,-1
18,F,0,1,28,7,2,112,4,2242,0,0.3733791,12.46911,1.685512,-1
18,F,0,1,28,8,1,109,1,5809,1,0.1780195,6.227991,1.56698,-1
18,F,0,1,29,1,1,115,3,2088,1,0.4024985,6.238627,3.501964,-1
18,F,0,1,29,2,2,116,4,1165,0,0.1513412,12.47898,0.680413,-1
18,F,0,1,29,3,1,113,1,4421,0,0.4208599,6.24068,3.716257,-1
18,F,0,1,29,4,1,114,2,1898,0,6.053951E-08,6.558607,0,-1
18,F,0,1,29,5,2,113,1,2764,0,0.7131258,12.2337,3.280441,-1
18,F,0,1,29,6,2,114,2,2209,0,0.2719428,12.40268,1.240805,-1
18,F,0,1,29,7,2,115,3,2798,1,0.7889823,12.3042,3.55815,-1
18,F,0,1,29,8,1,116,4,2076,0,3.209412E-08,6.57257,0,-1
18,F,0,1,30,1,2,119,3,1553,0,0.1100201,12.30344,0.4992853,-1
18,F,0,1,30,2,2,117,1,1587,0,0.9036505,12.2246,4.166404,-1
18,F,0,1,30,3,2,120,4,4998,0,0.2038783,12.4682,0.9183452,-1
18,F,0,1,30,4,1,118,2,1965,0,0.05936952,6.3023,0.5120549,-1
18,F,0,1,30,5,1,117,1,4476,0,0.2390299,6.233624,2.108401,-1
18,F,0,1,30,6,1,120,4,3009,0,0.1690537,6.596024,1.386916,-1
18,F,0,1,30,7,1,119,3,1887,1,0.003813732,6.284255,0.02797646,-1
18,F,0,1,30,8,2,118,2,3131,0,0.4317481,12.41043,1.971991,-1
18,F,0,1,31,1,2,121,1,1598,0,2.394331E-07,12.24443,0.01978234,-1
18,F,0,1,31,2,1,123,3,1131,0,0.1728302,6.284179,1.488852,-1
18,F,0,1,31,3,2,124,4,3587,0,0.2603859,12.49905,1.173365,-1
18,F,0,1,31,4,2,123,3,1920,0,0.1077242,12.34572,0.4889896,-1
18,F,0,1,31,5,1,124,4,3309,0,3.057927E-08,6.594548,0,-1
18,F,0,1,31,6,1,122,2,1420,0,0.1818977,6.540692,1.536206,-1
18,F,0,1,31,7,1,121,1,3942,0,0.3914098,6.23449,3.4888,-1
18,F,0,1,31,8,2,122,2,1709,0,0.1287006,12.3976,0.5858405,-1
18,F,0,1,32,1,2,125,1,3365,0,0.6736427,12.2482,3.091362,-1
18,F,0,1,32,2,1,126,2,3153,0,8.975569E-08,6.545769,0,-1
18,F,0,1,32,3,1,125,1,4298,0,3.195107E-08,6.224779,0,-1
18,F,0,1,32,4,1,128,4,3320,0,0.1192209,6.592418,0.9942597,-1
18,F,0,1,32,5,2,126,2,2576,0,0.7402011,12.405,3.390036,-1
18,F,0,1,32,6,2,127,3,1420,0,0.8875597,12.3377,4.069386,-1
18,F,0,1,32,7,2,128,4,2076,0,0.8095336,12.49043,3.650017,-1
18,F,0,1,32,8,1,127,3,5842,0,6.671829E-08,6.263549,0,-1
18,F,0,1,33,1,2,132,4,2365,0,0.7199622,12.48639,3.274946,-1
18,F,0,1,33,2,2,129,1,2776,0,0.1640549,12.22949,0.7571809,-1
18,F,0,1,33,3,1,132,4,1909,0,0.1646556,6.56885,1.356385,-1
18,F,0,1,33,4,1,130,2,1431,0,4.042624E-08,6.534225,0,-1
18,F,0,1,33,5,2,131,3,2320,0,0.4841276,12.31743,2.21187,-1
18,F,0,1,33,6,2,130,2,5309,0,0.8553738,12.38518,3.906705,-1
18,F,0,1,33,7,1,129,1,1876,0,0.02752113,6.218566,0.2430897,-1
18,F,0,1,33,8,1,131,3,1365,0,0.1185446,6.241247,1.042302,-1
18,F,0,1,34,1,1,136,4,1720,0,1.346471E-07,6.571235,0,-1
18,F,0,1,34,2,1,135,3,1165,0,8.630073E-08,6.247103,0,-1
18,F,0,1,34,3,1,134,2,1476,0,0.05816618,6.537467,0.4889896,-1
18,F,0,1,34,4,2,135,3,1531,0,0.2226462,12.31575,1.013557,-1
18,F,0,1,34,5,2,133,1,4976,0,0.6267578,12.22363,2.881267,-1
18,F,0,1,34,6,2,136,4,3942,0,0.3308898,12.47367,1.474721,-1
18,F,0,1,34,7,1,133,1,1809,0,0.2666382,6.207456,2.362232,-1
18,F,0,1,34,8,2,134,2,7087,0,0.6364862,12.38253,2.926567,-1
18,F,0,1,35,1,1,139,3,4509,0,0.5346284,6.261139,4.626138,-1
18,F,0,1,35,2,2,137,1,1142,0,0.5624482,12.22729,2.582856,-1
18,F,0,1,35,3,1,138,2,2387,1,0.446049,6.533602,3.784031,-1
18,F,0,1,35,4,1,140,4,2953,0,1.186245E-07,6.574676,0,-1
18,F,0,1,35,5,2,139,3,3565,1,1.623982E-07,12.31044,0,-1
18,F,0,1,35,6,1,137,1,6687,0,1.259132E-07,6.212788,0,-1
18,F,0,1,35,7,2,140,4,1587,0,0.5095751,12.4669,2.305796,-1
18,F,0,1,35,8,2,138,2,3842,1,0.0005498043,12.38648,0.01978234,-1
18,F,0,1,37,1,4,145,1,2220,1,0.3854547,12.21978,1.773323,-1
18,F,0,1,37,2,3,146,2,3765,0,4.225444E-08,6.535786,0,-1
18,F,0,1,37,3,3,145,1,9453,0,0.073266,6.21309,0.646193,-1
18,F,0,1,37,4,4,147,3,2131,0,0.8076705,12.30748,3.700787,-1
18,F,0,1,37,5,3,148,4,3687,0,0.1004952,6.559132,0.8315719,-1
18,F,0,1,37,6,4,146,2,1665,1,0.3859009,12.35434,1.765803,-1
18,F,0,1,37,7,4,148,4,1587,0,0.1718395,12.45753,0.7735435,-1
18,F,0,1,37,8,3,147,3,5276,0,0.4128456,6.23469,3.592432,-1
18,F,0,1,38,1,4,152,4,3087,0,0.9692163,12.45388,4.386509,-1
18,F,0,1,38,2,4,149,1,2687,0,0.5144905,12.22176,2.36422,-1
18,F,0,1,38,3,3,151,3,4631,0,0.3822136,6.228904,3.330313,-1
18,F,0,1,38,4,3,150,2,8109,0,0.04511305,6.522549,0.3763854,-1
18,F,0,1,38,5,4,151,3,4809,0,0.2878415,12.30644,1.320862,-1
18,F,0,1,38,6,3,152,4,9987,0,0.01876104,6.585447,0.1545051,-1
18,F,0,1,38,7,3,149,1,1898,0,0.2528731,6.186092,2.212401,-1
18,F,0,1,38,8,4,150,2,1176,0,0.2910197,12.33159,1.329279,-1
18,F,0,1,39,1,4,156,4,1165,0,0.5444334,12.46971,2.466089,-1
18,F,0,1,39,2,3,154,2,3909,0,9.213822E-08,6.569081,0,-1
18,F,0,1,39,3,4,155,3,6498,0,0.1852183,12.30919,0.8379012,-1
18,F,0,1,39,4,3,156,4,7687,0,0.3132732,6.581647,2.600153,-1
18,F,0,1,39,5,3,153,1,1376,0,0.2577731,6.197087,2.275205,-1
18,F,0,1,39,6,4,154,2,1087,0,0.3031047,12.37047,1.370308,-1
18,F,0,1,39,7,3,155,3,1642,0,0.4714376,6.243734,4.145293,-1
18,F,0,1,39,8,4,153,1,1087,0,0.7407446,12.14435,3.474122,-1
18,F,0,1,40,1,4,158,2,1620,0,0.7430876,12.36625,3.353804,-1
18,F,0,1,40,2,4,157,1,1320,0,0.05158431,12.12628,0.2382111,-1
18,F,0,1,40,3,3,160,4,9999,0,-1,-1,-1,-1
18,F,0,1,40,4,4,159,3,3331,1,0.1313495,12.26899,0.6026341,-1
18,F,0,1,40,5,3,158,2,3009,0,1.226927E-07,6.558035,0,-1
18,F,0,1,40,6,4,160,4,3120,0,0.5696956,12.43799,2.590197,-1
18,F,0,1,40,7,3,157,1,1776,0,0.4786419,6.181039,4.194466,-1
18,F,0,1,40,8,3,159,3,5265,1,0.07817539,6.212859,0.6829963,-1
18,F,0,1,41,1,1,161,1,2610,0,0.3713104,6.228856,3.280143,-1
18,F,0,1,41,2,1,162,2,1554,0,0.2615816,6.524026,2.160301,-1
18,F,0,1,41,3,1,163,3,1620,0,0.3248803,6.224147,2.833518,-1
18,F,0,1,41,4,1,164,4,2331,0,0.06380814,6.55302,0.5289715,-1
18,F,0,1,41,5,2,161,1,1398,0,0.5681077,12.21524,2.638266,-1
18,F,0,1,41,6,2,163,3,2164,0,0.3276005,12.29697,1.494362,-1
18,F,0,1,41,7,2,162,2,1987,0,0.6244246,12.37889,2.849157,-1
18,F,0,1,41,8,2,164,4,3331,0,0.5006689,12.45274,2.227038,-1
18,F,0,1,42,1,1,167,3,1498,0,0.2605287,6.225342,2.272623,-1
18,F,0,1,42,2,2,168,4,4442,0,1.067032,12.46341,4.746068,-1
18,F,0,1,42,3,2,166,2,3631,1,0.4161174,12.37887,1.880031,-1
18,F,0,1,42,4,2,167,3,2498,0,0.2863343,12.28949,1.296035,-1
18,F,0,1,42,5,1,166,2,1920,0,0.04110955,6.53027,0.3432113,-1
18,F,0,1,42,6,1,165,1,2598,0,0.2033437,6.212936,1.799724,-1
18,F,0,1,42,7,1,168,4,7120,0,6.280106E-08,6.56599,0,-1
18,F,0,1,42,8,2,165,1,1287,0,0.9743617,12.21688,4.496231,-1
18,F,0,1,43,1,2,170,2,4231,0,0.06107279,12.3827,0.2783625,-1
18,F,0,1,43,2,2,169,1,1231,0,0.436953,12.2039,2.01081,-1
18,F,0,1,43,3,1,170,2,1731,0,1.603472E-07,6.531261,0,-1
18,F,0,1,43,4,1,169,1,1642,0,0.234175,6.218507,2.071032,-1
18,F,0,1,43,5,2,172,4,1653,0,0.3422013,12.45477,1.54649,-1
18,F,0,1,43,6,1,171,3,8820,0,0.2706532,6.212861,2.366371,-1
18,F,0,1,43,7,1,172,4,2598,0,0.2466117,6.544763,2.032592,-1
18,F,0,1,43,8,2,171,3,1342,0,0.3994384,12.28285,1.82349,-1
18,F,0,1,44,1,1,173,1,5465,0,0.2369992,6.21391,2.097792,-1
18,F,0,1,44,2,2,174,2,1798,0,1.159346E-07,12.37311,0,-1
18,F,0,1,44,3,1,175,3,1553,0,0.4029945,6.221525,3.506154,-1
18,F,0,1,44,4,2,173,1,1598,0,0.6513236,12.20431,2.997742,-1
18,F,0,1,44,5,2,175,3,2231,0,0.5262482,12.28413,2.383267,-1
18,F,0,1,44,6,1,176,4,3676,0,0.2645919,6.54762,2.206377,-1
18,F,0,1,44,7,1,174,2,2931,0,0.101377,6.531179,0.8434873,-1
18,F,0,1,44,8,2,176,4,1576,0,0.2392031,12.45779,1.080646,-1
18,F,0,1,45,1,1,179,3,1576,0,0.5255049,6.22543,4.571576,-1
18,F,0,1,45,2,2,177,1,2820,0,0.6814161,12.20964,3.180816,-1
18,F,0,1,45,3,1,180,4,4320,1,0.525765,6.624555,4.405712,-1
18,F,0,1,45,4,1,178,2,1076,0,0.406696,6.660264,3.31133,-1
18,F,0,1,45,5,1,177,1,3242,0,0.02119735,6.339204,0.183454,-1
18,F,0,1,45,6,2,180,4,1431,0,0.3478574,12.55719,1.560096,-1
18,F,0,1,45,7,2,179,3,1065,0,0.05377981,12.3905,0.2430897,-1
18,F,0,1,45,8,2,178,2,2009,0,0.4200312,12.51641,1.904645,-1
18,F,0,1,46,1,2,181,1,2376,0,0.4685665,12.32136,2.159667,-1
18,F,0,1,46,2,1,182,2,1809,0,1.178715E-07,6.648293,0,-1
18,F,0,1,46,3,1,181,1,1631,0,0.172545,6.337111,1.497371,-1
18,F,0,1,46,4,1,183,3,2320,1,0.1136193,6.289527,0.9799869,-1
18,F,0,1,46,5,1,184,4,2265,0,0.1986385,6.63706,1.637814,-1
18,F,0,1,46,6,2,182,2,2209,0,0.5890893,12.50877,2.660357,-1
18,F,0,1,46,7,2,183,3,2842,0,0.3867076,12.39637,1.749883,-1
18,F,0,1,46,8,2,184,4,1742,0,0.386009,12.55217,1.733139,-1
18,F,0,1,47,1,1,187,3,1754,0,0.1420613,6.310918,1.22589,-1
18,F,0,1,47,2,2,186,2,4031,0,0.8901265,12.50953,4.021559,-1
18,F,0,1,47,3,2,185,1,2231,0,0.735441,12.3352,3.398515,-1
18,F,0,1,47,4,2,188,4,2720,2,0.865373,12.4831,3.855544,-1
18,F,0,1,47,5,1,185,1,3076,0,0.04906797,6.268238,0.4297835,-1
18,F,0,1,47,6,1,188,4,2120,0,0.2518761,6.580181,2.062035,-1
18,F,0,1,47,7,2,187,3,1809,0,0.6216581,12.33166,2.833725,-1
18,F,0,1,47,8,1,186,2,1397,0,0.07704309,6.573003,0.6449805,-1
18,F,0,1,48,1,1,189,1,2231,1,0.09567104,6.257941,0.8397673,-1
18,F,0,1,48,2,1,191,3,1354,0,0.3060752,6.248661,2.661093,-1
18,F,0,1,48,3,2,192,4,6464,0,1.677207E-07,12.4917,0,-1
18,F,0,1,48,4,2,189,1,1665,0,0.8579402,12.26203,3.961558,-1
18,F,0,1,48,5,2,190,2,4709,0,0.6541401,12.41265,2.958632,-1
18,F,0,1,48,6,2,191,3,4998,1,0.7538931,12.31984,3.394883,-1
18,F,0,1,48,7,1,190,2,1676,0,0.1454841,6.565087,1.205447,-1
18,F,0,1,48,8,1,192,4,1587,0,0.2288614,6.574998,1.900428,-1
18,F,0,1,49,1,1,194,2,1531,0,0.1221258,6.587228,1.006777,-1
18,F,0,1,49,2,2,196,4,9999,1,-1,-1,-1,-1
18,F,0,1,49,3,1,195,3,2342,0,0.5323698,6.3341,4.511322,-1
18,F,0,1,49,4,1,193,1,1420,0,0.06127071,6.343131,0.5308178,-1
18,F,0,1,49,5,2,194,2,3142,2,0.8041825,12.47977,3.640832,-1
18,F,0,1,49,6,1,196,4,2331,0,0.2332865,6.577322,1.930974,-1
18,F,0,1,49,7,2,195,3,2020,0,0.682557,12.37709,3.060047,-1
18,F,0,1,49,8,2,193,1,4965,2,0.2100673,12.30933,0.9642863,-1
18,F,0,1,50,1,2,200,4,9120,0,0.1381015,12.54545,0.6192883,-1
18,F,0,1,50,2,2,198,2,2065,0,0.8428951,12.46801,3.808583,-1
18,F,0,1,50,3,2,197,1,1753,0,0.4986174,12.299,2.276753,-1
18,F,0,1,50,4,2,199,3,2142,0,0.9734292,12.38943,4.36453,-1
18,F,0,1,50,5,1,197,1,2698,0,0.4047153,6.278659,3.547072,-1
18,F,0,1,50,6,1,199,3,2020,0,0.07889557,6.318511,0.6841414,-1
18,F,0,1,50,7,1,200,4,5220,0,1.497003E-07,6.636494,0.01978234,-1
18,F,0,1,50,8,1,198,2,1442,0,0.398978,6.613147,3.383503,-1
18,F,0,1,51,1,2,203,3,2264,0,0.2441422,12.34546,1.109064,-1
18,F,0,1,51,2,2,202,2,1365,0,0.6481117,12.46697,2.955388,-1
18,F,0,1,51,3,1,201,1,3776,0,1.375581E-07,6.309945,0,-1
18,F,0,1,51,4,2,204,4,2431,0,0.3990293,12.51856,1.796567,-1
18,F,0,1,51,5,1,202,2,1842,0,0.3325965,6.623181,2.810976,-1
18,F,0,1,51,6,2,201,1,6353,0,0.2208083,12.2772,1.011817,-1
18,F,0,1,51,7,1,204,4,3531,1,0.2506871,6.60041,2.049755,-1
18,F,0,1,51,8,1,203,3,1597,0,5.236344E-08,6.28507,0,-1
18,F,0,1,52,1,1,206,2,1209,0,0.1167318,6.613081,0.9751828,-1
18,F,0,1,52,2,2,208,4,1409,0,0.595691,12.51854,2.679638,-1
18,F,0,1,52,3,1,207,3,3087,0,0.1480872,6.280872,1.282984,-1
18,F,0,1,52,4,1,208,4,3476,0,0.4341175,6.608856,3.552202,-1
18,F,0,1,52,5,1,205,1,6898,0,0.2570349,6.30364,2.243499,-1
18,F,0,1,52,6,2,206,2,5887,0,0.4914578,12.47655,2.217967,-1
18,F,0,1,52,7,2,207,3,2020,0,0.04353442,12.29764,0.1978235,-1
18,F,0,1,52,8,2,205,1,1542,0,0.9342533,12.30131,4.266822,-1
18,F,0,1,53,1,1,212,4,2999,0,0.1236394,6.599241,1.015678,-1
18,F,0,1,53,2,2,211,3,1687,0,0.5993336,12.35607,2.714691,-1
18,F,0,1,53,3,2,210,2,3209,0,0.294821,12.44981,1.326332,-1
18,F,0,1,53,4,1,209,1,9131,0,0.5013259,6.246461,4.412464,-1
18,F,0,1,53,5,1,210,2,5387,4,0.3382104,6.570347,2.766545,-1
18,F,0,1,53,6,1,211,3,2264,1,0.4669588,6.300198,4.025891,-1
18,F,0,1,53,7,2,209,1,2220,1,0.2114366,12.28469,0.9687405,-1
18,F,0,1,53,8,2,212,4,1842,0,0.1884537,12.53003,0.840466,-1
18,F,0,1,54,1,1,214,2,1431,0,0.1174908,6.583973,0.9691444,-1
18,F,0,1,54,2,1,215,3,1409,0,0.4774574,6.297802,4.120462,-1
18,F,0,1,54,3,1,216,4,3031,0,2.564104E-07,6.609503,0,-1
18,F,0,1,54,4,2,213,1,2109,0,0.8001852,12.27433,3.716679,-1
18,F,0,1,54,5,2,215,3,1776,0,8.66989E-08,12.33758,0,-1
18,F,0,1,54,6,2,214,2,1531,0,0.2161439,12.39894,0.98437,-1
18,F,0,1,54,7,2,216,4,1753,0,0.4839646,12.48205,2.182654,-1
18,F,0,1,54,8,1,213,1,9999,0,-1,-1,-1,-1
18,F,0,1,55,1,1,218,2,1587,1,0.0655732,6.555473,0.5503638,-1
18,F,0,1,55,2,2,219,3,2364,0,0.1654053,12.32144,0.7519946,-1
18,F,0,1,55,3,1,220,4,3264,0,2.004998E-08,6.581921,0,-1
18,F,0,1,55,4,2,217,1,2953,1,0.09029163,12.23819,0.4154301,-1
18,F,0,1,55,5,2,218,2,5698,0,0.3105934,12.39522,1.403327,-1
18,F,0,1,55,6,1,217,1,5098,1,0.2518839,6.265195,2.21187,-1
18,F,0,1,55,7,1,219,3,1798,0,0.3334682,6.201608,2.908787,-1
18,F,0,1,55,8,2,220,4,2597,0,0.4825155,12.43726,2.148674,-1
18,F,0,1,56,1,2,223,3,2631,1,0.5920609,12.27938,2.684965,-1
18,F,0,1,56,2,1,224,4,1787,0,0.05836565,6.52946,0.4857778,-1
18,F,0,1,56,3,1,221,1,1809,1,0.01995751,6.265685,0.1735894,-1
18,F,0,1,56,4,2,224,4,1320,0,0.2403475,12.41951,1.082998,-1
18,F,0,1,56,5,2,222,2,1642,0,0.05372339,12.39715,0.2438933,-1
18,F,0,1,56,6,2,221,1,1220,0,0.2217824,12.2161,1.021633,-1
18,F,0,1,56,7,1,222,2,1209,0,0.03063433,6.566814,0.2556444,-1
18,F,0,1,56,8,1,223,3,1376,0,1.115964E-07,6.177442,0,-1
18,F,0,1,57,1,3,226,2,1142,0,2.525491E-07,6.563243,0,-1
18,F,0,1,57,2,4,225,1,1876,1,0.8015566,12.17452,3.749671,-1
18,F,0,1,57,3,4,228,4,1398,0,0.6668385,12.42953,2.964317,-1
18,F,0,1,57,4,4,227,3,1242,0,0.8531259,12.32219,3.88892,-1
18,F,0,1,57,5,4,226,2,3165,2,0.2478183,12.34754,1.130904,-1
18,F,0,1,57,6,3,227,3,1965,1,0.1254437,6.187366,1.101984,-1
18,F,0,1,57,7,3,228,4,2709,0,0.2427483,6.546105,2.051568,-1
18,F,0,1,57,8,3,225,1,2554,0,0.2000278,6.253442,1.755912,-1
18,F,0,1,58,1,4,232,4,1942,0,1.369721E-07,12.43645,0,-1
18,F,0,1,58,2,3,230,2,3909,0,1.943616E-07,6.572065,0,-1
18,F,0,1,58,3,3,231,3,1831,0,0.2745753,6.185631,2.411109,-1
18,F,0,1,58,4,4,229,1,1253,0,0.5097733,12.17698,2.374545,-1
18,F,0,1,58,5,4,230,2,1242,0,0.8581643,12.40415,3.908208,-1
18,F,0,1,58,6,3,232,4,2875,0,0.03554201,6.542354,0.2980514,-1
18,F,0,1,58,7,4,231,3,1453,0,0.08139708,12.31334,0.3722032,-1
18,F,0,1,58,8,3,229,1,2964,0,0.07706507,6.243039,0.6746368,-1
18,F,0,1,59,1,3,234,2,1230,0,0.03808945,6.567788,0.3177519,-1
18,F,0,1,59,2,3,233,1,1776,0,7.717214E-08,6.245995,0,-1
18,F,0,1,59,3,4,236,4,1976,0,0.1259523,12.45716,0.5671728,-1
18,F,0,1,59,4,4,233,1,1220,0,0.1691897,12.16446,0.7810954,-1
18,F,0,1,59,5,4,234,2,3842,0,1.141447E-07,12.41345,0,-1
18,F,0,1,59,6,3,235,3,2820,0,1.581381E-07,6.203285,0,-1
18,F,0,1,59,7,3,236,4,2720,0,0.5089004,6.52488,4.2693,-1
18,F,0,1,59,8,4,235,3,1553,0,0.1641072,12.25934,0.7545922,-1
18,F,0,1,60,1,3,237,1,1420,0,0.3642337,6.279187,3.193347,-1
18,F,0,1,60,2,4,240,4,1931,0,0.4956443,12.41172,2.224928,-1
18,F,0,1,60,3,4,237,1,1154,0,0.2485291,12.18363,1.149099,-1
18,F,0,1,60,4,3,240,4,1798,0,0.1792076,6.543666,1.493969,-1
18,F,0,1,60,5,4,239,3,2487,0,0.1358709,12.30726,0.6205508,-1
18,F,0,1,60,6,4,238,2,4176,0,0.4883381,12.40496,2.2244,-1
18,F,0,1,60,7,3,239,3,2165,0,0.4040034,6.185368,3.533134,-1
18,F,0,1,60,8,3,238,2,1542,0,1.463711E-07,6.567685,0,-1
18,F,0,1,61,1,2,241,1,9575,1,0.3469568,12.22676,1.606691,-1
18,F,0,1,61,2,2,243,3,1887,0,0.5477623,12.30537,2.503428,-1
18,F,0,1,61,3,1,244,4,3509,0,0.05897909,6.578994,0.4905876,-1
18,F,0,1,61,4,2,242,2,2031,0,0.1585273,12.42642,0.7200928,-1
18,F,0,1,61,5,1,243,3,1798,0,0.4560114,6.231526,3.971136,-1
18,F,0,1,61,6,1,241,1,1576,0,0.170952,6.272273,1.498286,-1
18,F,0,1,61,7,2,244,4,1997,0,0.2553909,12.47241,1.150971,-1
18,F,0,1,61,8,1,242,2,1187,0,0.3813794,6.586584,3.216133,-1
18,F,0,1,62,1,1,245,1,1442,0,1.014682E-07,6.267374,0,-1
18,F,0,1,62,2,1,247,3,1387,0,0.1558407,6.218659,1.377572,-1
18,F,0,1,62,3,2,248,4,1476,0,0.8841113,12.46724,4.010539,-1
18,F,0,1,62,4,1,246,2,3098,0,0.008601598,6.578377,0.07132626,-1
18,F,0,1,62,5,2,247,3,1787,0,0.2867973,12.30101,1.30761,-1
18,F,0,1,62,6,2,246,2,9999,0,-1,-1,-1,-1
18,F,0,1,62,7,2,245,1,1276,0,0.9936371,12.24928,4.55591,-1
18,F,0,1,62,8,1,248,4,2276,0,8.046798E-08,6.567582,0,-1
18,F,0,1,1,1,5,1,1,5330,0,3.364143,6.283679,32.36955,-1
18,F,0,1,1,2,7,2,2,4253,0,4.497756,6.581789,43.10706,-1
18,F,0,1,1,3,6,1,1,1853,0,6.724266,12.25923,33.26459,-1
18,F,0,1,1,4,8,3,3,1965,0,4.527882,12.36893,21.4677,-1
18,F,0,1,1,5,6,2,2,2387,0,2.447783,12.41482,11.2274,-1
18,F,0,1,1,6,6,4,4,2231,0,9.97894,12.50781,52.9221,-1
18,F,0,1,1,7,8,2,2,1787,0,3.666655,12.36344,17.10832,-1
18,F,0,1,1,8,8,4,4,1231,0,1.662858,12.46669,7.423199,-1
18,F,0,1,1,9,6,3,3,531,0,8.48054,12.33487,43.42145,-1
18,F,0,1,1,10,7,1,1,887,0,4.74077,6.281491,49.00095,-1
18,F,0,1,1,11,7,4,4,1409,0,2.088511,6.581931,17.84272,-1
18,F,0,1,1,12,8,1,1,1176,0,1.235523,12.24361,5.757792,-1
18,F,0,1,1,13,5,3,3,3487,0,2.621026,6.255585,23.30743,-1
18,F,0,1,1,14,5,4,4,1565,0,5.842376,6.601827,62.24703,-1
18,F,0,1,1,15,7,3,3,2587,0,1.486781,6.282839,13.09574,-1
18,F,0,1,1,16,5,2,2,2009,0,1.476869,6.571297,12.24357,-1
18,F,0,1,2,1,8,4,4,1553,0,1.634193,12.4681,7.293743,-1
18,F,0,1,2,2,6,3,3,2320,0,0.6514988,12.30464,2.968342,-1
18,F,0,1,2,3,7,2,2,1709,0,1.11925,6.587585,9.10977,-1
18,F,0,1,2,4,5,4,4,1553,0,5.017589,6.583402,49.65477,-1
18,F,0,1,2,5,7,1,1,2142,0,0.8109777,6.262821,7.140975,-1
18,F,0,1,2,6,5,2,2,1520,0,1.636553,6.566879,13.60059,-1
18,F,0,1,2,7,6,4,4,1442,0,2.202394,12.4852,9.815681,-1
18,F,0,1,2,8,6,2,2,1364,0,5.521062,12.42719,26.2018,-1
18,F,0,1,2,9,7,3,3,2831,0,2.08034,6.283586,18.48239,-1
18,F,0,1,2,10,6,1,1,1531,0,5.801322,12.26892,28.21927,-1
18,F,0,1,2,11,7,4,4,976,0,5.217509,6.617229,52.04308,-1
18,F,0,1,2,12,8,2,2,909,0,4.899803,12.38188,23.3111,-1
18,F,0,1,2,13,5,1,1,1165,0,2.172611,6.269844,19.43299,-1
18,F,0,1,2,14,8,3,3,1231,0,2.683346,12.37057,12.52442,-1
18,F,0,1,2,15,8,1,1,854,0,2.755032,12.25104,12.9959,-1
18,F,0,1,2,16,5,3,3,1376,0,4.840978,6.28192,50.40966,-1
