Age, Gender, Awareness Type, Session, Block, Trial, Set, Pattern, Quadrant, Response Time, Num Mistakes, Distance From Target, Camera Distance From Target, Angle Error (Degrees), FC Response
19,F,0,1,1,1,1,3,3,9999,2,-1,-1,-1,-1
19,F,0,1,1,2,1,1,1,2498,0,0.3528212,6.101086,3.173422,-1
19,F,0,1,1,3,2,3,3,3298,0,0.7381765,12.18454,3.431766,-1
19,F,0,1,1,4,1,2,2,2631,0,0.1583615,6.451023,1.344648,-1
19,F,0,1,1,5,2,1,1,3798,0,0.8543052,12.1843,3.920865,-1
19,F,0,1,1,6,1,4,4,3298,0,0.05956032,6.554532,0.4992853,-1
19,F,0,1,1,7,2,2,2,3909,1,0.04887634,12.27092,0.2229358,-1
19,F,0,1,1,8,2,4,4,3675,0,0.6432406,12.29341,2.95658,-1
19,F,0,1,2,1,2,6,2,1364,0,1.009769,12.27419,4.567546,-1
19,F,0,1,2,2,1,8,4,3208,0,0.05613891,6.54623,0.4677188,-1
19,F,0,1,2,3,2,7,3,4431,1,0.5051106,12.17951,2.325574,-1
19,F,0,1,2,4,2,5,1,2909,0,0.9977268,12.17715,4.584839,-1
19,F,0,1,2,5,1,6,2,1265,0,1.102532E-07,6.441765,0,-1
19,F,0,1,2,6,2,8,4,5753,1,0.6718131,12.29762,3.044847,-1
19,F,0,1,2,7,1,7,3,6720,1,0.1420264,6.110278,1.255542,-1
19,F,0,1,2,8,1,5,1,3576,1,6.192229E-08,6.093654,0,-1
19,F,0,1,3,1,1,12,4,2643,0,0.1199302,6.543763,0.9972074,-1
19,F,0,1,3,2,1,9,1,5609,0,0.3508184,6.094881,3.156349,-1
19,F,0,1,3,3,2,12,4,3831,0,0.7079253,12.29947,3.249501,-1
19,F,0,1,3,4,2,11,3,2986,0,0.5001831,12.1782,2.320097,-1
19,F,0,1,3,5,2,10,2,1587,0,0.6774567,12.2682,3.121987,-1
19,F,0,1,3,6,1,11,3,4787,0,0.1532157,6.106713,1.363005,-1
19,F,0,1,3,7,1,10,2,1398,0,0.292127,6.456283,2.45232,-1
19,F,0,1,3,8,2,9,1,4120,0,0.8661829,12.17655,4.01654,-1
19,F,0,1,4,1,1,15,3,3909,1,0.2510077,6.111169,2.211516,-1
19,F,0,1,4,2,1,14,2,2187,0,0.1515733,6.452808,1.269954,-1
19,F,0,1,4,3,2,16,4,4987,1,0.38358,12.29115,1.743945,-1
19,F,0,1,4,4,2,14,2,1976,0,1.022445,12.27355,4.606492,-1
19,F,0,1,4,5,1,16,4,1909,0,0.08822335,6.545844,0.7378095,-1
19,F,0,1,4,6,1,13,1,4031,0,0.1463348,6.095582,1.323378,-1
19,F,0,1,4,7,2,15,3,6653,2,0.5786075,12.16947,2.692755,-1
19,F,0,1,4,8,2,13,1,2075,0,0.6551823,12.17853,3.022002,-1
19,F,0,1,5,1,2,20,4,3098,0,0.5314537,12.33299,2.436707,-1
19,F,0,1,5,2,2,18,2,1342,0,0.5209542,12.33146,2.34151,-1
19,F,0,1,5,3,1,19,3,2353,0,0.3104996,6.123756,2.75065,-1
19,F,0,1,5,4,1,17,1,2053,0,0.3299741,6.130608,2.953401,-1
19,F,0,1,5,5,1,20,4,2798,0,0.2800635,6.568769,2.324142,-1
19,F,0,1,5,6,2,17,1,2176,1,0.09895577,12.21532,0.456712,-1
19,F,0,1,5,7,2,19,3,3687,1,0.5566391,12.19769,2.584599,-1
19,F,0,1,5,8,1,18,2,2331,0,0.1825619,6.481585,1.557837,-1
19,F,0,1,6,1,1,23,3,2087,0,0.1364721,6.107386,1.23067,-1
19,F,0,1,6,2,1,21,1,1798,0,0.228402,6.109616,2.053475,-1
19,F,0,1,6,3,1,22,2,1387,0,0.0300291,6.481305,0.2533378,-1
19,F,0,1,6,4,2,23,3,3109,0,0.1633822,12.20084,0.7499101,-1
19,F,0,1,6,5,1,24,4,4242,0,0.3898016,6.56869,3.261588,-1
19,F,0,1,6,6,2,22,2,1898,0,0.2775947,12.28661,1.262846,-1
19,F,0,1,6,7,2,24,4,4987,0,1.051574,12.31429,4.818613,-1
19,F,0,1,6,8,2,21,1,1631,0,0.6201991,12.2077,2.862865,-1
19,F,0,1,7,1,2,26,2,1731,0,0.8731028,12.29788,4.018051,-1
19,F,0,1,7,2,1,27,3,2387,0,0.4999986,6.113556,4.436766,-1
19,F,0,1,7,3,1,28,4,2753,0,0.04643997,6.55613,0.3891652,-1
19,F,0,1,7,4,1,25,1,2131,0,0.1622269,6.116721,1.458845,-1
19,F,0,1,7,5,2,28,4,5342,1,0.2636144,12.31643,1.198936,-1
19,F,0,1,7,6,2,25,1,1331,0,0.8823103,12.21654,4.059074,-1
19,F,0,1,7,7,2,27,3,3631,0,0.5778227,12.20621,2.65616,-1
19,F,0,1,7,8,1,26,2,2520,0,0.4695801,6.476556,3.894656,-1
19,F,0,1,8,1,1,29,1,2998,0,0.4087861,6.128549,3.658001,-1
19,F,0,1,8,2,1,31,3,4064,0,8.797236E-08,6.123126,0,-1
19,F,0,1,8,3,1,30,2,1454,0,0.03861143,6.476673,0.3238513,-1
19,F,0,1,8,4,2,32,4,6398,1,0.5409776,12.31456,2.472351,-1
19,F,0,1,8,5,2,30,2,1209,0,0.538608,12.30625,2.475753,-1
19,F,0,1,8,6,1,32,4,3320,0,0.1731542,6.559601,1.431902,-1
19,F,0,1,8,7,2,31,3,2487,0,0.6288163,12.19668,2.900566,-1
19,F,0,1,8,8,2,29,1,7509,0,1.716187E-07,12.18713,0,-1
19,F,0,1,9,1,2,35,3,2264,0,0.03581227,12.20541,0.1631294,-1
19,F,0,1,9,2,1,36,4,1520,0,0.32206,6.567437,2.722755,-1
19,F,0,1,9,3,1,33,1,1387,0,0.4940032,6.133298,4.414772,-1
19,F,0,1,9,4,2,34,2,1409,0,0.4206384,12.30731,1.933101,-1
19,F,0,1,9,5,2,33,1,2109,1,1.690482E-07,12.20302,0,-1
19,F,0,1,9,6,2,36,4,3086,0,0.402525,12.31934,1.824133,-1
19,F,0,1,9,7,1,35,3,3298,0,1.060717E-07,6.112233,0,-1
19,F,0,1,9,8,1,34,2,3264,0,0.3175549,6.494603,2.717141,-1
19,F,0,1,10,1,2,37,1,1642,0,0.2640502,12.19575,1.217561,-1
19,F,0,1,10,2,2,38,2,1820,0,0.5945529,12.29646,2.726132,-1
19,F,0,1,10,3,1,37,1,2053,0,0.1457875,6.106286,1.316112,-1
19,F,0,1,10,4,2,40,4,3276,0,0.6627969,12.31904,3.027761,-1
19,F,0,1,10,5,1,39,3,1887,0,0.0655993,6.111904,0.5885065,-1
19,F,0,1,10,6,1,40,4,2398,0,1.324291E-07,6.562108,0,-1
19,F,0,1,10,7,2,39,3,2531,0,0.2474134,12.17882,1.139008,-1
19,F,0,1,10,8,1,38,2,1965,1,0.008233682,6.478947,0.06852804,-1
19,F,0,1,11,1,2,41,1,6865,0,0.7857538,12.22055,3.595374,-1
19,F,0,1,11,2,2,44,4,3064,0,0.9895657,12.31073,4.590603,-1
19,F,0,1,11,3,2,43,3,4042,1,0.2670527,12.1886,1.217883,-1
19,F,0,1,11,4,1,41,1,1542,0,0.1603386,6.106258,1.460185,-1
19,F,0,1,11,5,2,42,2,1409,0,0.491344,12.29778,2.254899,-1
19,F,0,1,11,6,1,43,3,2942,0,0.09827808,6.113009,0.8742447,-1
19,F,0,1,11,7,1,42,2,1798,0,0.3128748,6.489313,2.664548,-1
19,F,0,1,11,8,1,44,4,4753,0,0.3046374,6.5673,2.550215,-1
19,F,0,1,12,1,1,47,3,3364,0,0.2157899,6.104022,1.94491,-1
19,F,0,1,12,2,2,45,1,2176,0,0.6816647,12.1926,3.125497,-1
19,F,0,1,12,3,2,47,3,3820,0,0.7210819,12.18759,3.351527,-1
19,F,0,1,12,4,1,46,2,3798,0,0.3015918,6.482651,2.583159,-1
19,F,0,1,12,5,1,48,4,3031,0,0.04631767,6.557279,0.3856296,-1
19,F,0,1,12,6,2,46,2,1264,0,0.09716916,12.29218,0.4414621,-1
19,F,0,1,12,7,2,48,4,3287,0,0.331066,12.30039,1.514136,-1
19,F,0,1,12,8,1,45,1,1787,0,0.2771333,6.11871,2.486797,-1
19,F,0,1,13,1,2,51,3,3386,0,1.030681,12.19324,4.76892,-1
19,F,0,1,13,2,2,50,2,1453,1,0.5812385,12.30873,2.615839,-1
19,F,0,1,13,3,2,52,4,2853,1,0.416667,12.30837,1.888237,-1
19,F,0,1,13,4,1,50,2,1320,0,0.2876182,6.486469,2.421396,-1
19,F,0,1,13,5,2,49,1,5609,0,0.3721502,12.21317,1.71395,-1
19,F,0,1,13,6,1,51,3,3087,0,0.1243515,6.114497,1.108005,-1
19,F,0,1,13,7,1,52,4,3431,0,1.974623E-07,6.563369,0,-1
19,F,0,1,13,8,1,49,1,2120,0,1.035248E-07,6.112674,0,-1
19,F,0,1,14,1,1,54,2,2053,0,0.08603536,6.487848,0.7273927,-1
19,F,0,1,14,2,1,53,1,1265,0,0.2629158,6.095877,2.413624,-1
19,F,0,1,14,3,1,56,4,2876,0,0.05732017,6.563851,0.4764233,-1
19,F,0,1,14,4,2,55,3,1920,0,0.3928775,12.18292,1.825956,-1
19,F,0,1,14,5,2,53,1,1454,0,0.519004,12.21408,2.387533,-1
19,F,0,1,14,6,2,56,4,2509,0,0.938747,12.31095,4.313841,-1
19,F,0,1,14,7,2,54,2,1320,0,0.1997982,12.31257,0.9147157,-1
19,F,0,1,14,8,1,55,3,2098,0,0.3444907,6.117774,3.054027,-1
19,F,0,1,15,1,1,58,2,1520,0,1.310064E-07,6.493786,0,-1
19,F,0,1,15,2,1,57,1,1365,0,0.2570862,6.121091,2.31046,-1
19,F,0,1,15,3,2,60,4,3320,1,0.8334617,12.32512,3.806578,-1
19,F,0,1,15,4,2,57,1,7864,2,0.1816969,12.20055,0.8379012,-1
19,F,0,1,15,5,2,59,3,3076,1,0.321922,12.18769,1.494231,-1
19,F,0,1,15,6,2,58,2,1220,0,0.7929586,12.30967,3.645132,-1
19,F,0,1,15,7,1,59,3,3709,0,0.1332618,6.10428,1.187127,-1
19,F,0,1,15,8,1,60,4,3709,0,0.2185017,6.568926,1.815638,-1
19,F,0,1,16,1,1,62,2,2365,0,0.4521076,6.48638,3.800245,-1
19,F,0,1,16,2,2,61,1,3709,1,0.2211576,12.19316,1.022973,-1
19,F,0,1,16,3,2,64,4,4887,1,2.027535E-07,12.3181,0,-1
19,F,0,1,16,4,2,63,3,2265,0,0.432937,12.19531,1.989873,-1
19,F,0,1,16,5,1,64,4,3664,0,0.07869285,6.575031,0.6549156,-1
19,F,0,1,16,6,1,61,1,2587,0,0.0383044,6.110663,0.3454843,-1
19,F,0,1,16,7,1,63,3,2220,0,0.1049134,6.110224,0.9456397,-1
19,F,0,1,16,8,2,62,2,1465,0,0.2552544,12.29692,1.156568,-1
19,F,0,1,17,1,3,67,3,2342,1,0.1427543,6.141184,1.255853,-1
19,F,0,1,17,2,3,65,1,1798,0,0.2380766,6.149447,2.145392,-1
19,F,0,1,17,3,4,68,4,3276,0,0.7438216,12.29872,3.421824,-1
19,F,0,1,17,4,4,66,2,1720,0,0.3893395,12.32638,1.754128,-1
19,F,0,1,17,5,3,68,4,2031,0,0.3266136,6.566187,2.755414,-1
19,F,0,1,17,6,4,65,1,2531,0,0.4693541,12.15491,2.153224,-1
19,F,0,1,17,7,3,66,2,3998,0,8.380009E-08,6.521285,0,-1
19,F,0,1,17,8,4,67,3,2842,1,0.7907528,12.2397,3.647012,-1
19,F,0,1,18,1,3,70,2,3742,0,1.181047E-07,6.525784,0,-1
19,F,0,1,18,2,3,72,4,3776,0,2.841269E-07,6.568694,0,-1
19,F,0,1,18,3,4,69,1,1953,0,0.7321053,12.1877,3.358121,-1
19,F,0,1,18,4,4,70,2,1620,1,0.6075765,12.3007,2.796664,-1
19,F,0,1,18,5,3,71,3,2087,0,0.03998699,6.111022,0.3560827,-1
19,F,0,1,18,6,4,72,4,2498,0,0.5244783,12.29085,2.40786,-1
19,F,0,1,18,7,3,69,1,8141,0,0.2953631,6.075001,2.656086,-1
19,F,0,1,18,8,4,71,3,3242,0,0.351828,12.22747,1.606081,-1
19,F,0,1,19,1,4,73,1,2809,0,0.8200302,12.18341,3.763536,-1
19,F,0,1,19,2,3,74,2,2720,0,1.257036E-07,6.483994,0,-1
19,F,0,1,19,3,3,75,3,3498,0,0.03693929,6.152471,0.3286494,-1
19,F,0,1,19,4,3,73,1,1576,0,0.1779847,6.083614,1.595936,-1
19,F,0,1,19,5,4,74,2,1931,1,0.05805183,12.34865,0.2639296,-1
19,F,0,1,19,6,4,76,4,3276,0,0.1639019,12.31812,0.7483428,-1
19,F,0,1,19,7,4,75,3,3609,1,0.5837597,12.20819,2.705807,-1
19,F,0,1,19,8,3,76,4,3653,0,0.3060819,6.54929,2.541527,-1
19,F,0,1,20,1,3,78,2,1454,0,0.1004411,6.495601,0.8367326,-1
19,F,0,1,20,2,4,80,4,4398,1,0.6563314,12.29567,3.021937,-1
19,F,0,1,20,3,4,79,3,2087,0,0.3268716,12.22573,1.507271,-1
19,F,0,1,20,4,3,77,1,1487,0,0.08245867,6.121163,0.7465102,-1
19,F,0,1,20,5,3,79,3,3865,0,0.005854086,6.14006,0.04845664,-1
19,F,0,1,20,6,3,80,4,3920,0,0.008997756,6.569324,0.07401875,-1
19,F,0,1,20,7,4,78,2,1176,0,0.7285709,12.30594,3.280262,-1
19,F,0,1,20,8,4,77,1,1542,0,2.137294E-07,12.19878,0,-1
19,F,0,1,20,1,1,79,3,2787,0,0.01732822,6.110971,0.1545051,-1
19,F,0,1,20,2,1,78,2,1543,0,1.103782E-07,6.501547,0,-1
19,F,0,1,20,3,2,80,4,1475,0,1.011575,12.32888,4.631301,-1
19,F,0,1,20,4,1,77,1,1598,0,0.02946262,6.124833,0.2646699,-1
19,F,0,1,20,5,1,80,4,2876,0,0.3591022,6.577901,2.978021,-1
19,F,0,1,20,6,2,79,3,3542,1,0.263587,12.19743,1.210307,-1
19,F,0,1,20,7,2,77,1,1409,0,0.658686,12.22164,3.061837,-1
19,F,0,1,20,8,2,78,2,1365,0,6.463489E-08,12.31966,0,-1
19,F,0,1,21,1,1,84,4,2287,0,5.560621E-08,6.576142,0,-1
19,F,0,1,21,2,1,83,3,3153,0,1.733441E-07,6.119989,0,-1
19,F,0,1,21,3,1,81,1,1242,0,3.262017E-08,6.131541,0,-1
19,F,0,1,21,4,1,82,2,3242,0,0.107447,6.498585,0.8961296,-1
19,F,0,1,21,5,2,83,3,3431,0,0.371343,12.19699,1.723287,-1
19,F,0,1,21,6,2,84,4,2753,0,0.9129214,12.32784,4.209939,-1
19,F,0,1,21,7,2,82,2,1065,0,0.2053037,12.31891,0.9356545,-1
19,F,0,1,21,8,2,81,1,1275,0,2.262387E-07,12.21372,0.01978234,-1
19,F,0,1,22,1,1,88,4,2965,0,0.05629965,6.572445,0.4714689,-1
19,F,0,1,22,2,1,86,2,1542,0,2.916333E-07,6.493167,0.01978234,-1
19,F,0,1,22,3,2,87,3,3598,1,0.829178,12.20121,3.850411,-1
19,F,0,1,22,4,2,85,1,1453,0,0.1628573,12.22042,0.749388,-1
19,F,0,1,22,5,2,86,2,1209,0,0.2281645,12.30997,1.039858,-1
19,F,0,1,22,6,1,87,3,1675,0,0.38822,6.135142,3.441678,-1
19,F,0,1,22,7,1,85,1,1664,0,0.07159483,6.124197,0.6471007,-1
19,F,0,1,22,8,2,88,4,3575,1,0.03729095,12.33274,0.1701742,-1
19,F,0,1,23,1,1,91,3,2198,0,0.235074,6.108791,2.123569,-1
19,F,0,1,23,2,2,89,1,1764,0,0.7884998,12.21251,3.677647,-1
19,F,0,1,23,3,2,90,2,1242,0,0.1747641,12.32736,0.7979487,-1
19,F,0,1,23,4,2,91,3,2798,0,4.924416E-08,12.2004,0,-1
19,F,0,1,23,5,1,92,4,3198,0,0.4215506,6.568738,3.54199,-1
19,F,0,1,23,6,1,89,1,1609,0,0.3671124,6.11709,3.319007,-1
19,F,0,1,23,7,1,90,2,1498,1,7.826496E-08,6.491714,0,-1
19,F,0,1,23,8,2,92,4,2587,0,0.6050054,12.32417,2.746448,-1
19,F,0,1,24,1,2,95,3,2909,0,0.1665182,12.20442,0.7610474,-1
19,F,0,1,24,2,2,94,2,1276,0,0.6731248,12.31995,3.027115,-1
19,F,0,1,24,3,2,96,4,2631,0,0.8936046,12.32095,4.088974,-1
19,F,0,1,24,4,1,93,1,1276,0,0.1001017,6.128561,0.9059024,-1
19,F,0,1,24,5,1,94,2,1498,0,1.354796E-07,6.504013,0,-1
19,F,0,1,24,6,1,95,3,1742,0,0.2196256,6.116483,1.980112,-1
19,F,0,1,24,7,1,96,4,2120,0,0.08179849,6.572936,0.6864257,-1
19,F,0,1,24,8,2,93,1,1665,0,0.7245857,12.21231,3.317296,-1
19,F,0,1,25,1,2,100,4,3853,2,0.9470503,12.32505,4.347805,-1
19,F,0,1,25,2,1,99,3,3698,0,0.05771016,6.126539,0.5128186,-1
19,F,0,1,25,3,1,97,1,1287,0,0.05585004,6.129607,0.5039662,-1
19,F,0,1,25,4,1,100,4,2665,0,0.181846,6.583826,1.524184,-1
19,F,0,1,25,5,2,99,3,3687,0,0.3240534,12.20556,1.50285,-1
19,F,0,1,25,6,1,98,2,1976,0,0.04274202,6.50704,0.3593647,-1
19,F,0,1,25,7,2,97,1,1176,0,0.1647244,12.22139,0.7620752,-1
19,F,0,1,25,8,2,98,2,4998,0,0.1427084,12.32311,0.64589,-1
19,F,0,1,26,1,1,104,4,2953,0,0.2417316,6.568014,2.02613,-1
19,F,0,1,26,2,1,103,3,1376,0,0.08657846,6.126889,0.7671934,-1
19,F,0,1,26,3,1,101,1,5076,0,0.1064466,6.126825,0.957975,-1
19,F,0,1,26,4,1,102,2,1542,0,0.2082423,6.503647,1.729409,-1
19,F,0,1,26,5,2,101,1,5620,3,0.72487,12.20361,3.373246,-1
19,F,0,1,26,6,2,103,3,3865,1,0.01197868,12.19424,0.05595291,-1
19,F,0,1,26,7,2,102,2,1198,0,0.1763311,12.32044,0.8033255,-1
19,F,0,1,26,8,2,104,4,3142,0,0.6985896,12.31173,3.193347,-1
19,F,0,1,27,1,1,107,3,2476,0,0.3459537,6.107821,3.149768,-1
19,F,0,1,27,2,1,105,1,1154,0,0.1114659,6.129261,1.002492,-1
19,F,0,1,27,3,2,107,3,3820,1,0.9650635,12.19222,4.417122,-1
19,F,0,1,27,4,1,108,4,2498,0,2.296276E-07,6.569558,0,-1
19,F,0,1,27,5,1,106,2,1742,0,1.708982E-07,6.494734,0,-1
19,F,0,1,27,6,2,105,1,6020,0,0.5408551,12.21613,2.478282,-1
19,F,0,1,27,7,2,106,2,1142,0,0.6484866,12.31875,2.984915,-1
19,F,0,1,27,8,2,108,4,1753,0,0.6451563,12.31885,2.969068,-1
19,F,0,1,28,1,2,109,1,1353,0,0.02971426,12.2107,0.1384764,-1
19,F,0,1,28,2,1,111,3,4542,0,1.948108E-07,6.109403,0,-1
19,F,0,1,28,3,2,110,2,1087,0,0.7455556,12.31763,3.438263,-1
19,F,0,1,28,4,1,112,4,3009,0,7.363636E-08,6.581017,0.01978234,-1
19,F,0,1,28,5,1,109,1,1009,0,0.1168177,6.129005,1.057399,-1
19,F,0,1,28,6,2,112,4,3187,1,0.78633,12.3145,3.555067,-1
19,F,0,1,28,7,2,111,3,2198,0,0.4095739,12.204,1.898779,-1
19,F,0,1,28,8,1,110,2,1909,0,1.672635E-07,6.500835,0.01978234,-1
19,F,0,1,29,1,1,115,3,1320,0,0.1410926,6.162392,1.237804,-1
19,F,0,1,29,2,1,116,4,2220,0,0.2149443,6.588274,1.7668,-1
19,F,0,1,29,3,1,113,1,1076,0,0.04232968,6.142688,0.3815487,-1
19,F,0,1,29,4,2,114,2,2353,1,0.9588188,12.31838,4.405845,-1
19,F,0,1,29,5,2,115,3,4475,1,0.5927651,12.20469,2.725701,-1
19,F,0,1,29,6,1,114,2,4053,1,0.1734905,6.492243,1.443336,-1
19,F,0,1,29,7,2,116,4,2153,0,0.5325815,12.31702,2.433089,-1
19,F,0,1,29,8,2,113,1,1720,0,0.2720441,12.21403,1.25367,-1
19,F,0,1,30,1,2,119,3,5919,2,0.1340626,12.19035,0.6189722,-1
19,F,0,1,30,2,1,118,2,4753,0,0.2058654,6.489241,1.756246,-1
19,F,0,1,30,3,1,120,4,3053,0,0.1719926,6.570846,1.452392,-1
19,F,0,1,30,4,2,117,1,2087,0,0.1126252,12.21207,0.5188877,-1
19,F,0,1,30,5,2,120,4,2342,0,0.3983423,12.30757,1.824562,-1
19,F,0,1,30,6,1,117,1,5687,0,0.3347388,6.14078,2.991074,-1
19,F,0,1,30,7,2,118,2,3365,1,0.1725528,12.31033,0.7873334,-1
19,F,0,1,30,8,1,119,3,4498,0,0.1913271,6.112922,1.715776,-1
19,F,0,1,31,1,1,122,2,1742,0,0.298927,6.494576,2.539061,-1
19,F,0,1,31,2,1,121,1,3931,1,0.382609,6.114248,3.434788,-1
19,F,0,1,31,3,2,123,3,3864,0,0.4486874,12.20669,2.060706,-1
19,F,0,1,31,4,2,124,4,2887,1,2.136925E-07,12.31186,0,-1
19,F,0,1,31,5,1,123,3,3042,0,0.4902067,6.099499,4.46515,-1
19,F,0,1,31,6,2,121,1,2098,0,0.7784368,12.20012,3.576591,-1
19,F,0,1,31,7,2,122,2,1365,0,0.1458285,12.29674,0.6664661,-1
19,F,0,1,31,8,1,124,4,3020,0,0.1498171,6.556408,1.255697,-1
19,F,0,1,32,1,1,127,3,1787,0,0.3315749,6.096348,2.985178,-1
19,F,0,1,32,2,1,126,2,1920,0,0.1994941,6.489371,1.697313,-1
19,F,0,1,32,3,1,128,4,3454,0,0.2506782,6.556656,2.076694,-1
19,F,0,1,32,4,1,125,1,1376,0,0.07751708,6.10754,0.7030433,-1
19,F,0,1,32,5,2,126,2,1165,0,5.495471E-08,12.30815,0,-1
19,F,0,1,32,6,2,125,1,5331,0,0.02068715,12.20841,0.09487279,-1
19,F,0,1,32,7,2,127,3,4242,1,0.2803359,12.19244,1.30176,-1
19,F,0,1,32,8,2,128,4,3831,2,0.1239807,12.30151,0.5657911,-1
19,F,0,1,33,1,1,130,2,1342,0,0.295639,6.489877,2.530954,-1
19,F,0,1,33,2,2,131,3,2609,0,0.9189281,12.16752,4.276175,-1
19,F,0,1,33,3,1,132,4,3587,0,0.349562,6.545141,2.88215,-1
19,F,0,1,33,4,2,129,1,1709,0,1.0302,12.19182,4.813732,-1
19,F,0,1,33,5,2,130,2,1642,0,0.856737,12.2964,3.887158,-1
19,F,0,1,33,6,1,131,3,2887,0,0.06968534,6.087889,0.628073,-1
19,F,0,1,33,7,2,132,4,3076,0,0.7382035,12.30728,3.381478,-1
19,F,0,1,33,8,1,129,1,1587,0,0.09275154,6.107844,0.8416294,-1
19,F,0,1,34,1,2,136,4,3731,0,1.313745E-07,12.30511,0,-1
19,F,0,1,34,2,1,135,3,3576,0,1.310492E-07,6.087389,0,-1
19,F,0,1,34,3,1,133,1,1376,0,1.549097E-07,6.105714,0,-1
19,F,0,1,34,4,2,135,3,4909,0,0.4741093,12.19185,2.192496,-1
19,F,0,1,34,5,2,133,1,2842,0,0.4803098,12.20135,2.236509,-1
19,F,0,1,34,6,1,134,2,5264,0,0.2363793,6.506418,1.985541,-1
19,F,0,1,34,7,1,136,4,2520,0,0.3801713,6.565487,3.149208,-1
19,F,0,1,34,8,2,134,2,1442,0,0.2028117,12.30296,0.9200482,-1
19,F,0,1,35,1,1,140,4,3242,0,7.422211E-08,6.551403,0,-1
19,F,0,1,35,2,2,138,2,1619,0,0.5816831,12.30001,2.685549,-1
19,F,0,1,35,3,2,137,1,1820,0,0.3165958,12.20456,1.455353,-1
19,F,0,1,35,4,1,138,2,1331,0,0.184119,6.485626,1.533018,-1
19,F,0,1,35,5,1,139,3,1809,0,0.4946637,6.097428,4.481264,-1
19,F,0,1,35,6,1,137,1,1476,0,2.22507E-07,6.120106,0,-1
19,F,0,1,35,7,2,139,3,2231,0,0.5615817,12.187,2.609846,-1
19,F,0,1,35,8,2,140,4,3487,0,1.009323,12.30761,4.624444,-1
19,F,0,1,37,1,3,145,1,1598,0,0.1528104,6.123236,1.391001,-1
19,F,0,1,37,2,4,147,3,2865,0,0.4143165,12.21027,1.913257,-1
19,F,0,1,37,3,4,145,1,1565,0,0.9494146,12.18642,4.427265,-1
19,F,0,1,37,4,3,148,4,3509,0,0.4280888,6.531432,3.608963,-1
19,F,0,1,37,5,4,146,2,5298,0,0.9888232,12.36818,4.515011,-1
19,F,0,1,37,6,4,148,4,2108,0,0.8178277,12.31346,3.780097,-1
19,F,0,1,37,7,3,146,2,2620,1,0.4098181,6.493304,3.375973,-1
19,F,0,1,37,8,3,147,3,2287,0,0.03389112,6.121809,0.3019647,-1
19,F,0,1,38,1,4,150,2,3753,0,0.5767383,12.35897,2.649445,-1
19,F,0,1,38,2,4,151,3,2609,0,0.773167,12.21623,3.573086,-1
19,F,0,1,38,3,3,150,2,1476,0,0.3925683,6.499569,3.246969,-1
19,F,0,1,38,4,3,149,1,1754,0,0.1480317,6.12303,1.330015,-1
19,F,0,1,38,5,3,152,4,4165,0,0.1519573,6.541239,1.256165,-1
19,F,0,1,38,6,3,151,3,2042,0,6.262997E-08,6.164781,0.01978234,-1
19,F,0,1,38,7,4,152,4,4031,1,0.9873657,12.29799,4.440738,-1
19,F,0,1,38,8,4,149,1,2076,0,0.2967072,12.22413,1.372448,-1
19,F,0,1,39,1,4,155,3,2453,0,0.429759,12.20722,1.993705,-1
19,F,0,1,39,2,3,154,2,1354,0,0.1033013,6.537221,0.8740209,-1
19,F,0,1,39,3,3,156,4,3587,0,1.448194E-07,6.584146,0,-1
19,F,0,1,39,4,4,153,1,1231,0,0.1219463,12.17317,0.5626699,-1
19,F,0,1,39,5,4,156,4,2498,0,0.9596477,12.30236,4.408556,-1
19,F,0,1,39,6,3,153,1,6620,0,0.09792834,6.097274,0.8831524,-1
19,F,0,1,39,7,3,155,3,2653,1,0.1760899,6.149829,1.565856,-1
19,F,0,1,39,8,4,154,2,875,0,0.5574127,12.32622,2.558491,-1
19,F,0,1,40,1,4,157,1,1242,0,0.7651515,12.23086,3.52509,-1
19,F,0,1,40,2,4,160,4,1809,0,1.008515,12.3467,4.599768,-1
19,F,0,1,40,3,4,158,2,1387,0,0.08239012,12.32501,0.373777,-1
19,F,0,1,40,4,3,157,1,1309,0,0.2849159,6.085385,2.548833,-1
19,F,0,1,40,5,3,159,3,2209,0,0.07302304,6.116529,0.652521,-1
19,F,0,1,40,6,3,158,2,1509,0,0.203252,6.537262,1.726578,-1
19,F,0,1,40,7,3,160,4,3587,2,0.420938,6.580949,3.521199,-1
19,F,0,1,40,8,4,159,3,2709,1,0.5595025,12.19815,2.573822,-1
19,F,0,1,41,1,1,164,4,2987,0,0.07802694,6.594728,0.6498165,-1
19,F,0,1,41,2,1,162,2,1798,0,0.1329636,6.509751,1.113466,-1
19,F,0,1,41,3,2,161,1,1909,0,0.6505051,12.35584,2.982357,-1
19,F,0,1,41,4,2,163,3,1531,0,0.2442048,12.34543,1.118376,-1
19,F,0,1,41,5,2,164,4,9387,4,0.782782,12.33986,3.570893,-1
19,F,0,1,41,6,1,163,3,2031,0,0.1303437,6.158251,1.161633,-1
19,F,0,1,41,7,1,161,1,1187,0,0.01449925,6.160634,0.1297215,-1
19,F,0,1,41,8,2,162,2,1109,0,0.8878068,12.32545,4.077271,-1
19,F,0,1,42,1,1,165,1,1953,0,0.03285655,6.151645,0.2934199,-1
19,F,0,1,42,2,2,167,3,1276,0,0.6570347,12.23671,3.038476,-1
19,F,0,1,42,3,2,168,4,1998,0,0.5912551,12.34916,2.710794,-1
19,F,0,1,42,4,2,165,1,1642,0,0.9242133,12.23708,4.268933,-1
19,F,0,1,42,5,2,166,2,1076,0,0.6740521,12.31407,3.059023,-1
19,F,0,1,42,6,1,167,3,2165,0,0.2107048,6.157446,1.878573,-1
19,F,0,1,42,7,1,168,4,3187,0,1.489455E-07,6.606726,0,-1
19,F,0,1,42,8,1,166,2,1331,0,0.4762363,6.497926,4.094908,-1
19,F,0,1,43,1,2,172,4,3020,0,0.4017723,12.35106,1.830238,-1
19,F,0,1,43,2,1,170,2,1686,0,0.01810404,6.495279,0.1506579,-1
19,F,0,1,43,3,2,169,1,1253,0,0.3717155,12.23221,1.714521,-1
19,F,0,1,43,4,1,172,4,3342,0,0.08585944,6.610524,0.711069,-1
19,F,0,1,43,5,2,171,3,6131,2,1.025568,12.24283,4.686632,-1
19,F,0,1,43,6,2,170,2,1265,0,0.06738578,12.33738,0.3058279,-1
19,F,0,1,43,7,1,171,3,1542,0,0.01000622,6.150731,0.08846933,-1
19,F,0,1,43,8,1,169,1,1787,0,7.310233E-08,6.149653,0,-1
19,F,0,1,44,1,2,176,4,4142,0,0.6869929,12.37296,3.127688,-1
19,F,0,1,44,2,2,175,3,2886,0,0.9914231,12.24611,4.588597,-1
19,F,0,1,44,3,1,173,1,1332,0,0.06002633,6.158445,0.5392296,-1
19,F,0,1,44,4,1,174,2,1353,0,0.05158715,6.494898,0.4347627,-1
19,F,0,1,44,5,2,173,1,1520,0,0.4732422,12.236,2.164646,-1
19,F,0,1,44,6,1,175,3,4309,0,0.02714728,6.165749,0.2398483,-1
19,F,0,1,44,7,1,176,4,3320,0,0.449602,6.604353,3.707078,-1
19,F,0,1,44,8,2,174,2,1142,0,0.178801,12.33941,0.8115651,-1
19,F,0,1,45,1,1,179,3,1498,0,0.4672964,6.169629,4.110612,-1
19,F,0,1,45,2,1,180,4,3431,1,1.436764E-07,6.602291,0,-1
19,F,0,1,45,3,2,178,2,1064,0,0.6329285,12.33609,2.867169,-1
19,F,0,1,45,4,2,177,1,1142,0,0.9825374,12.25474,4.533109,-1
19,F,0,1,45,5,2,179,3,2431,1,0.9075267,12.24209,4.200998,-1
19,F,0,1,45,6,1,178,2,1709,0,1.695782E-07,6.49923,0,-1
19,F,0,1,45,7,1,177,1,1520,0,2.797019E-08,6.154493,0,-1
19,F,0,1,45,8,2,180,4,2387,1,0.02282235,12.35549,0.1027921,-1
19,F,0,1,46,1,2,182,2,1231,0,0.132875,12.33899,0.605226,-1
19,F,0,1,46,2,1,181,1,1665,0,0.3393704,6.148049,3.081912,-1
19,F,0,1,46,3,1,184,4,3109,0,0.3237521,6.608616,2.680953,-1
19,F,0,1,46,4,2,181,1,1265,0,0.3078999,12.24679,1.423266,-1
19,F,0,1,46,5,2,184,4,4053,0,0.8369533,12.36071,3.811975,-1
19,F,0,1,46,6,2,183,3,1653,0,0.6027106,12.24239,2.788533,-1
19,F,0,1,46,7,1,182,2,1620,0,1.396341E-07,6.50566,0,-1
19,F,0,1,46,8,1,183,3,1643,0,0.09053738,6.169573,0.7954926,-1
19,F,0,1,47,1,1,186,2,2887,0,0.1345324,6.50592,1.119426,-1
19,F,0,1,47,2,1,188,4,5431,0,0.1285461,6.607326,1.057769,-1
19,F,0,1,47,3,2,185,1,1476,0,0.4341075,12.24938,2.005743,-1
19,F,0,1,47,4,1,187,3,2742,0,0.2209147,6.166026,1.9811,-1
19,F,0,1,47,5,2,188,4,2787,1,0.6157382,12.36707,2.810906,-1
19,F,0,1,47,6,2,186,2,976,0,0.7200887,12.33826,3.295506,-1
19,F,0,1,47,7,1,185,1,1676,0,0.3161903,6.156851,2.819945,-1
19,F,0,1,47,8,2,187,3,2676,1,0.06831603,12.24234,0.3109043,-1
19,F,0,1,48,1,2,189,1,1498,0,0.130065,12.29998,0.5964329,-1
19,F,0,1,48,2,1,190,2,3631,0,0.1524285,6.565431,1.280083,-1
19,F,0,1,48,3,1,192,4,4487,0,7.925202E-08,6.636849,0,-1
19,F,0,1,48,4,2,191,3,4542,0,0.7090657,12.27589,3.237429,-1
19,F,0,1,48,5,2,190,2,1220,0,0.2168503,12.41075,0.9841712,-1
19,F,0,1,48,6,2,192,4,1909,0,0.1998159,12.39658,0.9069818,-1
19,F,0,1,48,7,1,191,3,2287,0,0.4514931,6.201639,3.964176,-1
19,F,0,1,48,8,1,189,1,1209,0,0.08998089,6.231719,0.7957386,-1
19,F,0,1,49,1,1,196,4,2365,0,1.728126E-07,6.643774,0,-1
19,F,0,1,49,2,1,194,2,1242,0,1.615665E-07,6.585489,0.01978234,-1
19,F,0,1,49,3,2,195,3,1687,0,0.5491937,12.2903,2.507256,-1
19,F,0,1,49,4,2,193,1,1698,0,0.4329198,12.32914,1.968614,-1
19,F,0,1,49,5,2,196,4,3298,1,0.3950529,12.41056,1.792095,-1
19,F,0,1,49,6,1,195,3,2409,0,0.2857392,6.220055,2.482543,-1
19,F,0,1,49,7,1,193,1,1687,0,3.125247E-08,6.229174,0.01978234,-1
19,F,0,1,49,8,2,194,2,998,0,0.3185066,12.42374,1.449964,-1
19,F,0,1,50,1,1,200,4,3609,0,0.2586624,6.638416,2.154859,-1
19,F,0,1,50,2,2,199,3,2853,0,0.5416371,12.29965,2.470767,-1
19,F,0,1,50,3,2,198,2,976,0,0.8034446,12.41926,3.675836,-1
19,F,0,1,50,4,2,200,4,1498,0,0.03882176,12.4099,0.1769387,-1
19,F,0,1,50,5,2,197,1,2620,0,0.313307,12.31788,1.442793,-1
19,F,0,1,50,6,1,199,3,1498,0,0.4222858,6.186079,3.793747,-1
19,F,0,1,50,7,1,197,1,1742,0,4.661084E-08,6.241572,0,-1
19,F,0,1,50,8,1,198,2,1631,0,0.06198378,6.586019,0.5120549,-1
19,F,0,1,51,1,1,204,4,3609,0,0.2212656,6.641201,1.85298,-1
19,F,0,1,51,2,2,202,2,908,0,0.1412627,12.42294,0.6391903,-1
19,F,0,1,51,3,2,201,1,1431,0,0.2374454,12.33258,1.085164,-1
19,F,0,1,51,4,1,203,3,2153,1,0.4529912,6.217372,3.939499,-1
19,F,0,1,51,5,1,202,2,2042,0,0.2782715,6.580219,2.360077,-1
19,F,0,1,51,6,2,203,3,3131,0,0.5638669,12.29259,2.558797,-1
19,F,0,1,51,7,2,204,4,3754,1,1.003307,12.41588,4.573589,-1
19,F,0,1,51,8,1,201,1,1198,0,8.54636E-08,6.247711,0,-1
19,F,0,1,52,1,2,207,3,2631,0,0.8569921,12.29568,3.950222,-1
19,F,0,1,52,2,1,205,1,1287,0,9.740499E-08,6.243426,0,-1
19,F,0,1,52,3,2,208,4,2865,0,0.5831503,12.41714,2.658959,-1
19,F,0,1,52,4,1,206,2,1931,0,0.1925456,6.593833,1.581524,-1
19,F,0,1,52,5,2,205,1,1520,0,1.014291E-07,12.33541,0,-1
19,F,0,1,52,6,1,208,4,3687,0,8.897968E-08,6.648736,0,-1
19,F,0,1,52,7,1,207,3,1798,0,0.1772983,6.214182,1.551795,-1
19,F,0,1,52,8,2,206,2,1131,0,0.7714047,12.42969,3.512514,-1
19,F,0,1,53,1,2,212,4,5942,3,0.6664318,12.41998,3.039442,-1
19,F,0,1,53,2,1,210,2,3498,0,0.5083688,6.587681,4.237066,-1
19,F,0,1,53,3,1,212,4,3087,0,0.1710297,6.661896,1.416098,-1
19,F,0,1,53,4,1,211,3,3209,0,0.3775809,6.2207,3.388707,-1
19,F,0,1,53,5,2,209,1,1353,0,2.99663E-07,12.33611,0,-1
19,F,0,1,53,6,2,211,3,2242,1,0.9684515,12.29627,4.373586,-1
19,F,0,1,53,7,1,209,1,1709,0,0.007046653,6.245154,0.06255726,-1
19,F,0,1,53,8,2,210,2,1931,1,0.6474336,12.42182,2.939981,-1
19,F,0,1,54,1,1,216,4,3376,0,4.563498E-08,6.657674,0,-1
19,F,0,1,54,2,2,215,3,3931,1,0.3307635,12.30099,1.494362,-1
19,F,0,1,54,3,2,213,1,2219,0,0.2305773,12.33119,1.049412,-1
19,F,0,1,54,4,2,216,4,4642,1,0.516463,12.42452,2.35027,-1
19,F,0,1,54,5,2,214,2,1931,1,0.8032817,12.42541,3.659071,-1
19,F,0,1,54,6,1,215,3,2053,0,0.03034606,6.221116,0.2654082,-1
19,F,0,1,54,7,1,213,1,1953,1,0.1281268,6.222033,1.143979,-1
19,F,0,1,54,8,1,214,2,1854,0,0.2492489,6.594131,2.063363,-1
19,F,0,1,55,1,1,220,4,1620,0,0.05195202,6.670809,0.4256662,-1
19,F,0,1,55,2,1,219,3,2231,0,1.027703E-07,6.221606,0,-1
19,F,0,1,55,3,2,218,2,5320,3,0.71556,12.41567,3.261228,-1
19,F,0,1,55,4,2,220,4,2253,0,0.906764,12.43216,4.162266,-1
19,F,0,1,55,5,2,217,1,1476,0,0.04988697,12.33267,0.2281412,-1
19,F,0,1,55,6,2,219,3,2276,0,0.786482,12.31767,3.591015,-1
19,F,0,1,55,7,1,218,2,1331,0,0.1454068,6.584313,1.218043,-1
19,F,0,1,55,8,1,217,1,3398,0,0.3587929,6.242059,3.156349,-1
19,F,0,1,56,1,2,223,3,2842,0,0.3593523,12.32519,1.616526,-1
19,F,0,1,56,2,2,224,4,1665,0,0.3124439,12.44192,1.410004,-1
19,F,0,1,56,3,1,222,2,5053,1,0.1112606,6.586485,0.9295698,-1
19,F,0,1,56,4,1,221,1,1265,0,9.733309E-08,6.238231,0,-1
19,F,0,1,56,5,1,223,3,3909,1,0.1647273,6.23502,1.427522,-1
19,F,0,1,56,6,2,221,1,1387,0,0.5540063,12.3401,2.529562,-1
19,F,0,1,56,7,2,222,2,1076,0,0.5749444,12.42374,2.595029,-1
19,F,0,1,56,8,1,224,4,3976,1,2.89115E-08,6.675151,0,-1
19,F,0,1,57,1,3,225,1,1298,0,0.2215388,6.251823,1.950637,-1
19,F,0,1,57,2,3,227,3,2009,0,0.4332674,6.285173,3.742457,-1
19,F,0,1,57,3,3,226,2,1109,0,0.03521898,6.56521,0.2940859,-1
19,F,0,1,57,4,4,225,1,1220,0,0.03455608,12.26481,0.1582588,-1
19,F,0,1,57,5,3,228,4,2375,0,1.362202E-07,6.701042,0,-1
19,F,0,1,57,6,4,226,2,1998,1,0.6750711,12.45451,3.077462,-1
19,F,0,1,57,7,4,228,4,2409,0,0.4303785,12.43568,1.913871,-1
19,F,0,1,57,8,4,227,3,1620,0,0.4700745,12.34984,2.145119,-1
19,F,0,1,58,1,4,230,2,1276,0,0.9148872,12.44188,4.154966,-1
19,F,0,1,58,2,3,231,3,3487,0,0.1695081,6.298707,1.468604,-1
19,F,0,1,58,3,4,232,4,3509,0,0.3607269,12.43695,1.639128,-1
19,F,0,1,58,4,4,231,3,1665,0,0.1730594,12.40684,0.7875819,-1
19,F,0,1,58,5,4,229,1,1198,0,1.007406,12.28215,4.662789,-1
19,F,0,1,58,6,3,230,2,3142,1,1.575949E-07,6.593958,0,-1
19,F,0,1,58,7,3,229,1,1720,0,0.1175011,6.18929,1.03967,-1
19,F,0,1,58,8,3,232,4,1887,0,0.3521951,6.694425,2.868125,-1
19,F,0,1,59,1,3,234,2,1731,0,0.3278661,6.603357,2.727137,-1
19,F,0,1,59,2,4,236,4,3120,0,0.5826906,12.42922,2.648411,-1
19,F,0,1,59,3,4,234,2,998,0,0.3655288,12.44377,1.653274,-1
19,F,0,1,59,4,3,235,3,3209,0,0.01993421,6.312226,0.1724585,-1
19,F,0,1,59,5,4,233,1,1242,0,0.671472,12.29832,3.106019,-1
19,F,0,1,59,6,3,236,4,3709,0,1.877981E-07,6.668205,0,-1
19,F,0,1,59,7,4,235,3,1820,0,0.3531515,12.33453,1.620879,-1
19,F,0,1,59,8,3,233,1,2498,0,2.786794E-08,6.1969,0,-1
19,F,0,1,60,1,4,239,3,2565,0,0.1421755,12.40156,0.6437659,-1
19,F,0,1,60,2,4,238,2,953,0,0.4680662,12.46627,2.119787,-1
19,F,0,1,60,3,3,239,3,2053,0,0.03400737,6.304767,0.2954137,-1
19,F,0,1,60,4,3,240,4,3165,0,0.01164164,6.667499,0.09691329,-1
19,F,0,1,60,5,3,237,1,4409,0,8.947484E-08,6.267911,0,-1
19,F,0,1,60,6,3,238,2,2365,0,0.3172722,6.623663,2.660798,-1
19,F,0,1,60,7,4,240,4,3153,1,0.1304341,12.42927,0.5845029,-1
19,F,0,1,60,8,4,237,1,2276,0,0.2943418,12.31466,1.338522,-1
19,F,0,1,61,1,2,243,3,3142,0,0.8712317,12.3516,3.970889,-1
19,F,0,1,61,2,2,244,4,2509,0,0.1192474,12.46112,0.5348573,-1
19,F,0,1,61,3,1,242,2,1376,0,0.05023265,6.574806,0.4154301,-1
19,F,0,1,61,4,2,241,1,5831,0,0.3052699,12.34487,1.392267,-1
19,F,0,1,61,5,1,244,4,2576,0,0.4015438,6.68494,3.260027,-1
19,F,0,1,61,6,1,241,1,1431,0,1.072068E-07,6.243741,0,-1
19,F,0,1,61,7,2,242,2,1242,0,0.8152708,12.42097,3.71552,-1
19,F,0,1,61,8,1,243,3,3953,0,0.002784255,6.26215,0.01978234,-1
19,F,0,1,62,1,1,248,4,1742,0,0.01179257,6.698812,0.09691329,-1
19,F,0,1,62,2,1,247,3,1498,0,0.04089143,6.255461,0.3560827,-1
19,F,0,1,62,3,2,248,4,2175,0,0.7132146,12.44575,3.206684,-1
19,F,0,1,62,4,1,245,1,987,0,0.06289368,6.254615,0.5567266,-1
19,F,0,1,62,5,2,246,2,1676,0,0.01993468,12.41316,0.08846933,-1
19,F,0,1,62,6,2,247,3,2676,0,0.7899127,12.33217,3.615847,-1
19,F,0,1,62,7,2,245,1,2209,0,0.2321655,12.33652,1.066061,-1
19,F,0,1,62,8,1,246,2,1798,0,0.5550717,6.575747,4.642706,-1
19,F,0,1,1,1,8,1,1,2263,0,6.793734,12.20501,33.82339,-1
19,F,0,1,1,2,5,4,4,1698,0,2.001482E-07,6.60623,0,-1
19,F,0,1,1,3,7,1,1,3931,0,2.226115,6.126607,21.11818,-1
19,F,0,1,1,4,8,2,2,2676,0,10.00101,12.33402,53.89914,-1
19,F,0,1,1,5,8,4,4,1531,0,9.008958,12.40291,46.39318,-1
19,F,0,1,1,6,7,2,2,2465,0,2.303284,6.477927,19.96449,-1
19,F,0,1,1,7,6,4,4,3331,0,7.576914,12.39284,37.55225,-1
19,F,0,1,1,8,6,1,1,5709,0,7.425255,12.23751,37.24442,-1
19,F,0,1,1,9,5,3,3,7764,0,4.715566,6.228105,49.21297,-1
19,F,0,1,1,10,5,2,2,6209,0,0.09732666,6.447993,0.8285072,-1
19,F,0,1,1,11,7,4,4,2409,0,1.614137,6.600204,13.62088,-1
19,F,0,1,1,12,7,3,3,6053,0,3.055593,6.258809,29.22279,-1
19,F,0,1,1,13,6,2,2,2698,0,3.367771,12.30268,15.82399,-1
19,F,0,1,1,14,8,3,3,1909,0,0.6677616,12.23395,3.089968,-1
19,F,0,1,1,15,5,1,1,2142,0,1.014595,6.146865,9.253298,-1
19,F,0,1,1,16,6,3,3,3831,0,4.890215,12.25996,23.37488,-1
19,F,0,1,2,1,7,2,2,3476,0,4.593802,6.477912,45.16568,-1
19,F,0,1,2,2,8,4,4,4464,0,2.786847,12.33279,12.85777,-1
19,F,0,1,2,3,6,3,3,3931,0,4.29414,12.25239,20.35286,-1
19,F,0,1,2,4,8,1,1,2676,0,4.132824,12.15481,19.87781,-1
19,F,0,1,2,5,5,3,3,3864,0,4.981742,6.21478,53.28277,-1
19,F,0,1,2,6,5,4,4,3631,0,0.205072,6.590004,1.720787,-1
19,F,0,1,2,7,7,1,1,3431,0,3.318635,6.105366,32.60802,-1
19,F,0,1,2,8,8,2,2,2420,0,5.119962,12.26618,24.67084,-1
19,F,0,1,2,9,6,4,4,2031,0,3.975529,12.34528,18.72386,-1
19,F,0,1,2,10,5,2,2,2153,0,0.04726641,6.439951,0.4005627,-1
19,F,0,1,2,11,7,4,4,2798,0,1.461198,6.590062,12.32738,-1
19,F,0,1,2,12,7,3,3,2087,0,3.662018,6.213048,36.11498,-1
19,F,0,1,2,13,6,2,2,1698,0,2.365612,12.30384,10.94197,-1
19,F,0,1,2,14,5,1,1,2798,0,2.89,6.14584,28.04966,-1
19,F,0,1,2,15,8,3,3,2142,0,1.22153,12.21893,5.663097,-1
19,F,0,1,2,16,6,1,1,2353,0,1.431348,12.19052,6.669298,-1
