Age, Gender, Awareness Type, Session, Block, Trial, Set, Pattern, Quadrant, Response Time, Num Mistakes, Distance From Target, Camera Distance From Target, Angle Error (Degrees), FC Response
19,F,0,1,1,1,1,4,4,9999,1,-1,-1,-1,-1
19,F,0,1,1,2,1,3,3,2709,0,0.4336166,6.274459,3.817621,-1
19,F,0,1,1,3,1,2,2,1231,0,0.4139813,6.518472,3.398688,-1
19,F,0,1,1,4,2,4,4,4320,0,0.6687928,12.34092,3.001918,-1
19,F,0,1,1,5,2,2,2,1498,0,0.5025634,12.32751,2.288756,-1
19,F,0,1,1,6,2,1,1,1298,0,0.5629257,12.25611,2.573822,-1
19,F,0,1,1,7,2,3,3,2742,0,0.2299801,12.16101,1.056473,-1
19,F,0,1,1,8,1,1,1,9999,0,-1,-1,-1,-1
19,F,0,1,2,1,2,6,2,1309,0,0.2928598,12.32584,1.340567,-1
19,F,0,1,2,2,1,8,4,9999,0,-1,-1,-1,-1
19,F,0,1,2,3,1,6,2,1964,0,0.5499874,6.540473,4.541484,-1
19,F,0,1,2,4,2,7,3,2787,0,0.7974849,12.20117,3.641477,-1
19,F,0,1,2,5,2,5,1,1464,0,0.3704442,12.29043,1.687484,-1
19,F,0,1,2,6,1,7,3,4476,1,0.2505835,6.284019,2.192139,-1
19,F,0,1,2,7,1,5,1,9999,0,-1,-1,-1,-1
19,F,0,1,2,8,2,8,4,2464,0,0.267065,12.33979,1.215792,-1
19,F,0,1,3,1,1,11,3,4609,1,0.3453308,6.275074,3.031897,-1
19,F,0,1,3,2,1,10,2,1498,0,0.4494452,6.525216,3.736278,-1
19,F,0,1,3,3,2,11,3,2909,0,2.735084E-07,12.1633,0,-1
19,F,0,1,3,4,1,12,4,9999,0,-1,-1,-1,-1
19,F,0,1,3,5,2,9,1,2509,0,0.5731766,12.25672,2.647154,-1
19,F,0,1,3,6,2,12,4,3109,1,0.2024694,12.33734,0.9245038,-1
19,F,0,1,3,7,2,10,2,3853,1,1.043693,12.30637,4.749204,-1
19,F,0,1,3,8,1,9,1,9999,0,-1,-1,-1,-1
19,F,0,1,4,1,1,15,3,3620,0,0.135661,6.283668,1.195831,-1
19,F,0,1,4,2,1,16,4,9999,0,-1,-1,-1,-1
19,F,0,1,4,3,2,14,2,2409,1,0.8320836,12.32273,3.779837,-1
19,F,0,1,4,4,1,13,1,9999,0,-1,-1,-1,-1
19,F,0,1,4,5,1,14,2,1653,0,0.5189263,6.54531,4.264297,-1
19,F,0,1,4,6,2,16,4,2787,0,0.5866743,12.36136,2.642936,-1
19,F,0,1,4,7,2,15,3,2698,0,0.8619961,12.17191,3.945758,-1
19,F,0,1,4,8,2,13,1,1309,0,0.1789144,12.2823,0.8204377,-1
19,F,0,1,5,1,1,18,2,3231,1,0.1408992,6.533949,1.168351,-1
19,F,0,1,5,2,1,20,4,9999,0,-1,-1,-1,-1
19,F,0,1,5,3,2,17,1,1353,0,0.5669358,12.2725,2.615016,-1
19,F,0,1,5,4,1,19,3,3242,0,0.08471745,6.294229,0.7388696,-1
19,F,0,1,5,5,2,20,4,2309,0,0.7106899,12.34992,3.203446,-1
19,F,0,1,5,6,2,18,2,1531,0,1.046976,12.349,4.74809,-1
19,F,0,1,5,7,2,19,3,4709,2,0.8065633,12.08622,3.716257,-1
19,F,0,1,5,8,1,17,1,9999,0,-1,-1,-1,-1
19,F,0,1,6,1,2,24,4,2476,0,0.7771789,12.35702,3.501181,-1
19,F,0,1,6,2,2,23,3,3187,1,0.5050966,12.17438,2.308171,-1
19,F,0,1,6,3,2,22,2,1953,0,0.6031481,12.36415,2.729935,-1
19,F,0,1,6,4,1,24,4,9999,0,-1,-1,-1,-1
19,F,0,1,6,5,1,21,1,9999,0,-1,-1,-1,-1
19,F,0,1,6,6,1,22,2,2509,0,0.2218883,6.545994,1.829383,-1
19,F,0,1,6,7,1,23,3,3175,0,0.4620227,6.304867,4.062402,-1
19,F,0,1,6,8,2,21,1,1342,0,0.1038191,12.29636,0.4747775,-1
19,F,0,1,7,1,2,26,2,1831,1,0.8206879,12.36359,3.759423,-1
19,F,0,1,7,2,2,25,1,1731,0,0.8120628,12.29535,3.739997,-1
19,F,0,1,7,3,1,28,4,9999,0,-1,-1,-1,-1
19,F,0,1,7,4,1,27,3,6664,3,0.1176068,6.224665,1.046237,-1
19,F,0,1,7,5,1,25,1,9999,0,-1,-1,-1,-1
19,F,0,1,7,6,1,26,2,2931,1,0.1216741,6.55883,1.021058,-1
19,F,0,1,7,7,2,28,4,5642,1,0.8271774,12.35461,3.713833,-1
19,F,0,1,7,8,2,27,3,2797,0,0.900776,12.21737,4.104605,-1
19,F,0,1,8,1,2,30,2,1220,0,0.1718533,12.37915,0.7785863,-1
19,F,0,1,8,2,1,32,4,9999,0,-1,-1,-1,-1
19,F,0,1,8,3,2,29,1,1131,0,0.3417631,12.32032,1.563855,-1
19,F,0,1,8,4,1,31,3,6364,3,0.00654257,6.265509,0.05934703,-1
19,F,0,1,8,5,2,32,4,2431,0,0.7000544,12.37518,3.134004,-1
19,F,0,1,8,6,2,31,3,2464,1,0.864136,12.18096,4.010685,-1
19,F,0,1,8,7,1,30,2,2420,1,0.2898545,6.543048,2.400451,-1
19,F,0,1,8,8,1,29,1,9999,0,-1,-1,-1,-1
19,F,0,1,9,1,2,34,2,3586,0,0.7067806,12.33754,3.204057,-1
19,F,0,1,9,2,2,36,4,2653,1,0.09419324,12.3446,0.4256662,-1
19,F,0,1,9,3,1,35,3,2920,0,0.3623788,6.305985,3.182231,-1
19,F,0,1,9,4,1,36,4,9999,0,-1,-1,-1,-1
19,F,0,1,9,5,2,33,1,1353,0,0.408425,12.27762,1.88284,-1
19,F,0,1,9,6,2,35,3,2476,0,0.2898541,12.18553,1.327512,-1
19,F,0,1,9,7,1,33,1,9999,0,-1,-1,-1,-1
19,F,0,1,9,8,1,34,2,1742,0,2.279773E-07,6.539888,0,-1
19,F,0,1,10,1,2,37,1,1976,0,0.5815498,12.27737,2.681537,-1
19,F,0,1,10,2,2,40,4,1719,0,0.2552063,12.36806,1.144834,-1
19,F,0,1,10,3,2,38,2,2009,0,0.5675787,12.34702,2.571768,-1
19,F,0,1,10,4,1,37,1,9999,0,-1,-1,-1,-1
19,F,0,1,10,5,1,38,2,1187,0,0.454366,6.533572,3.7171,-1
19,F,0,1,10,6,2,39,3,2586,0,0.4236213,12.18352,1.953244,-1
19,F,0,1,10,7,1,40,4,9999,0,-1,-1,-1,-1
19,F,0,1,10,8,1,39,3,6020,3,0.1246187,6.218719,1.109417,-1
19,F,0,1,11,1,1,42,2,1554,0,0.4690143,6.535415,3.893902,-1
19,F,0,1,11,2,1,41,1,9999,0,-1,-1,-1,-1
19,F,0,1,11,3,2,42,2,1176,0,0.8471105,12.35745,3.834358,-1
19,F,0,1,11,4,2,41,1,1309,0,0.7710822,12.28042,3.553194,-1
19,F,0,1,11,5,2,43,3,1753,0,0.5740716,12.19489,2.62152,-1
19,F,0,1,11,6,2,44,4,1753,0,1.042263,12.37705,4.668121,-1
19,F,0,1,11,7,1,43,3,3098,0,0.006154836,6.323719,0.05233916,-1
19,F,0,1,11,8,1,44,4,9999,0,-1,-1,-1,-1
19,F,0,1,12,1,2,45,1,1753,0,0.07330421,12.28259,0.3363003,-1
19,F,0,1,12,2,2,48,4,2387,1,0.7437818,12.34888,3.35468,-1
19,F,0,1,12,3,2,47,3,1964,0,0.5331344,12.24387,2.436546,-1
19,F,0,1,12,4,1,46,2,2131,1,0.1461531,6.592264,1.224293,-1
19,F,0,1,12,5,1,45,1,9999,0,-1,-1,-1,-1
19,F,0,1,12,6,1,47,3,4887,0,0.2889767,6.333961,2.528013,-1
19,F,0,1,12,7,1,48,4,9999,0,-1,-1,-1,-1
19,F,0,1,12,8,2,46,2,1154,0,0.6154349,12.39482,2.811533,-1
19,F,0,1,13,1,1,52,4,9999,0,-1,-1,-1,-1
19,F,0,1,13,2,1,49,1,9999,0,-1,-1,-1,-1
19,F,0,1,13,3,1,50,2,1165,0,0.005476685,6.577329,0.04845664,-1
19,F,0,1,13,4,2,49,1,1265,0,0.04843522,12.33738,0.220287,-1
19,F,0,1,13,5,1,51,3,5009,3,0.3961801,6.164528,3.55947,-1
19,F,0,1,13,6,2,52,4,2742,1,0.5876021,12.34625,2.636039,-1
19,F,0,1,13,7,2,51,3,1931,0,0.9049263,12.26896,4.102696,-1
19,F,0,1,13,8,2,50,2,2342,1,1.019396,12.4242,4.649368,-1
19,F,0,1,14,1,2,56,4,1098,0,0.4221041,12.42966,1.889066,-1
19,F,0,1,14,2,2,53,1,1331,0,0.2065941,12.3427,0.9421154,-1
19,F,0,1,14,3,1,56,4,9999,0,-1,-1,-1,-1
19,F,0,1,14,4,2,55,3,1642,0,0.4595875,12.22117,2.093215,-1
19,F,0,1,14,5,2,54,2,1687,0,0.4059791,12.38363,1.835577,-1
19,F,0,1,14,6,1,53,1,9999,0,-1,-1,-1,-1
19,F,0,1,14,7,1,54,2,3420,1,0.09051941,6.578071,0.7501709,-1
19,F,0,1,14,8,1,55,3,2520,0,0.1958848,6.340926,1.711436,-1
19,F,0,1,15,1,2,58,2,2053,1,0.8732582,12.392,3.97503,-1
19,F,0,1,15,2,1,59,3,2409,0,0.537634,6.333684,4.707401,-1
19,F,0,1,15,3,1,57,1,9999,0,-1,-1,-1,-1
19,F,0,1,15,4,1,58,2,1220,0,0.1614006,6.574847,1.329427,-1
19,F,0,1,15,5,2,60,4,1954,0,0.2724567,12.40286,1.222854,-1
19,F,0,1,15,6,2,59,3,1542,0,0.2179235,12.22385,0.9962258,-1
19,F,0,1,15,7,2,57,1,1454,0,0.6143848,12.32301,2.788393,-1
19,F,0,1,15,8,1,60,4,9999,0,-1,-1,-1,-1
19,F,0,1,16,1,1,63,3,3920,2,0.1721465,6.276817,1.517493,-1
19,F,0,1,16,2,2,61,1,1276,0,0.2934598,12.31711,1.347991,-1
19,F,0,1,16,3,2,63,3,3287,1,0.3909762,12.17446,1.818438,-1
19,F,0,1,16,4,1,64,4,9999,0,-1,-1,-1,-1
19,F,0,1,16,5,1,62,2,1342,0,9.323264E-08,6.5709,0,-1
19,F,0,1,16,6,2,64,4,1853,0,0.6037207,12.40075,2.694499,-1
19,F,0,1,16,7,1,61,1,9999,0,-1,-1,-1,-1
19,F,0,1,16,8,2,62,2,1253,0,0.6636691,12.38633,2.998787,-1
19,F,0,1,17,1,4,67,3,2876,0,0.3945054,12.20131,1.801028,-1
19,F,0,1,17,2,4,66,2,1176,0,0.1453658,12.35302,0.6590852,-1
19,F,0,1,17,3,3,65,1,9999,0,-1,-1,-1,-1
19,F,0,1,17,4,4,68,4,1742,0,0.8095978,12.43812,3.646743,-1
19,F,0,1,17,5,3,67,3,3364,1,0.08180866,6.269759,0.7160051,-1
19,F,0,1,17,6,3,66,2,1663,0,0.2922369,6.558907,2.397187,-1
19,F,0,1,17,7,4,65,1,1299,0,0.06233149,12.29469,0.2839303,-1
19,F,0,1,17,8,3,68,4,3577,0,0.3474359,6.568433,2.892117,-1
19,F,0,1,18,1,4,71,3,9999,1,-1,-1,-1,-1
19,F,0,1,18,2,4,72,4,2353,0,0.401862,12.37521,1.796241,-1
19,F,0,1,18,3,3,69,1,3131,0,0.09806123,6.172243,0.8787099,-1
19,F,0,1,18,4,4,70,2,2342,0,0.6238309,12.36586,2.856636,-1
19,F,0,1,18,5,3,71,3,3009,1,0.373461,6.24827,3.291226,-1
19,F,0,1,18,6,4,69,1,965,0,0.4152198,12.30766,1.896614,-1
19,F,0,1,18,7,3,72,4,2642,0,0.5100216,6.559263,4.253398,-1
19,F,0,1,18,8,3,70,2,1876,1,0.1348572,6.558661,1.131769,-1
19,F,0,1,19,1,3,76,4,9053,1,0.3722462,6.598861,3.066054,-1
19,F,0,1,19,2,3,73,1,3298,2,0.3485042,6.073127,3.13544,-1
19,F,0,1,19,3,3,74,2,1365,0,0.004675772,6.548173,0.04423466,-1
19,F,0,1,19,4,4,73,1,1320,0,0.5501515,12.26149,2.548065,-1
19,F,0,1,19,5,4,76,4,1554,0,0.7860727,12.4229,3.535129,-1
19,F,0,1,19,6,3,75,3,3564,0,0.4083732,6.283706,3.58452,-1
19,F,0,1,19,7,4,74,2,931,0,0.6117029,12.36537,2.795894,-1
19,F,0,1,19,8,4,75,3,1865,0,0.6884436,12.15185,3.155357,-1
19,F,0,1,20,1,4,80,4,2631,1,0.9722179,12.38819,4.383784,-1
19,F,0,1,20,2,4,78,2,3265,2,0.6267481,12.24328,2.871672,-1
19,F,0,1,20,3,4,79,3,1953,0,0.6547755,12.18132,3.045361,-1
19,F,0,1,20,4,3,78,2,1342,0,0.1792607,6.60429,1.484772,-1
19,F,0,1,20,5,3,79,3,3298,0,0.3343771,6.31751,2.925497,-1
19,F,0,1,20,6,4,77,1,1242,0,1.039699,12.29955,4.789129,-1
19,F,0,1,20,7,3,80,4,6053,0,8.497247E-08,6.596399,0,-1
19,F,0,1,20,8,3,77,1,4431,1,6.561825E-08,6.124156,0,-1
19,F,0,1,20,1,2,80,4,1165,0,0.3987652,12.38512,1.784873,-1
19,F,0,1,20,2,1,77,1,9999,0,-1,-1,-1,-1
19,F,0,1,20,3,2,79,3,1687,0,0.8782113,12.21226,4.008976,-1
19,F,0,1,20,4,1,80,4,9999,0,-1,-1,-1,-1
19,F,0,1,20,5,1,78,2,4531,0,0.3506257,6.565847,2.868125,-1
19,F,0,1,20,6,2,77,1,1076,0,0.5847414,12.31118,2.656234,-1
19,F,0,1,20,7,1,79,3,3431,1,0.4634425,6.312709,4.069916,-1
19,F,0,1,20,8,2,78,2,1253,0,0.6638247,12.3732,3.03796,-1
19,F,0,1,21,1,2,84,4,2376,1,0.5905846,12.37959,2.657707,-1
19,F,0,1,21,2,1,82,2,2220,1,0.1049496,6.553564,0.8804895,-1
19,F,0,1,21,3,2,83,3,2320,1,0.3689029,12.18416,1.696275,-1
19,F,0,1,21,4,1,84,4,9999,0,-1,-1,-1,-1
19,F,0,1,21,5,1,81,1,9999,0,-1,-1,-1,-1
19,F,0,1,21,6,2,82,2,1142,0,0.1589048,12.38264,0.7195491,-1
19,F,0,1,21,7,2,81,1,987,0,0.9514729,12.315,4.323365,-1
19,F,0,1,21,8,1,83,3,2831,1,0.4243414,6.313976,3.725362,-1
19,F,0,1,22,1,1,85,1,9999,0,-1,-1,-1,-1
19,F,0,1,22,2,2,86,2,1198,0,0.2012979,12.37441,0.9121451,-1
19,F,0,1,22,3,2,88,4,2076,0,0.7248069,12.40195,3.238094,-1
19,F,0,1,22,4,2,87,3,2487,1,0.9122351,12.20843,4.201697,-1
19,F,0,1,22,5,2,85,1,965,0,0.4843691,12.31996,2.198468,-1
19,F,0,1,22,6,1,86,2,1509,0,0.4172611,6.561671,3.433363,-1
19,F,0,1,22,7,1,87,3,3120,0,0.3351673,6.335304,2.931913,-1
19,F,0,1,22,8,1,88,4,9999,0,-1,-1,-1,-1
19,F,0,1,23,1,2,91,3,1531,0,0.6493546,12.22933,2.959095,-1
19,F,0,1,23,2,2,89,1,1687,1,0.885353,12.31872,4.070734,-1
19,F,0,1,23,3,1,90,2,1531,0,0.2688426,6.569917,2.208771,-1
19,F,0,1,23,4,1,92,4,9999,0,-1,-1,-1,-1
19,F,0,1,23,5,1,89,1,9999,0,-1,-1,-1,-1
19,F,0,1,23,6,2,90,2,1064,0,0.1740702,12.38951,0.7860898,-1
19,F,0,1,23,7,1,91,3,2487,0,0.07242978,6.348935,0.6314908,-1
19,F,0,1,23,8,2,92,4,1587,0,0.5814601,12.41212,2.595029,-1
19,F,0,1,24,1,1,94,2,2242,0,0.4341581,6.556262,3.575441,-1
19,F,0,1,24,2,2,96,4,2098,1,0.287705,12.39186,1.305813,-1
19,F,0,1,24,3,2,94,2,1353,0,0.5598615,12.37756,2.530645,-1
19,F,0,1,24,4,2,95,3,7387,0,0.6661192,12.22148,3.037509,-1
19,F,0,1,24,5,1,96,4,9999,0,-1,-1,-1,-1
19,F,0,1,24,6,2,93,1,1076,0,0.08949181,12.30485,0.409739,-1
19,F,0,1,24,7,1,95,3,3053,1,0.4243283,6.327675,3.717364,-1
19,F,0,1,24,8,1,93,1,9999,0,-1,-1,-1,-1
19,F,0,1,25,1,2,99,3,1653,0,0.7267134,12.19675,3.318004,-1
19,F,0,1,25,2,2,98,2,1164,0,0.7784927,12.35159,3.527921,-1
19,F,0,1,25,3,2,97,1,1198,0,0.09645214,12.28339,0.4414621,-1
19,F,0,1,25,4,2,100,4,1298,0,0.6561393,12.38421,2.935183,-1
19,F,0,1,25,5,1,99,3,2831,1,0.1454739,6.323788,1.263156,-1
19,F,0,1,25,6,1,100,4,9999,0,-1,-1,-1,-1
19,F,0,1,25,7,1,98,2,1142,0,0.2465038,6.558452,2.03105,-1
19,F,0,1,25,8,1,97,1,9999,0,-1,-1,-1,-1
19,F,0,1,26,1,1,103,3,2809,0,0.3198129,6.335196,2.797574,-1
19,F,0,1,26,2,2,102,2,2331,2,0.4408682,12.36829,2.012562,-1
19,F,0,1,26,3,2,101,1,987,0,0.2328165,12.30412,1.065327,-1
19,F,0,1,26,4,1,104,4,9999,0,-1,-1,-1,-1
19,F,0,1,26,5,2,103,3,1653,0,0.8444069,12.22547,3.850411,-1
19,F,0,1,26,6,1,102,2,2287,1,0.02807593,6.570109,0.2332305,-1
19,F,0,1,26,7,1,101,1,9999,0,-1,-1,-1,-1
19,F,0,1,26,8,2,104,4,1687,0,0.9265986,12.41826,4.135738,-1
19,F,0,1,27,1,1,105,1,9999,0,-1,-1,-1,-1
19,F,0,1,27,2,1,108,4,9999,0,-1,-1,-1,-1
19,F,0,1,27,3,1,107,3,2975,0,0.3610109,6.345144,3.150762,-1
19,F,0,1,27,4,2,106,2,1376,0,0.03731194,12.39302,0.1690205,-1
19,F,0,1,27,5,2,105,1,1120,0,0.446114,12.32036,2.025164,-1
19,F,0,1,27,6,1,106,2,2987,1,0.1647537,6.573052,1.373589,-1
19,F,0,1,27,7,2,108,4,2242,0,0.9244531,12.40214,4.131427,-1
19,F,0,1,27,8,2,107,3,1831,1,0.1238972,12.21904,0.5678623,-1
19,F,0,1,28,1,2,112,4,1176,0,0.8035483,12.41059,3.612596,-1
19,F,0,1,28,2,1,111,3,2042,0,0.213223,6.337608,1.863721,-1
19,F,0,1,28,3,2,110,2,4620,0,0.8940078,12.39165,4.082551,-1
19,F,0,1,28,4,1,109,1,9999,0,-1,-1,-1,-1
19,F,0,1,28,5,2,111,3,1120,0,0.4895796,12.21811,2.250902,-1
19,F,0,1,28,6,1,112,4,9999,0,-1,-1,-1,-1
19,F,0,1,28,7,1,110,2,2009,0,0.4145991,6.559403,3.4126,-1
19,F,0,1,28,8,2,109,1,2131,1,0.6168844,12.29636,2.840349,-1
19,F,0,1,29,1,1,115,3,2976,1,0.2150695,6.324139,1.884191,-1
19,F,0,1,29,2,1,114,2,1909,0,0.08104318,6.564056,0.6752167,-1
19,F,0,1,29,3,2,113,1,1098,0,0.7144603,12.31296,3.255279,-1
19,F,0,1,29,4,2,116,4,1353,0,0.6862263,12.40406,3.065097,-1
19,F,0,1,29,5,2,114,2,1598,0,0.5328102,12.3762,2.415732,-1
19,F,0,1,29,6,1,113,1,9999,0,-1,-1,-1,-1
19,F,0,1,29,7,2,115,3,2387,1,0.841901,12.21007,3.902241,-1
19,F,0,1,29,8,1,116,4,9999,0,-1,-1,-1,-1
19,F,0,1,30,1,1,119,3,2776,0,0.5183604,6.355292,4.519521,-1
19,F,0,1,30,2,2,117,1,1098,0,0.5002434,12.32868,2.269002,-1
19,F,0,1,30,3,2,120,4,1498,0,0.7534742,12.41507,3.362782,-1
19,F,0,1,30,4,2,118,2,3209,0,0.6079064,12.39454,2.777278,-1
19,F,0,1,30,5,2,119,3,2164,0,0.8305367,12.23653,3.784704,-1
19,F,0,1,30,6,1,120,4,9999,0,-1,-1,-1,-1
19,F,0,1,30,7,1,117,1,9999,0,-1,-1,-1,-1
19,F,0,1,30,8,1,118,2,1342,0,0.5266007,6.569729,4.329341,-1
19,F,0,1,31,1,2,123,3,2298,0,0.7946006,12.23767,3.619365,-1
19,F,0,1,31,2,2,121,1,4431,2,0.8488067,12.30089,3.908258,-1
19,F,0,1,31,3,1,123,3,2964,1,0.3201044,6.331607,2.801629,-1
19,F,0,1,31,4,1,122,2,1275,0,0.2504975,6.570692,2.055285,-1
19,F,0,1,31,5,1,124,4,9999,0,-1,-1,-1,-1
19,F,0,1,31,6,2,122,2,1076,0,0.5267769,12.39081,2.37891,-1
19,F,0,1,31,7,1,121,1,9999,0,-1,-1,-1,-1
19,F,0,1,31,8,2,124,4,2431,1,0.1441569,12.40555,0.6489125,-1
19,F,0,1,32,1,2,125,1,2276,0,0.2941471,12.31211,1.352195,-1
19,F,0,1,32,2,1,127,3,3420,0,0.356428,6.350276,3.111183,-1
19,F,0,1,32,3,1,125,1,9999,0,-1,-1,-1,-1
19,F,0,1,32,4,1,128,4,9999,0,-1,-1,-1,-1
19,F,0,1,32,5,2,126,2,1087,0,0.115302,12.41697,0.5207698,-1
19,F,0,1,32,6,2,127,3,2720,1,0.9914238,12.23981,4.535657,-1
19,F,0,1,32,7,2,128,4,1920,1,0.281134,12.42862,1.27134,-1
19,F,0,1,32,8,1,126,2,1209,0,0.1683325,6.59207,1.382959,-1
19,F,0,1,33,1,1,131,3,2731,1,0.04565463,6.325101,0.3966355,-1
19,F,0,1,33,2,1,132,4,9999,0,-1,-1,-1,-1
19,F,0,1,33,3,2,129,1,1076,0,0.7049444,12.31486,3.201735,-1
19,F,0,1,33,4,2,130,2,1231,0,8.648099E-08,12.38545,0,-1
19,F,0,1,33,5,2,132,4,1164,0,0.2525861,12.40987,1.130039,-1
19,F,0,1,33,6,1,130,2,3298,0,0.3172123,6.579834,2.600905,-1
19,F,0,1,33,7,2,131,3,1798,1,0.8377195,12.22492,3.817519,-1
19,F,0,1,33,8,1,129,1,9999,0,-1,-1,-1,-1
19,F,0,1,34,1,1,136,4,9999,0,-1,-1,-1,-1
19,F,0,1,34,2,2,135,3,1642,1,0.3814812,12.23351,1.737537,-1
19,F,0,1,34,3,1,134,2,1420,0,0.03633033,6.576072,0.301316,-1
19,F,0,1,34,4,1,133,1,9999,0,-1,-1,-1,-1
19,F,0,1,34,5,2,134,2,1098,0,0.07955324,12.41218,0.360452,-1
19,F,0,1,34,6,1,135,3,3031,1,1.749044E-07,6.290079,0,-1
19,F,0,1,34,7,2,136,4,2020,1,1.016468E-07,12.39538,0,-1
19,F,0,1,34,8,2,133,1,1165,0,0.2824306,12.31559,1.292255,-1
19,F,0,1,35,1,1,140,4,9999,0,-1,-1,-1,-1
19,F,0,1,35,2,1,137,1,9999,0,-1,-1,-1,-1
19,F,0,1,35,3,2,139,3,1565,0,0.3486741,12.24345,1.592745,-1
19,F,0,1,35,4,2,140,4,1242,0,0.9528838,12.42559,4.23836,-1
19,F,0,1,35,5,1,138,2,2042,0,0.3369361,6.578676,2.764917,-1
19,F,0,1,35,6,2,137,1,1553,0,1.050463,12.3318,4.767647,-1
19,F,0,1,35,7,2,138,2,2198,0,0.8396326,12.40075,3.790597,-1
19,F,0,1,35,8,1,139,3,4464,2,0.3752294,6.316403,3.291107,-1
19,F,0,1,37,1,4,145,1,1098,0,0.8101946,12.33022,3.706814,-1
19,F,0,1,37,2,3,147,3,2953,1,0.5060803,6.327895,4.372779,-1
19,F,0,1,37,3,3,145,1,1953,0,0.0642582,6.164798,0.5685511,-1
19,F,0,1,37,4,3,146,2,1286,0,0.1104218,6.583949,0.9138597,-1
19,F,0,1,37,5,3,148,4,4498,1,0.1719067,6.642469,1.439535,-1
19,F,0,1,37,6,4,146,2,1154,0,0.8061907,12.37941,3.632325,-1
19,F,0,1,37,7,4,148,4,2875,1,0.5193501,12.445,2.337578,-1
19,F,0,1,37,8,4,147,3,2376,0,0.7368512,12.25671,3.363423,-1
19,F,0,1,38,1,3,150,2,1586,0,0.3010595,6.631535,2.477729,-1
19,F,0,1,38,2,3,149,1,3276,0,1.271358E-07,6.173151,0,-1
19,F,0,1,38,3,4,151,3,2898,2,0.3859983,12.21776,1.760031,-1
19,F,0,1,38,4,4,152,4,3664,2,1.671467E-07,12.308,0,-1
19,F,0,1,38,5,4,149,1,1142,0,0.7854307,12.27949,3.63378,-1
19,F,0,1,38,6,4,150,2,1287,0,0.4112463,12.34022,1.848962,-1
19,F,0,1,38,7,3,152,4,2009,1,0.02100779,6.575939,0.174713,-1
19,F,0,1,38,8,3,151,3,3109,0,0.4506359,6.347982,3.913966,-1
19,F,0,1,39,1,3,154,2,1742,0,0.3381634,6.620544,2.778336,-1
19,F,0,1,39,2,3,155,3,3976,0,0.02753029,6.335476,0.2390311,-1
19,F,0,1,39,3,3,153,1,2475,0,1.544603E-08,6.176126,0,-1
19,F,0,1,39,4,3,156,4,1387,0,0.2601998,6.592118,2.158126,-1
19,F,0,1,39,5,4,153,1,2487,0,0.3525726,12.32846,1.612405,-1
19,F,0,1,39,6,4,156,4,1909,1,0.3500343,12.40703,1.588069,-1
19,F,0,1,39,7,4,154,2,1965,0,0.1828806,12.34634,0.8313365,-1
19,F,0,1,39,8,4,155,3,2265,0,0.5335564,12.24055,2.451202,-1
19,F,0,1,40,1,4,158,2,3187,0,0.6843432,12.39782,3.119289,-1
19,F,0,1,40,2,4,157,1,1009,0,0.2373164,12.2649,1.081189,-1
19,F,0,1,40,3,3,158,2,4253,1,0.108875,6.633224,0.9099972,-1
19,F,0,1,40,4,3,160,4,4876,1,0.5300032,6.588194,4.357749,-1
19,F,0,1,40,5,3,159,3,3653,0,0.5014475,6.363241,4.343342,-1
19,F,0,1,40,6,4,160,4,1309,0,1.018466,12.41846,4.5395,-1
19,F,0,1,40,7,3,157,1,1564,0,0.07038391,6.146352,0.6246366,-1
19,F,0,1,40,8,4,159,3,2475,0,0.7125483,12.19779,3.235977,-1
19,F,0,1,41,1,1,164,4,2209,1,0.2945756,6.563647,2.426887,-1
19,F,0,1,41,2,2,161,1,1142,0,0.2092612,12.31131,0.9522384,-1
19,F,0,1,41,3,2,164,4,2053,1,0.6652952,12.402,2.960749,-1
19,F,0,1,41,4,2,162,2,1853,0,0.4162703,12.38126,1.88128,-1
19,F,0,1,41,5,1,163,3,2131,0,0.4018352,6.348491,3.508945,-1
19,F,0,1,41,6,1,162,2,1220,0,8.508548E-08,6.569286,0,-1
19,F,0,1,41,7,2,163,3,1131,0,0.552268,12.22157,2.515673,-1
19,F,0,1,41,8,1,161,1,1864,0,0.06468374,6.137549,0.577091,-1
19,F,0,1,42,1,2,168,4,3087,1,0.3103746,12.39858,1.395917,-1
19,F,0,1,42,2,1,167,3,2053,0,0.03806073,6.350211,0.3274564,-1
19,F,0,1,42,3,2,166,2,2020,1,0.7017048,12.39064,3.209552,-1
19,F,0,1,42,4,1,168,4,1553,0,0.3884967,6.569134,3.19886,-1
19,F,0,1,42,5,2,165,1,2287,0,7.8832E-08,12.31998,0,-1
19,F,0,1,42,6,2,167,3,2320,0,0.0319512,12.23266,0.1467098,-1
19,F,0,1,42,7,1,166,2,1098,0,0.2154084,6.568675,1.771336,-1
19,F,0,1,42,8,1,165,1,3576,0,0.1337944,6.128273,1.199589,-1
19,F,0,1,43,1,1,172,4,3409,1,0.5181105,6.569384,4.225773,-1
19,F,0,1,43,2,2,171,3,1687,1,0.7343797,12.23706,3.341992,-1
19,F,0,1,43,3,1,170,2,1287,0,0.3756115,6.570704,3.065927,-1
19,F,0,1,43,4,2,172,4,1487,0,0.6845578,12.42294,3.05313,-1
19,F,0,1,43,5,1,169,1,1554,0,0.1122099,6.132725,0.9954398,-1
19,F,0,1,43,6,1,171,3,3409,2,0.04383076,6.342654,0.3794918,-1
19,F,0,1,43,7,2,169,1,1209,0,0.2125281,12.32384,0.9713628,-1
19,F,0,1,43,8,2,170,2,4531,0,0.04223883,12.39875,0.1897456,-1
19,F,0,1,44,1,2,175,3,2920,1,0.8092313,12.22237,3.68201,-1
19,F,0,1,44,2,2,173,1,1331,0,0.1078276,12.32106,0.4925778,-1
19,F,0,1,44,3,2,176,4,1209,0,0.3119847,12.42181,1.391564,-1
19,F,0,1,44,4,2,174,2,1254,0,1.469358E-07,12.39184,0,-1
19,F,0,1,44,5,1,175,3,3331,0,0.4004869,6.35793,3.49211,-1
19,F,0,1,44,6,1,174,2,2697,1,0.3909264,6.56753,3.286166,-1
19,F,0,1,44,7,1,173,1,1920,0,0.1333617,6.154383,1.180017,-1
19,F,0,1,44,8,1,176,4,1231,0,0.3711751,6.594362,3.044847,-1
19,F,0,1,45,1,2,178,2,1576,1,0.1109321,12.35667,0.5028,-1
19,F,0,1,45,2,2,179,3,1620,1,0.558484,12.19874,2.563,-1
19,F,0,1,45,3,1,178,2,1198,0,0.4811221,6.546319,3.960075,-1
19,F,0,1,45,4,1,177,1,2831,0,0.1717778,6.108516,1.530207,-1
19,F,0,1,45,5,1,179,3,2298,0,0.1303034,6.352775,1.135911,-1
19,F,0,1,45,6,2,180,4,1298,0,0.3666002,12.40767,1.64211,-1
19,F,0,1,45,7,2,177,1,1409,0,0.5295663,12.30071,2.407372,-1
19,F,0,1,45,8,1,180,4,3598,3,0.04371273,6.479487,0.3669084,-1
19,F,0,1,46,1,2,182,2,942,0,0.5791526,12.34469,2.65616,-1
19,F,0,1,46,2,2,183,3,1608,0,1.029291,12.19094,4.708191,-1
19,F,0,1,46,3,1,181,1,1820,0,1.324096E-07,6.107482,0,-1
19,F,0,1,46,4,1,183,3,3876,0,6.282097E-08,6.326116,0,-1
19,F,0,1,46,5,2,184,4,1587,0,0.5142677,12.38693,2.29925,-1
19,F,0,1,46,6,2,181,1,1264,0,0.1281641,12.28487,0.5865081,-1
19,F,0,1,46,7,1,182,2,1276,0,0.3637907,6.528335,2.988455,-1
19,F,0,1,46,8,1,184,4,2442,1,0.09441681,6.541535,0.7835966,-1
19,F,0,1,47,1,2,187,3,1531,0,0.9449404,12.19613,4.31915,-1
19,F,0,1,47,2,2,185,1,1153,0,0.5217487,12.29139,2.397024,-1
19,F,0,1,47,3,1,186,2,1531,1,0.08764308,6.538123,0.7330202,-1
19,F,0,1,47,4,1,185,1,1964,0,0.1545284,6.114875,1.372733,-1
19,F,0,1,47,5,1,187,3,3742,2,0.2545844,6.307155,2.236422,-1
19,F,0,1,47,6,2,188,4,1720,0,0.6249259,12.37329,2.797784,-1
19,F,0,1,47,7,2,186,2,964,0,0.5147339,12.35971,2.357753,-1
19,F,0,1,47,8,1,188,4,2487,0,0.3228435,6.534645,2.671151,-1
19,F,0,1,48,1,2,189,1,1154,0,0.4147498,12.28702,1.905159,-1
19,F,0,1,48,2,1,192,4,1398,0,0.3930989,6.540991,3.250043,-1
19,F,0,1,48,3,2,190,2,987,0,0.1629476,12.36557,0.7388696,-1
19,F,0,1,48,4,2,192,4,1619,0,0.5239094,12.38479,2.335819,-1
19,F,0,1,48,5,1,190,2,1198,0,0.1153873,6.545699,0.9587917,-1
19,F,0,1,48,6,2,191,3,1598,0,0.3273473,12.19803,1.496456,-1
19,F,0,1,48,7,1,189,1,1687,0,0.3973346,6.122191,3.523979,-1
19,F,0,1,48,8,1,191,3,3375,1,0.3926927,6.324104,3.442133,-1
19,F,0,1,49,1,2,194,2,1486,0,0.6196836,12.37082,2.802118,-1
19,F,0,1,49,2,1,196,4,1864,1,0.2510516,6.549223,2.065354,-1
19,F,0,1,49,3,1,195,3,4976,1,0.3565046,6.322029,3.12274,-1
19,F,0,1,49,4,1,194,2,2831,2,0.1131523,6.574998,0.9497693,-1
19,F,0,1,49,5,2,195,3,1820,0,0.7216339,12.2034,3.295743,-1
19,F,0,1,49,6,1,193,1,2453,1,0.1587476,6.109711,1.42944,-1
19,F,0,1,49,7,2,196,4,1276,0,0.5192307,12.39579,2.320181,-1
19,F,0,1,49,8,2,193,1,1409,0,0.2594203,12.30681,1.180017,-1
19,F,0,1,50,1,1,200,4,2176,1,0.1312684,6.55904,1.084803,-1
19,F,0,1,50,2,1,199,3,3898,0,0.2164954,6.315788,1.899089,-1
19,F,0,1,50,3,2,200,4,2087,1,0.4936905,12.38916,2.227477,-1
19,F,0,1,50,4,2,197,1,1020,0,0.3535587,12.30756,1.612769,-1
19,F,0,1,50,5,2,198,2,1065,0,0.07515921,12.37209,0.3409232,-1
19,F,0,1,50,6,2,199,3,1576,0,0.9825026,12.21438,4.48524,-1
19,F,0,1,50,7,1,197,1,2576,1,0.2155484,6.111948,1.94662,-1
19,F,0,1,50,8,1,198,2,1220,0,0.1842328,6.55928,1.51904,-1
19,F,0,1,51,1,1,201,1,3020,2,0.4100343,6.089939,3.750454,-1
19,F,0,1,51,2,2,203,3,2964,1,0.4677561,12.18867,2.138173,-1
19,F,0,1,51,3,2,202,2,1287,0,0.3863766,12.37683,1.759808,-1
19,F,0,1,51,4,2,201,1,1298,0,0.3539431,12.29937,1.609368,-1
19,F,0,1,51,5,2,204,4,1642,0,0.7953929,12.39523,3.555727,-1
19,F,0,1,51,6,1,203,3,3387,0,0.1297312,6.335457,1.134359,-1
19,F,0,1,51,7,1,204,4,2342,1,0.08401489,6.560887,0.6974546,-1
19,F,0,1,51,8,1,202,2,1365,0,0.3864589,6.552323,3.176505,-1
19,F,0,1,52,1,2,205,1,1109,0,0.384542,12.29438,1.762808,-1
19,F,0,1,52,2,1,208,4,1431,0,0.4994178,6.556041,4.121365,-1
19,F,0,1,52,3,1,207,3,1753,0,0.5431574,6.341227,4.746563,-1
19,F,0,1,52,4,2,208,4,2442,1,0.4513107,12.38685,2.02613,-1
19,F,0,1,52,5,1,205,1,1965,0,0.06109928,6.12238,0.5439265,-1
19,F,0,1,52,6,2,206,2,1131,0,0.2417183,12.37223,1.105884,-1
19,F,0,1,52,7,2,207,3,1809,0,0.6243363,12.21841,2.86266,-1
19,F,0,1,52,8,1,206,2,1198,0,0.3315191,6.55414,2.730221,-1
19,F,0,1,53,1,1,212,4,1976,1,0.423263,6.556024,3.492166,-1
19,F,0,1,53,2,2,209,1,1553,0,0.3274936,12.30524,1.500244,-1
19,F,0,1,53,3,1,210,2,2087,1,0.001239174,6.560102,0,-1
19,F,0,1,53,4,1,209,1,2987,0,0.03578961,6.119854,0.3189811,-1
19,F,0,1,53,5,2,211,3,2253,0,0.4984538,12.21473,2.29243,-1
19,F,0,1,53,6,2,212,4,2087,0,0.1502317,12.40236,0.6737661,-1
19,F,0,1,53,7,1,211,3,2520,0,0.2471419,6.335523,2.16166,-1
19,F,0,1,53,8,2,210,2,1853,1,0.7536186,12.37794,3.433648,-1
19,F,0,1,54,1,2,215,3,1565,0,2.469861E-07,12.20902,0,-1
19,F,0,1,54,2,1,213,1,1598,0,0.3084851,6.135236,2.809165,-1
19,F,0,1,54,3,2,214,2,1142,0,0.8342922,12.39042,3.836298,-1
19,F,0,1,54,4,1,215,3,3453,2,0.1216457,6.331575,1.040423,-1
19,F,0,1,54,5,1,216,4,1953,1,1.462353E-07,6.571867,0,-1
19,F,0,1,54,6,1,214,2,1242,0,0.2393959,6.574643,1.989283,-1
19,F,0,1,54,7,2,216,4,1242,0,0.4882794,12.41307,2.178975,-1
19,F,0,1,54,8,2,213,1,1342,0,0.4176254,12.31718,1.917753,-1
19,F,0,1,55,1,1,219,3,2365,0,0.4651475,6.345413,4.062595,-1
19,F,0,1,55,2,2,217,1,2342,2,0.9006763,12.2544,4.163019,-1
19,F,0,1,55,3,1,220,4,1420,0,0.1531965,6.572989,1.266559,-1
19,F,0,1,55,4,2,219,3,3298,2,0.4309149,12.15237,1.975263,-1
19,F,0,1,55,5,2,218,2,909,0,0.7319258,12.36664,3.34919,-1
19,F,0,1,55,6,1,217,1,2120,0,0.03684312,6.116588,0.3280534,-1
19,F,0,1,55,7,1,218,2,1187,0,4.932276E-08,6.559836,0,-1
19,F,0,1,55,8,2,220,4,2042,0,0.4860965,12.39956,2.173759,-1
19,F,0,1,56,1,2,223,3,1753,0,0.8223414,12.21994,3.751289,-1
19,F,0,1,56,2,1,221,1,1875,0,0.3581505,6.132956,3.166257,-1
19,F,0,1,56,3,1,224,4,1187,0,0.335119,6.567204,2.761871,-1
19,F,0,1,56,4,1,223,3,3442,0,0.419518,6.339689,3.668371,-1
19,F,0,1,56,5,2,221,1,1865,0,4.089753E-08,12.30814,0,-1
19,F,0,1,56,6,2,222,2,887,0,0.03545768,12.37945,0.1607126,-1
19,F,0,1,56,7,2,224,4,1198,0,1.054416,12.40953,4.702155,-1
19,F,0,1,56,8,1,222,2,1476,0,0.01758915,6.568134,0.1467098,-1
19,F,0,1,57,1,3,225,1,1420,0,0.1702792,6.148749,1.516074,-1
19,F,0,1,57,2,3,228,4,1842,1,2.787E-08,6.574353,0,-1
19,F,0,1,57,3,4,227,3,1720,0,0.7308178,12.21976,3.345798,-1
19,F,0,1,57,4,4,228,4,1998,1,0.2733279,12.40556,1.229238,-1
19,F,0,1,57,5,3,227,3,3409,1,0.1094294,6.323643,0.9454328,-1
19,F,0,1,57,6,4,226,2,1065,0,0.3854459,12.46234,1.750218,-1
19,F,0,1,57,7,4,225,1,9953,1,0.9766625,12.34555,4.482313,-1
19,F,0,1,57,8,3,226,2,3653,0,0.3911785,6.617036,3.204363,-1
19,F,0,1,58,1,3,232,4,1165,0,0.4844601,6.624958,3.930492,-1
19,F,0,1,58,2,4,230,2,1631,1,0.8546557,12.37689,3.910012,-1
19,F,0,1,58,3,3,229,1,1509,0,0.1214784,6.206376,1.081189,-1
19,F,0,1,58,4,3,231,3,2320,1,0.1901913,6.389531,1.649363,-1
19,F,0,1,58,5,4,232,4,1320,0,0.5032896,12.46369,2.23922,-1
19,F,0,1,58,6,4,231,3,1676,0,0.4752754,12.2965,2.166995,-1
19,F,0,1,58,7,4,229,1,1376,0,0.4144668,12.36251,1.874611,-1
19,F,0,1,58,8,3,230,2,3776,0,0.3962213,6.659864,3.218202,-1
19,F,0,1,59,1,4,236,4,1520,0,0.7950716,12.4864,3.555177,-1
19,F,0,1,59,2,3,234,2,1642,0,0.004427423,6.596349,0.03426402,-1
19,F,0,1,59,3,4,235,3,9999,0,-1,-1,-1,-1
19,F,0,1,59,4,4,234,2,1064,0,0.3497493,12.43565,1.585603,-1
19,F,0,1,59,5,3,235,3,3687,0,0.473535,6.358009,4.065679,-1
19,F,0,1,59,6,3,233,1,2498,2,0.2957552,6.093519,2.703347,-1
19,F,0,1,59,7,3,236,4,1576,0,0.3192542,6.595281,2.623908,-1
19,F,0,1,59,8,4,233,1,1720,0,0.7022808,12.34388,3.220999,-1
19,F,0,1,60,1,4,239,3,1742,0,0.5846699,12.22764,2.650775,-1
19,F,0,1,60,2,3,240,4,2876,0,0.007106313,6.597091,0.05595291,-1
19,F,0,1,60,3,3,239,3,3620,1,0.03663542,6.360424,0.315279,-1
19,F,0,1,60,4,4,237,1,1076,0,0.3443561,12.29903,1.587946,-1
19,F,0,1,60,5,4,240,4,1253,0,0.7889158,12.44368,3.513406,-1
19,F,0,1,60,6,4,238,2,1276,0,0.09159759,12.38871,0.414487,-1
19,F,0,1,60,7,3,237,1,3442,2,0.3551075,6.137062,3.157837,-1
19,F,0,1,60,8,3,238,2,1287,0,0.08066754,6.598553,0.6664661,-1
19,F,0,1,61,1,2,243,3,1354,0,0.3903985,12.2578,1.774427,-1
19,F,0,1,61,2,1,244,4,2420,2,0.2320479,6.597502,1.897439,-1
19,F,0,1,61,3,2,242,2,1520,1,0.6662827,12.41481,2.995129,-1
19,F,0,1,61,4,2,244,4,1509,0,0.4789377,12.43782,2.132949,-1
19,F,0,1,61,5,1,243,3,3464,0,0.2663623,6.359657,2.320856,-1
19,F,0,1,61,6,2,241,1,1120,0,0.2012455,12.35192,0.9172792,-1
19,F,0,1,61,7,1,242,2,1254,0,0.09995932,6.597903,0.8230571,-1
19,F,0,1,61,8,1,241,1,1198,0,0.2345119,6.168141,2.063363,-1
19,F,0,1,62,1,2,248,4,1076,0,1.009159,12.44655,4.494967,-1
19,F,0,1,62,2,2,245,1,1087,0,0.3958497,12.34554,1.807211,-1
19,F,0,1,62,3,2,247,3,2665,0,0.2000428,12.25212,0.9138597,-1
19,F,0,1,62,4,2,246,2,9999,5,-1,-1,-1,-1
19,F,0,1,62,5,1,245,1,1287,0,0.1360047,6.15534,1.20301,-1
19,F,0,1,62,6,1,246,2,1487,0,0.4890754,6.58412,4.026474,-1
19,F,0,1,62,7,1,248,4,1675,1,0.1036921,6.57639,0.858434,-1
19,F,0,1,62,8,1,247,3,2376,0,0.344959,6.35558,3.008237,-1
19,F,0,1,1,1,7,4,4,7396,0,0.6961224,6.585724,5.714431,-1
19,F,0,1,1,2,5,2,2,3131,0,2.723284,6.562096,23.20046,-1
19,F,0,1,1,3,7,3,3,2109,0,0.541376,6.34936,4.653032,-1
19,F,0,1,1,4,8,2,2,3498,0,3.590991,12.36005,16.61844,-1
19,F,0,1,1,5,6,3,3,2453,0,1.887143,12.24985,8.767662,-1
19,F,0,1,1,6,8,1,1,2631,0,0.9179357,12.3204,4.152939,-1
19,F,0,1,1,7,8,4,4,3053,0,1.608757,12.47842,7.375706,-1
19,F,0,1,1,8,5,1,1,1020,0,3.669762,6.196825,36.31332,-1
19,F,0,1,1,9,8,3,3,4720,0,7.200466,12.23096,36.0654,-1
19,F,0,1,1,10,6,2,2,5131,0,0.1858714,12.40589,0.8386015,-1
19,F,0,1,1,11,6,4,4,4609,0,1.127596,12.43528,5.019149,-1
19,F,0,1,1,12,6,1,1,2598,0,10.23121,12.36102,55.8418,-1
19,F,0,1,1,13,5,4,4,965,0,0.9923187,6.585829,8.174571,-1
19,F,0,1,1,14,7,1,1,2798,0,3.496258,6.162847,34.563,-1
19,F,0,1,1,15,5,3,3,1453,0,3.515105,6.397673,32.0734,-1
19,F,0,1,1,16,7,2,2,3331,0,2.267774,6.573157,18.9967,-1
19,F,0,1,2,1,8,3,3,4753,0,2.637516,12.22772,12.13162,-1
19,F,0,1,2,2,6,1,1,1476,0,3.451104,12.34649,16.22769,-1
19,F,0,1,2,3,7,2,2,1098,0,0.3982627,6.57225,3.277337,-1
19,F,0,1,2,4,7,1,1,2187,0,2.308432,6.180231,21.93279,-1
19,F,0,1,2,5,6,4,4,809,0,6.250347,12.43744,30.16837,-1
19,F,0,1,2,6,5,1,1,1009,0,3.493529,6.176719,34.44371,-1
19,F,0,1,2,7,5,2,2,2065,0,2.765493,6.563949,23.64004,-1
19,F,0,1,2,8,7,3,3,1064,0,3.588923,6.391691,32.33567,-1
19,F,0,1,2,9,7,4,4,1887,0,2.756213,6.611195,24.63908,-1
19,F,0,1,2,10,8,1,1,2098,0,7.61818,12.33067,38.1404,-1
19,F,0,1,2,11,5,4,4,1831,0,2.638469,6.575542,23.26307,-1
19,F,0,1,2,12,8,2,2,1087,0,0.18685,12.39343,0.848345,-1
19,F,0,1,2,13,5,3,3,887,0,5.772494,6.440213,63.5833,-1
19,F,0,1,2,14,8,4,4,831,0,6.669084,12.4958,32.25619,-1
19,F,0,1,2,15,6,2,2,664,0,5.252858,12.40887,25.04403,-1
19,F,0,1,2,16,6,3,3,609,0,3.997928,12.27833,18.89041,-1
