Age, Gender, Awareness Type, Session, Block, Trial, Set, Pattern, Quadrant, Response Time, Num Mistakes, Distance From Target, Camera Distance From Target, Angle Error (Degrees), FC Response
19,M,0,1,1,1,1,2,2,4953,0,2.291127E-08,6.684443,0,-1
19,M,0,1,1,2,1,4,4,2431,0,0.1008736,6.621116,0.8336869,-1
19,M,0,1,1,3,2,2,2,1253,0,1.33443E-07,12.50461,0,-1
19,M,0,1,1,4,2,3,3,2598,0,0.5067605,12.34679,2.29644,-1
19,M,0,1,1,5,2,4,4,2498,0,0.6002749,12.42566,2.686496,-1
19,M,0,1,1,6,1,1,1,3675,0,0.01048191,6.405937,0.09065409,-1
19,M,0,1,1,7,1,3,3,2531,0,0.2499454,6.283453,2.175289,-1
19,M,0,1,1,8,2,1,1,2431,0,0.611042,12.44951,2.764492,-1
19,M,0,1,2,1,1,6,2,7375,0,9.379292E-08,6.695872,0,-1
19,M,0,1,2,2,1,5,1,2442,0,0.1951586,6.407278,1.674796,-1
19,M,0,1,2,3,2,7,3,3064,0,0.5898834,12.34642,2.68788,-1
19,M,0,1,2,4,2,8,4,3520,0,0.3176296,12.42736,1.444556,-1
19,M,0,1,2,5,2,6,2,1420,0,0.2137888,12.52201,0.9636774,-1
19,M,0,1,2,6,2,5,1,1998,0,0.7068367,12.44557,3.199472,-1
19,M,0,1,2,7,1,8,4,3687,0,6.704946E-08,6.641402,0,-1
19,M,0,1,2,8,1,7,3,3142,0,0.2370146,6.286261,2.060231,-1
19,M,0,1,3,1,2,12,4,2398,0,0.3648649,12.42416,1.650312,-1
19,M,0,1,3,2,1,10,2,1709,0,0.1627041,6.688227,1.330751,-1
19,M,0,1,3,3,2,11,3,2909,0,0.5568269,12.3452,2.533273,-1
19,M,0,1,3,4,2,9,1,2020,0,0.6680078,12.45145,3.024462,-1
19,M,0,1,3,5,1,11,3,3109,0,0.003842793,6.286283,0.03426402,-1
19,M,0,1,3,6,1,9,1,1520,0,0.3822529,6.409286,3.262428,-1
19,M,0,1,3,7,2,10,2,1342,0,0.3208372,12.52178,1.446992,-1
19,M,0,1,3,8,1,12,4,3053,0,0.01672074,6.630942,0.1370561,-1
19,M,0,1,4,1,2,13,1,1909,0,0.6364977,12.45333,2.880996,-1
19,M,0,1,4,2,1,15,3,2309,0,6.963965E-08,6.282336,0,-1
19,M,0,1,4,3,1,16,4,4221,0,1.228773E-07,6.624438,0,-1
19,M,0,1,4,4,2,15,3,3498,0,0.07665797,12.33494,0.3483046,-1
19,M,0,1,4,5,1,13,1,8075,0,0.1388832,6.384025,1.186962,-1
19,M,0,1,4,6,1,14,2,7242,0,0.1364928,6.66471,1.121521,-1
19,M,0,1,4,7,2,16,4,2453,0,0.2213448,12.42864,0.9909081,-1
19,M,0,1,4,8,2,14,2,5020,0,0.327554,12.44538,1.486484,-1
19,M,0,1,5,1,2,20,4,2731,0,0.1841617,12.43656,0.8280347,-1
19,M,0,1,5,2,1,17,1,1520,0,0.06477954,6.428467,0.5528469,-1
19,M,0,1,5,3,2,18,2,1220,0,0.195798,12.54267,0.8816,-1
19,M,0,1,5,4,2,19,3,1987,0,0.8841167,12.37044,4.027544,-1
19,M,0,1,5,5,1,18,2,2842,0,0.5326518,6.73106,4.444353,-1
19,M,0,1,5,6,1,20,4,2720,0,0.007399409,6.668859,0.05934703,-1
19,M,0,1,5,7,1,19,3,1965,0,0.09662024,6.319495,0.8367326,-1
19,M,0,1,5,8,2,17,1,4065,0,0.2539822,12.47079,1.153349,-1
19,M,0,1,6,1,2,22,2,987,0,0.4059972,12.52479,1.8312,-1
19,M,0,1,6,2,1,21,1,1831,0,0.2174604,6.412636,1.864666,-1
19,M,0,1,6,3,1,23,3,2354,0,0.09924768,6.336381,0.8572935,-1
19,M,0,1,6,4,1,24,4,2509,0,0.2026753,6.6561,1.672925,-1
19,M,0,1,6,5,2,21,1,1076,0,0.2077739,12.46913,0.9423231,-1
19,M,0,1,6,6,1,22,2,5387,0,0.002079103,6.696813,0.01978234,-1
19,M,0,1,6,7,2,23,3,2664,0,0.4354365,12.38454,1.973181,-1
19,M,0,1,6,8,2,24,4,2342,0,0.3472619,12.4533,1.576195,-1
19,M,0,1,7,1,1,27,3,2064,0,0.2739318,6.313982,2.389254,-1
19,M,0,1,7,2,2,28,4,2031,0,0.5834281,12.44908,2.649815,-1
19,M,0,1,7,3,2,27,3,2020,0,0.7390293,12.37705,3.337067,-1
19,M,0,1,7,4,1,26,2,5364,0,0.1227244,6.689742,1.002296,-1
19,M,0,1,7,5,2,25,1,2765,0,0.1409007,12.465,0.6376578,-1
19,M,0,1,7,6,1,28,4,1742,0,6.491326E-08,6.654436,0,-1
19,M,0,1,7,7,2,26,2,4897,0,3.403195E-07,12.51629,0,-1
19,M,0,1,7,8,1,25,1,1753,0,0.2871002,6.41423,2.447606,-1
19,M,0,1,8,1,2,30,2,1275,0,0.5542884,12.53422,2.497557,-1
19,M,0,1,8,2,2,32,4,2009,0,0.2489463,12.44208,1.120125,-1
19,M,0,1,8,3,1,31,3,3353,1,0.2836309,6.314915,2.480098,-1
19,M,0,1,8,4,2,29,1,1320,0,0.2603791,12.47042,1.176696,-1
19,M,0,1,8,5,2,31,3,2020,0,0.2242702,12.37575,1.024693,-1
19,M,0,1,8,6,1,32,4,3053,0,3.835957E-08,6.658946,0,-1
19,M,0,1,8,7,1,29,1,4987,2,0.5341833,6.409579,4.556038,-1
19,M,0,1,8,8,1,30,2,5053,0,6.799458E-08,6.682559,0,-1
19,M,0,1,9,1,2,33,1,1308,0,0.2532196,12.4561,1.146201,-1
19,M,0,1,9,2,2,36,4,2031,0,1.165125E-07,12.42265,0,-1
19,M,0,1,9,3,1,34,2,4020,0,6.02555E-08,6.683242,0,-1
19,M,0,1,9,4,1,35,3,1709,0,0.191392,6.278626,1.683188,-1
19,M,0,1,9,5,1,33,1,1442,0,0.02210747,6.420925,0.1887116,-1
19,M,0,1,9,6,2,34,2,3364,0,0.3431109,12.52176,1.547249,-1
19,M,0,1,9,7,1,36,4,2730,0,3.250537E-07,6.614272,0,-1
19,M,0,1,9,8,2,35,3,2475,0,1.054412,12.34524,4.850988,-1
19,M,0,1,10,1,1,40,4,3520,0,0.01999123,6.629836,0.1643245,-1
19,M,0,1,10,2,1,39,3,2943,0,0.2628903,6.281128,2.310544,-1
19,M,0,1,10,3,1,38,2,1509,0,1.211766E-07,6.683735,0,-1
19,M,0,1,10,4,1,37,1,1964,0,0.3052354,6.419252,2.600604,-1
19,M,0,1,10,5,2,38,2,1208,0,0.2310285,12.521,1.042114,-1
19,M,0,1,10,6,2,37,1,4265,0,0.2588167,12.45063,1.171362,-1
19,M,0,1,10,7,2,40,4,2308,0,2.397289E-08,12.42077,0,-1
19,M,0,1,10,8,2,39,3,1375,0,0.8429158,12.35409,3.873482,-1
19,M,0,1,11,1,2,42,2,3986,2,0.4905931,12.52227,2.21249,-1
19,M,0,1,11,2,1,41,1,5220,0,0.09904411,6.415067,0.8439512,-1
19,M,0,1,11,3,1,44,4,2309,0,0.1443641,6.622427,1.205772,-1
19,M,0,1,11,4,2,41,1,2309,0,0.588155,12.4442,2.666384,-1
19,M,0,1,11,5,2,43,3,3053,0,0.7228449,12.35621,3.262368,-1
19,M,0,1,11,6,2,44,4,2920,0,1.165597E-07,12.42056,0,-1
19,M,0,1,11,7,1,42,2,3054,1,3.530199E-08,6.682342,0.01978234,-1
19,M,0,1,11,8,1,43,3,2775,1,0.08978731,6.287358,0.7808449,-1
19,M,0,1,12,1,2,45,1,2920,0,0.6858928,12.45166,3.109169,-1
19,M,0,1,12,2,2,47,3,2842,0,0.132692,12.34157,0.6036074,-1
19,M,0,1,12,3,1,46,2,2154,0,0.11535,6.683314,0.9569532,-1
19,M,0,1,12,4,1,45,1,2920,0,0.3983134,6.408186,3.400128,-1
19,M,0,1,12,5,1,48,4,2376,0,0.3713059,6.636169,3.04266,-1
19,M,0,1,12,6,1,47,3,1442,0,0.1447942,6.295353,1.264858,-1
19,M,0,1,12,7,2,46,2,865,0,0.8052306,12.52273,3.665007,-1
19,M,0,1,12,8,2,48,4,1820,0,0.5248353,12.41992,2.389009,-1
19,M,0,1,13,1,2,50,2,1442,0,0.5720863,12.52442,2.561014,-1
19,M,0,1,13,2,2,49,1,1064,0,0.4039197,12.45373,1.830238,-1
19,M,0,1,13,3,2,52,4,1742,0,0.1254198,12.42376,0.5682068,-1
19,M,0,1,13,4,1,50,2,3376,0,0.2965859,6.679318,2.42075,-1
19,M,0,1,13,5,1,49,1,1876,0,0.1330673,6.413659,1.139695,-1
19,M,0,1,13,6,1,51,3,1775,0,0.1615945,6.282814,1.406809,-1
19,M,0,1,13,7,1,52,4,3409,0,0.2930928,6.63016,2.414192,-1
19,M,0,1,13,8,2,51,3,2942,0,0.5519102,12.34368,2.477255,-1
19,M,0,1,14,1,2,53,1,3420,0,0.6153767,12.45214,2.788463,-1
19,M,0,1,14,2,1,56,4,3364,0,1.581591E-07,6.6375,0,-1
19,M,0,1,14,3,1,54,2,1698,0,0.5139626,6.674585,4.230729,-1
19,M,0,1,14,4,2,55,3,3442,0,0.9655805,12.34851,4.381461,-1
19,M,0,1,14,5,1,53,1,1675,1,0.09337427,6.409184,0.8003972,-1
19,M,0,1,14,6,1,55,3,2408,0,1.804227E-08,6.285942,0,-1
19,M,0,1,14,7,2,56,4,2520,0,0.01084992,12.41501,0.04423466,-1
19,M,0,1,14,8,2,54,2,1209,0,0.04411869,12.51258,0.1988102,-1
19,M,0,1,15,1,2,57,1,1164,0,0.02228075,12.45031,0.1008706,-1
19,M,0,1,15,2,2,58,2,853,0,0.3869648,12.51245,1.746188,-1
19,M,0,1,15,3,1,57,1,1409,0,0.1604037,6.407582,1.364297,-1
19,M,0,1,15,4,1,60,4,2565,0,0.2234661,6.619761,1.868546,-1
19,M,0,1,15,5,2,59,3,1609,0,0.1614863,12.35708,0.7364823,-1
19,M,0,1,15,6,1,58,2,1576,0,0.2129334,6.68788,1.742037,-1
19,M,0,1,15,7,1,59,3,3576,0,0.4428141,6.29099,3.888165,-1
19,M,0,1,15,8,2,60,4,2298,0,1.021751,12.41603,4.656314,-1
19,M,0,1,16,1,1,62,2,1520,0,0.2379965,6.677393,1.980507,-1
19,M,0,1,16,2,1,61,1,2342,1,0.3244221,6.407007,2.788112,-1
19,M,0,1,16,3,2,62,2,2697,0,5.224388E-08,12.52441,0,-1
19,M,0,1,16,4,1,63,3,4053,0,0.2563373,6.276985,2.233444,-1
19,M,0,1,16,5,2,64,4,3198,0,0.3498294,12.41928,1.595446,-1
19,M,0,1,16,6,2,63,3,2198,0,0.6812893,12.35482,3.061326,-1
19,M,0,1,16,7,1,64,4,1931,0,0.02861455,6.631979,0.2349025,-1
19,M,0,1,16,8,2,61,1,2086,0,0.247834,12.45838,1.121347,-1
19,M,0,1,17,1,4,66,2,975,0,0.1250201,12.53032,0.5626699,-1
19,M,0,1,17,2,3,67,3,2398,0,0.03668993,6.34201,0.3189811,-1
19,M,0,1,17,3,3,65,1,1864,1,0.4540569,6.428514,3.86508,-1
19,M,0,1,17,4,4,68,4,1564,0,0.3895741,12.47464,1.767022,-1
19,M,0,1,17,5,4,67,3,2020,0,0.2765886,12.38037,1.256009,-1
19,M,0,1,17,6,3,68,4,2465,0,0.06528589,6.624414,0.5374122,-1
19,M,0,1,17,7,3,66,2,1398,0,5.147161E-08,6.703116,0,-1
19,M,0,1,17,8,4,65,1,3564,0,0.233987,12.40126,1.061647,-1
19,M,0,1,18,1,3,70,2,1487,0,6.652869E-08,6.673945,0,-1
19,M,0,1,18,2,4,72,4,2176,0,0.2447312,12.42667,1.113115,-1
19,M,0,1,18,3,3,71,3,1365,0,2.6761E-07,6.339321,0,-1
19,M,0,1,18,4,4,69,1,2342,0,0.6719875,12.4289,3.037702,-1
19,M,0,1,18,5,4,70,2,776,0,2.298986E-07,12.52406,0.01978234,-1
19,M,0,1,18,6,3,72,4,3132,0,0.1318164,6.660827,1.07829,-1
19,M,0,1,18,7,4,71,3,3320,0,0.1618003,12.39235,0.7370135,-1
19,M,0,1,18,8,3,69,1,2009,0,0.2553319,6.446048,2.172768,-1
19,M,0,1,19,1,3,76,4,1853,0,0.5422576,6.63061,4.384991,-1
19,M,0,1,19,2,4,73,1,1865,0,0.4124327,12.44701,1.86183,-1
19,M,0,1,19,3,4,76,4,1876,0,1.303278E-07,12.46959,0,-1
19,M,0,1,19,4,3,73,1,3831,2,1.374455E-07,6.434975,0,-1
19,M,0,1,19,5,3,75,3,3120,1,0.3969638,6.364499,3.417072,-1
19,M,0,1,19,6,3,74,2,6342,0,5.585222E-08,6.714551,0,-1
19,M,0,1,19,7,4,75,3,2698,0,0.8122507,12.36341,3.725204,-1
19,M,0,1,19,8,4,74,2,1075,0,0.1493677,12.5444,0.6696879,-1
19,M,0,1,20,1,4,79,3,2475,0,0.4809241,12.37638,2.20478,-1
19,M,0,1,20,2,4,77,1,2575,1,1.636698E-07,12.44987,0,-1
19,M,0,1,20,3,3,78,2,1953,0,0.3284245,6.679637,2.647672,-1
19,M,0,1,20,4,3,80,4,2231,0,0.3200237,6.685345,2.637524,-1
19,M,0,1,20,5,3,79,3,2420,0,0.1934625,6.31374,1.675029,-1
19,M,0,1,20,6,3,77,1,1675,0,0.3848054,6.412755,3.252813,-1
19,M,0,1,20,7,4,78,2,4009,0,9.611931E-08,12.52549,0,-1
19,M,0,1,20,8,4,80,4,1754,0,0.3757026,12.49328,1.684234,-1
19,M,0,1,20,1,2,79,3,3242,1,0.7350239,12.37412,3.293426,-1
19,M,0,1,20,2,2,80,4,3531,1,0.166888,12.46029,0.7462481,-1
19,M,0,1,20,3,2,78,2,1209,0,0.134991,12.5424,0.6068404,-1
19,M,0,1,20,4,1,79,3,2487,0,0.2160128,6.311169,1.872103,-1
19,M,0,1,20,5,2,77,1,1576,0,0.2296507,12.46505,1.038917,-1
19,M,0,1,20,6,1,78,2,2865,0,0.2332242,6.698864,1.941586,-1
19,M,0,1,20,7,1,77,1,2253,0,5.452867E-08,6.409795,0,-1
19,M,0,1,20,8,1,80,4,3875,1,1.249892E-07,6.669397,0,-1
19,M,0,1,21,1,1,83,3,2465,0,0.3089798,6.303921,2.678688,-1
19,M,0,1,21,2,2,82,2,1542,0,0.8940324,12.54518,4.026425,-1
19,M,0,1,21,3,2,81,1,1820,0,0.2560845,12.44124,1.16079,-1
19,M,0,1,21,4,2,84,4,2965,0,0.193159,12.4421,0.8643403,-1
19,M,0,1,21,5,1,81,1,3042,2,0.2709059,6.391371,2.3354,-1
19,M,0,1,21,6,1,84,4,2898,0,0.381318,6.681591,3.100215,-1
19,M,0,1,21,7,1,82,2,1931,0,0.5268063,6.693508,4.336302,-1
19,M,0,1,21,8,2,83,3,2387,0,0.4176196,12.36823,1.915711,-1
19,M,0,1,22,1,2,85,1,1631,0,0.3017256,12.44137,1.367735,-1
19,M,0,1,22,2,1,86,2,1231,0,6.923712E-08,6.739646,0,-1
19,M,0,1,22,3,2,87,3,2687,0,0.3275879,12.35897,1.489378,-1
19,M,0,1,22,4,1,85,1,2064,0,0.4963605,6.383108,4.245471,-1
19,M,0,1,22,5,2,88,4,2765,0,3.870374E-08,12.4478,0,-1
19,M,0,1,22,6,1,87,3,3809,0,0.1248844,6.300695,1.094143,-1
19,M,0,1,22,7,1,88,4,2920,0,0.06428523,6.687602,0.5245137,-1
19,M,0,1,22,8,2,86,2,1109,0,0.1764548,12.53077,0.7893192,-1
19,M,0,1,23,1,2,89,1,2509,0,1.010021E-07,12.43574,0,-1
19,M,0,1,23,2,2,92,4,1987,0,0.7993722,12.46171,3.625418,-1
19,M,0,1,23,3,1,89,1,2231,0,0.2761414,6.385442,2.387861,-1
19,M,0,1,23,4,1,91,3,3742,0,0.4473465,6.30473,3.892695,-1
19,M,0,1,23,5,1,90,2,3631,3,1.056718E-07,6.692177,0,-1
19,M,0,1,23,6,2,91,3,2642,0,0.4869407,12.35424,2.185969,-1
19,M,0,1,23,7,1,92,4,2553,0,0.2645453,6.666863,2.140278,-1
19,M,0,1,23,8,2,90,2,1954,0,0.7090341,12.54073,3.212357,-1
19,M,0,1,24,1,2,95,3,3198,0,0.3345818,12.33041,1.537988,-1
19,M,0,1,24,2,1,93,1,1442,0,0.03618131,6.396853,0.309643,-1
19,M,0,1,24,3,2,94,2,908,0,0.00527669,12.53958,0.01978234,-1
19,M,0,1,24,4,2,96,4,2376,0,0.5249394,12.47065,2.334394,-1
19,M,0,1,24,5,1,94,2,2853,1,0.2629378,6.723271,2.15386,-1
19,M,0,1,24,6,1,96,4,3398,0,0.2872275,6.681321,2.355345,-1
19,M,0,1,24,7,2,93,1,2142,0,0.3601931,12.44224,1.632548,-1
19,M,0,1,24,8,1,95,3,3042,0,0.2158931,6.312675,1.871685,-1
19,M,0,1,25,1,1,97,1,1409,0,0.1102744,6.400898,0.9468806,-1
19,M,0,1,25,2,1,98,2,1242,0,0.1181525,6.723538,0.9624583,-1
19,M,0,1,25,3,2,97,1,1409,0,0.626957,12.46204,2.836349,-1
19,M,0,1,25,4,2,98,2,831,0,0.3838466,12.55822,1.732913,-1
19,M,0,1,25,5,2,100,4,2287,0,0.4800013,12.45542,2.178256,-1
19,M,0,1,25,6,1,99,3,2287,0,3.849357E-08,6.312619,0,-1
19,M,0,1,25,7,1,100,4,2242,0,0.3085825,6.694826,2.52569,-1
19,M,0,1,25,8,2,99,3,1931,0,1.031002,12.38611,4.727209,-1
19,M,0,1,26,1,2,102,2,842,0,1.133658E-07,12.53493,0,-1
19,M,0,1,26,2,2,101,1,1142,0,0.3336021,12.45701,1.510254,-1
19,M,0,1,26,3,2,104,4,1309,0,0.4433836,12.47567,2.004474,-1
19,M,0,1,26,4,1,102,2,4542,0,0.203166,6.729255,1.648295,-1
19,M,0,1,26,5,1,101,1,1842,0,4.950861E-08,6.394658,0,-1
19,M,0,1,26,6,1,103,3,2587,0,0.4923615,6.325602,4.270951,-1
19,M,0,1,26,7,1,104,4,1387,0,2.110321E-07,6.714705,0,-1
19,M,0,1,26,8,2,103,3,1953,0,0.8706058,12.38476,3.99091,-1
19,M,0,1,27,1,2,106,2,1186,0,0.3615271,12.55088,1.6158,-1
19,M,0,1,27,2,1,105,1,1720,0,0.02574296,6.388526,0.2220564,-1
19,M,0,1,27,3,2,107,3,2020,0,1.007705,12.38692,4.619782,-1
19,M,0,1,27,4,1,106,2,7009,0,0.2021855,6.741405,1.651616,-1
19,M,0,1,27,5,1,107,3,3531,0,0.2113734,6.324646,1.829276,-1
19,M,0,1,27,6,1,108,4,2909,0,0.09625875,6.711289,0.7798419,-1
19,M,0,1,27,7,2,105,1,1487,0,0.2505923,12.46168,1.133669,-1
19,M,0,1,27,8,2,108,4,2198,0,0.6518993,12.4832,2.910537,-1
19,M,0,1,28,1,2,110,2,1353,0,0.2045166,12.55279,0.9164255,-1
19,M,0,1,28,2,2,112,4,2319,0,0.8184857,12.45779,3.700681,-1
19,M,0,1,28,3,2,109,1,1254,0,0.464663,12.46085,2.102172,-1
19,M,0,1,28,4,1,111,3,2342,0,0.4222306,6.326673,3.657948,-1
19,M,0,1,28,5,1,110,2,1353,0,0.02684691,6.732589,0.2193969,-1
19,M,0,1,28,6,1,112,4,2587,0,0.129445,6.7061,1.047919,-1
19,M,0,1,28,7,1,109,1,1498,0,1.00209E-07,6.395404,0,-1
19,M,0,1,28,8,2,111,3,1831,0,0.4995443,12.38737,2.265118,-1
19,M,0,1,29,1,2,113,1,1276,0,0.5296794,12.40006,2.406396,-1
19,M,0,1,29,2,2,115,3,2354,0,0.6478712,12.28703,2.949819,-1
19,M,0,1,29,3,2,114,2,731,0,0.6708939,12.45357,3.049537,-1
19,M,0,1,29,4,1,115,3,3309,2,0.04225197,6.254194,0.3700944,-1
19,M,0,1,29,5,1,113,1,1842,1,0.001359516,6.330859,0,-1
19,M,0,1,29,6,1,116,4,1998,0,0.08453964,6.621804,0.6946434,-1
19,M,0,1,29,7,1,114,2,4931,0,0.367098,6.632252,3.071285,-1
19,M,0,1,29,8,2,116,4,1965,0,0.80584,12.35489,3.687642,-1
19,M,0,1,30,1,1,117,1,4631,0,3.255998E-08,6.334537,0,-1
19,M,0,1,30,2,2,119,3,2965,1,0.5060028,12.32025,2.306814,-1
19,M,0,1,30,3,1,118,2,3131,0,1.256364E-07,6.646043,0,-1
19,M,0,1,30,4,2,117,1,1598,0,0.5630938,12.40919,2.559332,-1
19,M,0,1,30,5,2,120,4,2131,0,0.4607661,12.42918,2.085065,-1
19,M,0,1,30,6,2,118,2,953,0,0.3638928,12.44864,1.636977,-1
19,M,0,1,30,7,1,119,3,2765,0,0.3340815,6.260927,2.944505,-1
19,M,0,1,30,8,1,120,4,3331,0,0.02047891,6.618608,0.1690205,-1
19,M,0,1,31,1,2,121,1,1420,0,0.3714043,12.38301,1.68957,-1
19,M,0,1,31,2,1,124,4,2709,0,0.1391713,6.623994,1.141924,-1
19,M,0,1,31,3,1,123,3,3142,1,0.2420061,6.295213,2.104405,-1
19,M,0,1,31,4,1,122,2,1576,0,0.06295143,6.662148,0.518133,-1
19,M,0,1,31,5,1,121,1,1887,0,0.04539279,6.282376,0.3951527,-1
19,M,0,1,31,6,2,124,4,2687,0,0.6867234,12.39987,3.131066,-1
19,M,0,1,31,7,2,123,3,2109,0,1.039478,12.32129,4.778646,-1
19,M,0,1,31,8,2,122,2,987,0,0.2534224,12.4905,1.145347,-1
19,M,0,1,32,1,1,128,4,4031,0,5.673204E-08,6.611542,0,-1
19,M,0,1,32,2,1,125,1,4342,0,0.2756396,6.371777,2.365047,-1
19,M,0,1,32,3,2,127,3,2653,0,0.2969798,12.34604,1.349007,-1
19,M,0,1,32,4,1,126,2,4565,0,0.1205419,6.691839,0.9875455,-1
19,M,0,1,32,5,2,125,1,1642,0,0.9388505,12.42311,4.269071,-1
19,M,0,1,32,6,1,127,3,3209,0,0.4272419,6.283729,3.724363,-1
19,M,0,1,32,7,2,128,4,1876,0,0.7563439,12.43171,3.365518,-1
19,M,0,1,32,8,2,126,2,1120,0,0.1205828,12.51611,0.5435666,-1
19,M,0,1,33,1,1,129,1,1387,1,0.279065,6.381209,2.399391,-1
19,M,0,1,33,2,2,131,3,2131,0,0.9315167,12.35026,4.272143,-1
19,M,0,1,33,3,1,130,2,4798,0,0.06576659,6.688182,0.5406791,-1
19,M,0,1,33,4,2,129,1,1765,1,0.3122401,12.43839,1.4143,-1
19,M,0,1,33,5,1,131,3,3353,2,0.1911348,6.264195,1.668591,-1
19,M,0,1,33,6,1,132,4,1854,0,0.1166633,6.656227,0.9512104,-1
19,M,0,1,33,7,2,130,2,2687,0,0.5585817,12.50543,2.495754,-1
19,M,0,1,33,8,2,132,4,1043,0,0.005400893,12.39002,0.01978234,-1
19,M,0,1,34,1,1,134,2,1309,0,0.2830572,6.661745,2.307323,-1
19,M,0,1,34,2,2,133,1,1353,0,0.4876007,12.41783,2.217262,-1
19,M,0,1,34,3,2,134,2,1042,0,0.3702615,12.50133,1.676664,-1
19,M,0,1,34,4,1,135,3,1342,0,0.3835111,6.312898,3.325548,-1
19,M,0,1,34,5,2,136,4,1531,0,0.8031479,12.43403,3.65243,-1
19,M,0,1,34,6,2,135,3,3109,1,0.3236904,12.31937,1.482265,-1
19,M,0,1,34,7,1,136,4,2120,1,7.675192E-08,6.647593,0,-1
19,M,0,1,34,8,1,133,1,1165,0,0.2276141,6.294093,1.967022,-1
19,M,0,1,35,1,1,140,4,2254,0,2.858804E-07,6.642328,0,-1
19,M,0,1,35,2,1,138,2,5753,0,1.561592E-07,6.680142,0,-1
19,M,0,1,35,3,2,137,1,1320,0,0.9319646,12.47314,4.219372,-1
19,M,0,1,35,4,1,139,3,2564,1,0.004003926,6.368476,0.02797646,-1
19,M,0,1,35,5,1,137,1,1687,0,0.3318606,6.419785,2.825908,-1
19,M,0,1,35,6,2,138,2,1031,0,0.4845153,12.59118,2.180321,-1
19,M,0,1,35,7,2,140,4,2898,1,0.2810764,12.52022,1.25117,-1
19,M,0,1,35,8,2,139,3,2331,0,0.8138871,12.41775,3.719996,-1
19,M,0,1,37,1,3,146,2,4376,0,7.722142E-08,6.729449,0,-1
19,M,0,1,37,2,3,148,4,7376,0,0.557568,6.771693,4.44911,-1
19,M,0,1,37,3,3,147,3,2987,1,0.04807077,6.376918,0.4121198,-1
19,M,0,1,37,4,4,145,1,2398,1,0.1528036,12.06833,0.7132671,-1
19,M,0,1,37,5,4,146,2,9999,0,-1,-1,-1,-1
19,M,0,1,37,6,3,145,1,2065,0,2.736162E-08,6.189827,0,-1
19,M,0,1,37,7,4,148,4,9287,0,0.4819556,12.10083,2.246725,-1
19,M,0,1,37,8,4,147,3,4220,0,0.1848464,12.20239,0.8508785,-1
19,M,0,1,38,1,3,152,4,4987,1,0.1877049,6.355288,1.627145,-1
19,M,0,1,38,2,3,149,1,7298,0,2.025205E-07,6.419257,0,-1
19,M,0,1,38,3,3,150,2,1231,0,0.01514962,6.725474,0.1219466,-1
19,M,0,1,38,4,3,151,3,3487,0,0.412155,6.222506,3.635827,-1
19,M,0,1,38,5,4,150,2,6176,0,0.07035419,12.54326,0.315279,-1
19,M,0,1,38,6,4,151,3,2142,0,0.6170763,12.31013,2.815777,-1
19,M,0,1,38,7,4,149,1,1565,0,0.3673911,12.35633,1.674913,-1
19,M,0,1,38,8,4,152,4,8742,0,0.3041148,12.26962,1.397458,-1
19,M,0,1,39,1,4,153,1,1776,0,0.373322,12.37574,1.709377,-1
19,M,0,1,39,2,4,154,2,1053,0,1.02605,12.42879,4.676883,-1
19,M,0,1,39,3,4,155,3,1964,0,0.8136764,12.30786,3.729144,-1
19,M,0,1,39,4,4,156,4,9999,0,-1,-1,-1,-1
19,M,0,1,39,5,3,154,2,2798,0,1.14872E-07,6.632839,0,-1
19,M,0,1,39,6,3,155,3,5842,3,0.08643284,6.194362,0.7651502,-1
19,M,0,1,39,7,3,156,4,3165,0,0.3987237,6.593465,3.25564,-1
19,M,0,1,39,8,3,153,1,3876,0,0.1955743,6.407506,1.678181,-1
19,M,0,1,40,1,3,160,4,2787,0,0.05265624,6.595696,0.4379019,-1
19,M,0,1,40,2,4,157,1,5854,0,0.5003982,12.3908,2.269865,-1
19,M,0,1,40,3,4,158,2,1187,0,0.7348305,12.4799,3.354213,-1
19,M,0,1,40,4,3,159,3,3365,0,0.1489344,6.197753,1.31239,-1
19,M,0,1,40,5,3,158,2,5576,0,0.1991248,6.696362,1.650787,-1
19,M,0,1,40,6,4,159,3,2476,0,0.8525539,12.368,3.908609,-1
19,M,0,1,40,7,3,157,1,9999,1,-1,-1,-1,-1
19,M,0,1,40,8,4,160,4,3431,1,0.6448213,12.44204,2.907105,-1
19,M,0,1,41,1,1,161,1,1320,0,0.06259406,6.295825,0.5471546,-1
19,M,0,1,41,2,2,164,4,1686,0,0.7803196,12.36085,3.494296,-1
19,M,0,1,41,3,1,163,3,2442,2,9.119987E-08,6.24631,0,-1
19,M,0,1,41,4,1,164,4,5887,0,0.5236399,6.596243,4.309026,-1
19,M,0,1,41,5,2,163,3,2187,0,0.8553106,12.23555,3.966399,-1
19,M,0,1,41,6,2,162,2,920,0,0.2637799,12.42531,1.198936,-1
19,M,0,1,41,7,2,161,1,1176,0,0.1810535,12.33863,0.8275619,-1
19,M,0,1,41,8,1,162,2,1542,0,0.3275974,6.609824,2.690573,-1
19,M,0,1,42,1,2,168,4,1887,0,0.8404006,12.39127,3.748365,-1
19,M,0,1,42,2,2,166,2,3765,0,0.3212668,12.45701,1.456025,-1
19,M,0,1,42,3,1,167,3,2309,0,0.2733498,6.269032,2.383677,-1
19,M,0,1,42,4,1,166,2,1886,0,0.2301429,6.708,1.906083,-1
19,M,0,1,42,5,1,165,1,1420,0,0.5109549,6.32197,4.417565,-1
19,M,0,1,42,6,2,167,3,2887,0,0.7670888,12.35094,3.502075,-1
19,M,0,1,42,7,1,168,4,3098,0,1.28303E-07,6.650423,0,-1
19,M,0,1,42,8,2,165,1,3753,0,0.2861899,12.41266,1.299202,-1
19,M,0,1,43,1,2,170,2,1165,0,0.1671348,12.52025,0.749388,-1
19,M,0,1,43,2,1,169,1,1920,0,0.3708012,6.384624,3.188316,-1
19,M,0,1,43,3,1,171,3,2331,0,0.5078984,6.300438,4.420845,-1
19,M,0,1,43,4,2,169,1,1309,0,0.7701082,12.43601,3.493679,-1
19,M,0,1,43,5,2,172,4,2253,0,0.9082317,12.44693,4.103364,-1
19,M,0,1,43,6,2,171,3,2753,2,0.6470822,12.3463,2.969332,-1
19,M,0,1,43,7,1,172,4,2831,0,0.03553221,6.674,0.2900664,-1
19,M,0,1,43,8,1,170,2,1098,0,0.1596483,6.832066,1.287856,-1
19,M,0,1,44,1,1,175,3,2209,0,0.02925222,6.11134,0.2624426,-1
19,M,0,1,44,2,1,176,4,4909,0,0.01359814,6.467324,0.1136409,-1
19,M,0,1,44,3,2,174,2,1031,0,0.3107485,12.2295,1.429576,-1
19,M,0,1,44,4,1,173,1,1487,0,0.178766,6.100678,1.598754,-1
19,M,0,1,44,5,2,176,4,1787,0,0.1474327,12.217,0.6723125,-1
19,M,0,1,44,6,2,173,1,4398,0,0.4728898,12.15448,2.194548,-1
19,M,0,1,44,7,1,174,2,1776,0,0.3117206,6.432724,2.665062,-1
19,M,0,1,44,8,2,175,3,2842,0,0.6904647,12.14532,3.19255,-1
19,M,0,1,45,1,2,178,2,1176,0,0.1765138,12.23015,0.814213,-1
19,M,0,1,45,2,1,177,1,1476,0,1.078376E-07,6.096537,0,-1
19,M,0,1,45,3,1,178,2,1765,0,0.180701,6.43403,1.533401,-1
19,M,0,1,45,4,2,179,3,2965,1,0.9209528,12.14528,4.302794,-1
19,M,0,1,45,5,2,180,4,2709,0,0.8034295,12.23493,3.689553,-1
19,M,0,1,45,6,2,177,1,5142,0,0.426799,12.15539,1.98031,-1
19,M,0,1,45,7,1,180,4,4898,0,0.1975389,6.490135,1.657058,-1
19,M,0,1,45,8,1,179,3,7665,0,0.1320501,6.202681,1.164325,-1
19,M,0,1,46,1,2,181,1,1676,0,0.6572422,12.4256,2.979664,-1
19,M,0,1,46,2,1,182,2,1820,0,0.1129683,6.593749,0.9383693,-1
19,M,0,1,46,3,1,181,1,2287,0,0.3165287,6.358627,2.722395,-1
19,M,0,1,46,4,2,184,4,2487,0,0.1248177,12.44578,0.5623221,-1
19,M,0,1,46,5,2,183,3,2065,0,1.013654,12.38472,4.567847,-1
19,M,0,1,46,6,2,182,2,831,0,1.808392E-07,12.52831,0,-1
19,M,0,1,46,7,1,183,3,2454,0,0.4052926,6.33513,3.499055,-1
19,M,0,1,46,8,1,184,4,2053,0,0.1850456,6.615275,1.531996,-1
19,M,0,1,47,1,1,186,2,1009,1,0.12803,6.598541,1.062016,-1
19,M,0,1,47,2,1,185,1,1464,0,0.3825136,6.281089,3.327255,-1
19,M,0,1,47,3,2,186,2,3409,0,0.03910009,12.42722,0.1769387,-1
19,M,0,1,47,4,1,188,4,5398,0,0.1259916,6.646217,1.028886,-1
19,M,0,1,47,5,2,185,1,4342,0,3.318016E-08,12.40094,0,-1
19,M,0,1,47,6,2,187,3,3542,2,1.024903,12.33379,4.609722,-1
19,M,0,1,47,7,2,188,4,2087,0,0.4594803,12.42986,2.06156,-1
19,M,0,1,47,8,1,187,3,9575,1,0.254207,6.292576,2.210897,-1
19,M,0,1,48,1,2,189,1,6743,0,1.055592,12.43954,4.791869,-1
19,M,0,1,48,2,2,190,2,942,0,0.9692112,12.52135,4.4054,-1
19,M,0,1,48,3,1,192,4,3409,0,0.07369251,6.659999,0.6061952,-1
19,M,0,1,48,4,2,191,3,3120,1,0.3140473,12.35987,1.41347,-1
19,M,0,1,48,5,2,192,4,9976,0,0.5653715,12.42967,2.522588,-1
19,M,0,1,48,6,1,190,2,4742,0,0.2278536,6.662848,1.863511,-1
19,M,0,1,48,7,1,189,1,4642,3,0.01437711,6.307446,0.1235407,-1
19,M,0,1,48,8,1,191,3,2787,0,0.2089361,6.307638,1.810133,-1
19,M,0,1,49,1,1,193,1,2387,1,0.3182502,6.096013,2.849912,-1
19,M,0,1,49,2,1,196,4,2131,0,0.1217578,6.426743,1.025457,-1
19,M,0,1,49,3,1,194,2,3398,1,0.0139412,6.397244,0.1186941,-1
19,M,0,1,49,4,2,195,3,2153,0,0.5644241,12.47865,2.541604,-1
19,M,0,1,49,5,2,193,1,4154,0,0.616012,12.56191,2.769656,-1
19,M,0,1,49,6,1,195,3,3387,0,0.04213143,6.447202,0.3571801,-1
19,M,0,1,49,7,2,196,4,1842,0,0.1406258,12.53025,0.628073,-1
19,M,0,1,49,8,2,194,2,954,0,0.496116,12.55843,2.210454,-1
19,M,0,1,50,1,1,197,1,2109,1,0.139972,6.383805,1.196322,-1
19,M,0,1,50,2,2,199,3,2376,0,0.4109644,12.48085,1.848009,-1
19,M,0,1,50,3,1,200,4,2009,0,2.400059E-07,6.777875,0.01978234,-1
19,M,0,1,50,4,2,198,2,942,0,0.6067655,12.57081,2.700087,-1
19,M,0,1,50,5,2,197,1,1598,0,0.7073811,12.53675,3.181862,-1
19,M,0,1,50,6,1,198,2,5620,0,0.03474502,6.746623,0.2832403,-1
19,M,0,1,50,7,1,199,3,3520,0,7.416699E-08,6.437401,0,-1
19,M,0,1,50,8,2,200,4,2542,0,0.2178321,12.57926,0.9667184,-1
19,M,0,1,51,1,2,201,1,2309,1,0.4669055,12.50033,2.108029,-1
19,M,0,1,51,2,2,202,2,3998,0,0.8997547,12.56533,4.006728,-1
19,M,0,1,51,3,2,204,4,2365,0,0.4937364,12.55777,2.176098,-1
19,M,0,1,51,4,1,203,3,1842,0,0.4745431,6.450623,4.034054,-1
19,M,0,1,51,5,1,201,1,3287,3,0.5155982,6.363023,4.410155,-1
19,M,0,1,51,6,2,203,3,2042,0,0.2795128,12.4834,1.268566,-1
19,M,0,1,51,7,1,204,4,2220,0,0.4603503,6.772487,3.71204,-1
19,M,0,1,51,8,1,202,2,2520,1,0.3095902,6.720596,2.536053,-1
19,M,0,1,52,1,2,205,1,1298,0,1.626668E-07,12.10272,0,-1
19,M,0,1,52,2,1,206,2,4053,0,0.1505184,6.719061,1.224613,-1
19,M,0,1,52,3,2,207,3,2120,0,0.07350235,12.45937,0.3310224,-1
19,M,0,1,52,4,1,205,1,1820,0,8.879252E-08,6.389335,0,-1
19,M,0,1,52,5,1,208,4,1787,0,0.3119515,6.73617,2.537982,-1
19,M,0,1,52,6,2,206,2,942,0,0.4306138,12.56356,1.92071,-1
19,M,0,1,52,7,2,208,4,1753,0,0.2166219,12.55166,0.9669209,-1
19,M,0,1,52,8,1,207,3,1909,0,0.5239692,6.45821,4.45153,-1
19,M,0,1,53,1,2,209,1,4665,0,1.067311E-07,12.30736,0.01978234,-1
19,M,0,1,53,2,2,212,4,1498,0,0.3249514,12.32552,1.492528,-1
19,M,0,1,53,3,1,211,3,2087,0,6.025229E-08,6.202528,0,-1
19,M,0,1,53,4,1,212,4,3076,1,7.358894E-08,6.58114,0,-1
19,M,0,1,53,5,1,209,1,1465,0,0.1668642,6.326755,1.448344,-1
19,M,0,1,53,6,2,210,2,809,0,0.5748668,12.41614,2.589214,-1
19,M,0,1,53,7,2,211,3,1753,0,0.2203536,12.27561,1.006194,-1
19,M,0,1,53,8,1,210,2,1420,0,0.01949046,6.600918,0.1619255,-1
19,M,0,1,54,1,2,215,3,1809,0,0.4951247,12.28691,2.28362,-1
19,M,0,1,54,2,1,213,1,1598,0,7.96641E-08,6.302088,0,-1
19,M,0,1,54,3,1,215,3,1998,0,2.040027E-07,6.236726,0,-1
19,M,0,1,54,4,1,214,2,3431,0,0.1500695,6.613056,1.237646,-1
19,M,0,1,54,5,1,216,4,6653,0,0.1298028,6.589761,1.074836,-1
19,M,0,1,54,6,2,214,2,898,0,0.06061196,12.42892,0.2748253,-1
19,M,0,1,54,7,2,216,4,2353,0,0.1645982,12.35934,0.7420408,-1
19,M,0,1,54,8,2,213,1,1076,0,0.7479203,12.35795,3.410993,-1
19,M,0,1,55,1,1,220,4,3142,1,0.2084588,6.596501,1.71532,-1
19,M,0,1,55,2,2,219,3,4853,0,0.6891609,12.31277,3.160254,-1
19,M,0,1,55,3,1,217,1,1087,0,3.113662E-07,6.306657,0,-1
19,M,0,1,55,4,1,218,2,1265,0,0.01908327,6.62122,0.1582588,-1
19,M,0,1,55,5,2,220,4,2320,0,0.419925,12.37699,1.896098,-1
19,M,0,1,55,6,1,219,3,2942,0,1.366758E-07,6.266755,0,-1
19,M,0,1,55,7,2,217,1,1209,0,0.24024,12.36564,1.099851,-1
19,M,0,1,55,8,2,218,2,1365,0,0.2545908,12.43673,1.15233,-1
19,M,0,1,56,1,1,221,1,1820,0,1.326873E-07,6.301941,0,-1
19,M,0,1,56,2,2,224,4,1619,0,0.4466302,12.38047,2.041047,-1
19,M,0,1,56,3,2,222,2,809,0,0.2783816,12.43725,1.254294,-1
19,M,0,1,56,4,1,223,3,1720,0,0.006441981,6.264096,0.05595291,-1
19,M,0,1,56,5,2,221,1,1276,0,0.2888629,12.3655,1.323821,-1
19,M,0,1,56,6,1,224,4,1876,0,0.1757645,6.607844,1.456428,-1
19,M,0,1,56,7,1,222,2,4387,0,0.08483337,6.62853,0.7066523,-1
19,M,0,1,56,8,2,223,3,2009,0,0.4203021,12.29952,1.936237,-1
19,M,0,1,57,1,3,226,2,1453,0,0.11691,6.595699,0.9646922,-1
19,M,0,1,57,2,3,225,1,1409,0,0.2166228,6.348296,1.87273,-1
19,M,0,1,57,3,3,227,3,1709,0,0.09497321,6.264672,0.8221055,-1
19,M,0,1,57,4,4,226,2,1064,0,0.08361345,12.44474,0.3774237,-1
19,M,0,1,57,5,4,225,1,4609,0,0.2844982,12.38352,1.301309,-1
19,M,0,1,57,6,3,228,4,3653,1,0.1553554,6.611415,1.299654,-1
19,M,0,1,57,7,4,227,3,2009,0,0.5788722,12.31059,2.664915,-1
19,M,0,1,57,8,4,228,4,3331,0,1.703986E-07,12.4134,0,-1
19,M,0,1,58,1,4,231,3,2676,0,0.6479988,12.31885,2.984784,-1
19,M,0,1,58,2,4,232,4,1876,0,0.4529271,12.40032,2.057379,-1
19,M,0,1,58,3,3,229,1,1520,0,5.996613E-08,6.351131,0,-1
19,M,0,1,58,4,3,230,2,3498,0,0.3307998,6.625281,2.71887,-1
19,M,0,1,58,5,4,229,1,2209,1,0.4792717,12.30035,2.195885,-1
19,M,0,1,58,6,3,231,3,4309,0,0.3158664,6.249033,2.790919,-1
19,M,0,1,58,7,3,232,4,2131,0,0.02366515,6.617826,0.1968319,-1
19,M,0,1,58,8,4,230,2,1520,0,0.3916921,12.42755,1.76414,-1
19,M,0,1,59,1,4,233,1,1387,0,0.004417393,12.28206,0.01978234,-1
19,M,0,1,59,2,3,234,2,1898,0,0.3150995,6.61829,2.620623,-1
19,M,0,1,59,3,3,235,3,8476,0,0.1352124,6.243733,1.192061,-1
19,M,0,1,59,4,4,236,4,1498,0,0.09129205,12.39208,0.4121198,-1
19,M,0,1,59,5,3,233,1,965,0,0.02612083,6.312597,0.2272819,-1
19,M,0,1,59,6,3,236,4,2976,1,0.2378987,6.620665,1.944608,-1
19,M,0,1,59,7,4,235,3,3020,0,0.09746342,12.29065,0.4463111,-1
19,M,0,1,59,8,4,234,2,1098,0,0.1985887,12.43589,0.901789,-1
19,M,0,1,60,1,4,240,4,2898,0,0.6494823,12.39026,2.967089,-1
19,M,0,1,60,2,3,238,2,1420,0,0.06187546,6.621268,0.5116726,-1
19,M,0,1,60,3,3,237,1,4986,0,0.01492065,6.344047,0.1297215,-1
19,M,0,1,60,4,4,239,3,2353,0,0.1161227,12.33017,0.5319225,-1
19,M,0,1,60,5,4,238,2,676,0,0.617139,12.3793,2.775868,-1
19,M,0,1,60,6,3,239,3,7098,0,0.1357964,6.236826,1.198447,-1
19,M,0,1,60,7,3,240,4,1965,0,0.111807,6.597529,0.9189842,-1
19,M,0,1,60,8,4,237,1,2387,0,0.1019669,12.29101,0.4660423,-1
19,M,0,1,61,1,1,244,4,3531,1,0.2678019,6.599955,2.204247,-1
19,M,0,1,61,2,2,241,1,1087,0,0.243087,12.37251,1.111355,-1
19,M,0,1,61,3,2,244,4,1720,0,0.04133572,12.37933,0.1866263,-1
19,M,0,1,61,4,1,241,1,1631,0,1.914106E-07,6.291807,0,-1
19,M,0,1,61,5,1,243,3,2531,0,0.3383557,6.23112,2.967221,-1
19,M,0,1,61,6,1,242,2,1198,0,6.530868E-08,6.61331,0,-1
19,M,0,1,61,7,2,243,3,1942,0,0.06004277,12.28071,0.2741124,-1
19,M,0,1,61,8,2,242,2,987,0,5.287827E-08,12.42249,0,-1
19,M,0,1,62,1,2,245,1,1298,0,0.7367481,12.34028,3.400703,-1
19,M,0,1,62,2,1,247,3,2298,0,0.3992753,6.275938,3.481047,-1
19,M,0,1,62,3,1,248,4,2086,0,0.3039639,6.597958,2.522898,-1
19,M,0,1,62,4,2,246,2,820,0,0.1667981,12.4385,0.7519946,-1
19,M,0,1,62,5,1,245,1,4098,0,1.089381E-07,6.315399,0.01978234,-1
19,M,0,1,62,6,2,247,3,2320,0,3.862692E-07,12.29202,0.01978234,-1
19,M,0,1,62,7,1,246,2,4976,1,0.2238291,6.629353,1.843662,-1
19,M,0,1,62,8,2,248,4,2598,0,0.426673,12.39563,1.947926,-1
19,M,0,1,1,1,5,3,3,7263,0,2.833072,6.322502,26.62144,-1
19,M,0,1,1,2,8,1,1,7453,0,0.4620059,12.38903,2.114333,-1
19,M,0,1,1,3,7,2,2,1398,0,0.5449897,6.623153,4.495621,-1
19,M,0,1,1,4,7,4,4,8842,0,3.601457,6.598091,32.72573,-1
19,M,0,1,1,5,7,1,1,8131,0,5.991426,6.434801,68.60653,-1
19,M,0,1,1,6,5,2,2,8209,0,0.7777428,6.653994,6.445946,-1
19,M,0,1,1,7,6,4,4,6887,0,4.700323,12.40118,22.0412,-1
19,M,0,1,1,8,6,1,1,4553,0,6.596174,12.42218,32.07304,-1
19,M,0,1,1,9,6,2,2,6387,0,9.080735,12.49957,46.59241,-1
19,M,0,1,1,10,6,3,3,11287,0,3.26921,12.36282,15.33363,-1
19,M,0,1,1,11,8,2,2,10286,0,3.111627,12.44709,14.36623,-1
19,M,0,1,1,12,5,1,1,9153,0,5.698614,6.405022,62.83685,-1
19,M,0,1,1,13,8,3,3,7053,0,0.3999199,12.32581,1.827885,-1
19,M,0,1,1,14,8,4,4,10176,0,3.233434,12.41052,14.60028,-1
19,M,0,1,1,15,7,3,3,4442,0,4.862703,6.391026,49.54044,-1
19,M,0,1,1,16,5,4,4,2042,0,0.1295095,6.639888,1.058509,-1
19,M,0,1,2,1,6,3,3,2153,0,7.707805,12.37591,38.52139,-1
19,M,0,1,2,2,6,4,4,6476,0,5.557767,12.40083,26.34312,-1
19,M,0,1,2,3,8,2,2,1242,0,0.4080015,12.45529,1.841963,-1
19,M,0,1,2,4,6,1,1,1020,0,4.318481,12.43675,20.27149,-1
19,M,0,1,2,5,7,4,4,965,0,3.218206,6.618781,27.43368,-1
19,M,0,1,2,6,7,2,2,831,0,1.66927,6.622865,13.66852,-1
19,M,0,1,2,7,5,4,4,2642,0,0.2309353,6.639426,1.904851,-1
19,M,0,1,2,8,8,1,1,742,0,3.575052,12.42537,16.72163,-1
19,M,0,1,2,9,5,3,3,1965,0,2.849766,6.334292,26.73694,-1
19,M,0,1,2,10,6,2,2,1065,0,0.08602314,12.48887,0.3876539,-1
19,M,0,1,2,11,5,1,1,1109,0,3.30088,6.384409,30.10583,-1
19,M,0,1,2,12,7,3,3,709,0,5.166231,6.374969,54.13433,-1
19,M,0,1,2,13,8,4,4,1176,0,2.058254,12.42469,9.395321,-1
19,M,0,1,2,14,8,3,3,931,0,3.851879,12.3597,17.62802,-1
19,M,0,1,2,15,5,2,2,909,0,1.162153,6.656001,9.654778,-1
19,M,0,1,2,16,7,1,1,1086,0,2.632663,6.425127,23.21048,-1
