Age, Gender, Awareness Type, Session, Block, Trial, Set, Pattern, Quadrant, Response Time, Num Mistakes, Distance From Target, Camera Distance From Target, Angle Error (Degrees), FC Response
19,F,0,1,1,1,2,4,4,3431,0,0.1505458,12.45448,0.680988,-1
19,F,0,1,1,2,1,3,3,3187,0,4.248813E-08,6.304024,0,-1
19,F,0,1,1,3,1,2,2,1942,0,0.5507728,6.585094,4.487379,-1
19,F,0,1,1,4,1,4,4,4720,1,0.08791292,6.578896,0.7271236,-1
19,F,0,1,1,5,2,2,2,4220,0,0.3669582,12.5153,1.638889,-1
19,F,0,1,1,6,1,1,1,2687,0,0.02031398,6.315318,0.174713,-1
19,F,0,1,1,7,2,3,3,3209,0,0.1228687,12.25482,0.564406,-1
19,F,0,1,1,8,2,1,1,2087,0,0.4340013,12.33617,1.989676,-1
19,F,0,1,2,1,2,7,3,5421,0,0.2265194,12.25056,1.038917,-1
19,F,0,1,2,2,1,6,2,2753,0,0.1939648,6.585225,1.604009,-1
19,F,0,1,2,3,1,5,1,2009,0,0.3588434,6.316021,3.091678,-1
19,F,0,1,2,4,2,6,2,4420,0,0.5247251,12.54017,2.334981,-1
19,F,0,1,2,5,2,5,1,3964,0,0.004111741,12.33597,0.01978234,-1
19,F,0,1,2,6,2,8,4,4531,0,0.6057487,12.45934,2.712455,-1
19,F,0,1,2,7,1,7,3,7209,2,0.4311112,6.284179,3.815826,-1
19,F,0,1,2,8,1,8,4,6675,2,0.02648431,6.57217,0.220287,-1
19,F,0,1,3,1,2,9,1,2809,0,0.6568868,12.33013,3.023038,-1
19,F,0,1,3,2,1,10,2,4076,0,0.3612571,6.524833,3.015192,-1
19,F,0,1,3,3,1,11,3,5009,0,0.4773125,6.288249,4.141559,-1
19,F,0,1,3,4,2,12,4,8909,6,0.9524801,12.42985,4.316792,-1
19,F,0,1,3,5,2,11,3,3176,0,0.1549908,12.20126,0.7129927,-1
19,F,0,1,3,6,1,9,1,4609,0,0.05150682,6.267682,0.4493696,-1
19,F,0,1,3,7,1,12,4,9709,5,3.995258E-07,6.550575,0,-1
19,F,0,1,3,8,2,10,2,5853,0,0.8915955,12.47184,3.979559,-1
19,F,0,1,4,1,1,13,1,2497,0,0.3952404,6.26907,3.454001,-1
19,F,0,1,4,2,2,15,3,3631,0,0.9888639,12.20009,4.601088,-1
19,F,0,1,4,3,2,14,2,6398,1,0.156839,12.47329,0.7063754,-1
19,F,0,1,4,4,1,16,4,5231,0,0.3019506,6.539458,2.529639,-1
19,F,0,1,4,5,2,13,1,5842,0,0.3345105,12.28133,1.534676,-1
19,F,0,1,4,6,2,16,4,3509,0,0.3706042,12.41419,1.667418,-1
19,F,0,1,4,7,1,15,3,3720,0,0.3453833,6.284485,2.994606,-1
19,F,0,1,4,8,1,14,2,2831,1,1.318029E-07,6.539001,0,-1
19,F,0,1,5,1,1,20,4,4886,0,0.3318687,6.554572,2.72333,-1
19,F,0,1,5,2,2,17,1,2231,0,0.05095904,12.31231,0.2315465,-1
19,F,0,1,5,3,1,18,2,1709,0,0.206725,6.590174,1.708575,-1
19,F,0,1,5,4,1,17,1,4609,1,0.3004437,6.305339,2.626219,-1
19,F,0,1,5,5,2,18,2,4320,0,0.04753165,12.50037,0.2130625,-1
19,F,0,1,5,6,1,19,3,4309,0,0.2336006,6.265615,2.048131,-1
19,F,0,1,5,7,2,20,4,3553,0,0.6451216,12.40725,2.915241,-1
19,F,0,1,5,8,2,19,3,1565,0,0.1263604,12.21911,0.5801346,-1
19,F,0,1,6,1,2,24,4,2454,0,0.3309743,12.42198,1.488589,-1
19,F,0,1,6,2,1,22,2,2853,0,0.001050075,6.585822,0,-1
19,F,0,1,6,3,1,24,4,2975,0,1.460842E-07,6.561804,0,-1
19,F,0,1,6,4,2,23,3,3465,0,0.290634,12.20764,1.338668,-1
19,F,0,1,6,5,1,21,1,2820,0,8.817027E-08,6.318021,0,-1
19,F,0,1,6,6,1,23,3,3987,0,0.2089646,6.273858,1.828955,-1
19,F,0,1,6,7,2,21,1,1765,0,0.339406,12.31017,1.557334,-1
19,F,0,1,6,8,2,22,2,3509,0,1.070516E-07,12.49909,0,-1
19,F,0,1,7,1,1,27,3,3131,0,0.1871394,6.272669,1.637216,-1
19,F,0,1,7,2,1,26,2,3565,0,0.07535162,6.59176,0.6221254,-1
19,F,0,1,7,3,2,25,1,1609,0,0.2968513,12.30665,1.361281,-1
19,F,0,1,7,4,1,28,4,3853,0,0.1580669,6.563989,1.305363,-1
19,F,0,1,7,5,2,27,3,9999,0,-1,-1,-1,-1
19,F,0,1,7,6,2,26,2,3754,0,1.700606E-08,12.50298,0,-1
19,F,0,1,7,7,2,28,4,3864,0,0.3227135,12.41416,1.456562,-1
19,F,0,1,7,8,1,25,1,2998,0,0.1958066,6.321788,1.695929,-1
19,F,0,1,8,1,2,31,3,2765,0,1.778993E-07,12.21666,0,-1
19,F,0,1,8,2,2,30,2,1387,0,0.8285569,12.51398,3.755358,-1
19,F,0,1,8,3,2,32,4,2731,0,0.2521581,12.4075,1.14944,-1
19,F,0,1,8,4,2,29,1,1587,0,0.7114954,12.29351,3.257383,-1
19,F,0,1,8,5,1,31,3,3131,1,0.07386681,6.258916,0.6437659,-1
19,F,0,1,8,6,1,30,2,2187,0,0.3319792,6.579518,2.71959,-1
19,F,0,1,8,7,1,29,1,1742,0,0.3829226,6.301702,3.333663,-1
19,F,0,1,8,8,1,32,4,3465,1,9.01113E-08,6.555942,0,-1
19,F,0,1,9,1,2,34,2,3187,0,0.6839265,12.49379,3.050114,-1
19,F,0,1,9,2,1,36,4,4819,0,0.02353916,6.567965,0.1958353,-1
19,F,0,1,9,3,2,35,3,3031,0,0.2202041,12.19746,1.011431,-1
19,F,0,1,9,4,2,33,1,1454,0,0.3437991,12.29888,1.569476,-1
19,F,0,1,9,5,1,34,2,2220,0,0.1443171,6.586153,1.18795,-1
19,F,0,1,9,6,1,33,1,1787,0,0.4332593,6.312462,3.739055,-1
19,F,0,1,9,7,1,35,3,4887,0,0.3427389,6.261299,2.98439,-1
19,F,0,1,9,8,2,36,4,3276,0,0.4896399,12.41073,2.223432,-1
19,F,0,1,10,1,1,37,1,2276,0,0.3584057,6.310429,3.093451,-1
19,F,0,1,10,2,2,38,2,1598,0,0.6432851,12.49466,2.869217,-1
19,F,0,1,10,3,2,40,4,2087,0,0.9695105,12.40995,4.354242,-1
19,F,0,1,10,4,2,37,1,1331,0,0.5664678,12.30164,2.585432,-1
19,F,0,1,10,5,1,39,3,4831,0,0.263669,6.257321,2.296866,-1
19,F,0,1,10,6,1,38,2,2509,0,0.1176216,6.587707,0.9725708,-1
19,F,0,1,10,7,2,39,3,9999,2,-1,-1,-1,-1
19,F,0,1,10,8,1,40,4,7487,0,0.04852131,6.573279,0.4044518,-1
19,F,0,1,11,1,2,43,3,2020,0,0.0703238,12.23798,0.3220336,-1
19,F,0,1,11,2,1,41,1,1620,0,0.503782,6.263525,4.421554,-1
19,F,0,1,11,3,1,43,3,2853,0,0.2444,6.335147,2.100961,-1
19,F,0,1,11,4,1,42,2,1798,0,0.2685772,6.535204,2.222375,-1
19,F,0,1,11,5,1,44,4,1642,0,0.5101169,6.573767,4.194746,-1
19,F,0,1,11,6,2,41,1,1987,0,0.03958738,12.32078,0.1813082,-1
19,F,0,1,11,7,2,44,4,6719,0,0.7959001,12.46009,3.617038,-1
19,F,0,1,11,8,2,42,2,2931,0,0.3357215,12.50307,1.520971,-1
19,F,0,1,12,1,1,48,4,4620,0,0.1282722,6.588755,1.070458,-1
19,F,0,1,12,2,1,45,1,1754,0,0.5225977,6.278028,4.578469,-1
19,F,0,1,12,3,2,46,2,1276,0,0.6059815,12.49667,2.71296,-1
19,F,0,1,12,4,2,48,4,2709,0,0.4543008,12.46893,2.029798,-1
19,F,0,1,12,5,2,47,3,2753,1,0.9682194,12.25863,4.472294,-1
19,F,0,1,12,6,1,46,2,1687,0,0.2821243,6.546724,2.322879,-1
19,F,0,1,12,7,2,45,1,1576,0,0.3549652,12.32434,1.616768,-1
19,F,0,1,12,8,1,47,3,2520,0,0.01191378,6.353306,0.1027921,-1
19,F,0,1,13,1,2,52,4,2376,0,0.6885341,12.46384,3.078035,-1
19,F,0,1,13,2,1,50,2,4786,0,0.3720418,6.550796,3.092312,-1
19,F,0,1,13,3,2,51,3,2653,0,0.9168009,12.26692,4.200112,-1
19,F,0,1,13,4,1,49,1,1753,0,0.4147841,6.281775,3.605272,-1
19,F,0,1,13,5,2,50,2,4887,0,0.9905695,12.49807,4.412863,-1
19,F,0,1,13,6,1,52,4,4198,1,0.5117767,6.588152,4.200532,-1
19,F,0,1,13,7,1,51,3,3286,2,0.3909836,6.354752,3.347494,-1
19,F,0,1,13,8,2,49,1,1531,0,0.3352711,12.31991,1.53697,-1
19,F,0,1,14,1,1,54,2,1831,0,0.2451833,6.546641,2.025357,-1
19,F,0,1,14,2,1,55,3,3698,0,0.4869424,6.361139,4.174106,-1
19,F,0,1,14,3,2,56,4,3242,0,0.6912874,12.47191,3.088384,-1
19,F,0,1,14,4,2,54,2,1198,0,0.4619817,12.50885,2.06232,-1
19,F,0,1,14,5,1,56,4,4142,0,0.1411774,6.597291,1.180515,-1
19,F,0,1,14,6,2,53,1,1687,0,0.3753279,12.33587,1.708231,-1
19,F,0,1,14,7,2,55,3,2831,0,0.5877374,12.27767,2.71231,-1
19,F,0,1,14,8,1,53,1,2487,0,0.3440935,6.280905,3.001918,-1
19,F,0,1,15,1,2,60,4,2697,0,0.7685913,12.48382,3.486161,-1
19,F,0,1,15,2,1,57,1,1920,0,0.356105,6.282622,3.100972,-1
19,F,0,1,15,3,2,58,2,1331,0,0.09209687,12.51734,0.4135417,-1
19,F,0,1,15,4,2,59,3,2954,0,0.7949342,12.27693,3.669918,-1
19,F,0,1,15,5,1,58,2,2620,1,0.1654302,6.547999,1.370308,-1
19,F,0,1,15,6,1,60,4,2120,0,0.3687523,6.596529,3.021678,-1
19,F,0,1,15,7,1,59,3,3786,0,0.05108628,6.375122,0.4370072,-1
19,F,0,1,15,8,2,57,1,2942,0,0.3005912,12.33328,1.370593,-1
19,F,0,1,16,1,2,62,2,1142,0,0.1051697,12.52104,0.4731261,-1
19,F,0,1,16,2,1,61,1,3554,0,0.2448068,6.285409,2.131665,-1
19,F,0,1,16,3,1,64,4,2242,0,0.4117284,6.557098,3.382809,-1
19,F,0,1,16,4,1,62,2,2309,1,0.3010476,6.528337,2.5071,-1
19,F,0,1,16,5,1,63,3,6064,4,0.4309264,6.249605,3.797462,-1
19,F,0,1,16,6,2,61,1,3809,0,0.7932444,12.28555,3.629899,-1
19,F,0,1,16,7,2,64,4,4120,1,0.7625152,12.43381,3.453547,-1
19,F,0,1,16,8,2,63,3,3709,1,0.4220919,12.23242,1.944407,-1
19,F,0,1,17,1,4,68,4,3453,0,0.4701799,12.44373,2.108308,-1
19,F,0,1,17,2,4,67,3,1320,0,0.5314723,12.21496,2.46839,-1
19,F,0,1,17,3,3,66,2,2842,0,0.4323542,6.518841,3.611404,-1
19,F,0,1,17,4,4,65,1,2409,1,0.2698893,12.32438,1.235906,-1
19,F,0,1,17,5,3,67,3,5920,0,0.3348772,6.308471,2.915644,-1
19,F,0,1,17,6,4,66,2,3276,0,0.1081817,12.4599,0.4857778,-1
19,F,0,1,17,7,3,65,1,2931,0,0.2987064,6.266576,2.599324,-1
19,F,0,1,17,8,3,68,4,4565,1,0.1161952,6.559313,0.9707584,-1
19,F,0,1,18,1,4,69,1,6187,0,0.8862426,12.27765,4.069386,-1
19,F,0,1,18,2,4,70,2,1076,0,0.3138428,12.45077,1.415269,-1
19,F,0,1,18,3,3,72,4,3242,0,0.2436198,6.539788,2.01081,-1
19,F,0,1,18,4,3,69,1,3698,0,0.2078599,6.235847,1.813049,-1
19,F,0,1,18,5,3,71,3,3719,0,0.407216,6.320272,3.549886,-1
19,F,0,1,18,6,4,72,4,1753,0,0.2683442,12.42307,1.200078,-1
19,F,0,1,18,7,4,71,3,1198,0,0.5153688,12.24072,2.338499,-1
19,F,0,1,18,8,3,70,2,2565,0,1.024419E-07,6.521454,0,-1
19,F,0,1,19,1,3,76,4,5109,0,0.1418703,6.553178,1.195013,-1
19,F,0,1,19,2,4,75,3,6831,0,0.817299,12.21921,3.784238,-1
19,F,0,1,19,3,4,76,4,1353,0,0.4609728,12.43052,2.06213,-1
19,F,0,1,19,4,4,74,2,2120,1,0.6084099,12.45818,2.778054,-1
19,F,0,1,19,5,3,75,3,4576,1,0.5268812,6.299369,4.597298,-1
19,F,0,1,19,6,3,73,1,5165,0,0.4163331,6.230586,3.636204,-1
19,F,0,1,19,7,3,74,2,4575,0,0.04198863,6.504964,0.3522151,-1
19,F,0,1,19,8,4,73,1,1709,0,0.1822043,12.25606,0.8332174,-1
19,F,0,1,20,1,3,78,2,4687,0,0.03792451,6.502444,0.3177519,-1
19,F,0,1,20,2,4,77,1,1787,0,6.578711E-08,12.28214,0,-1
19,F,0,1,20,3,3,80,4,6531,1,0.08654644,6.543281,0.7263159,-1
19,F,0,1,20,4,3,77,1,2209,0,0.2595592,6.240009,2.262956,-1
19,F,0,1,20,5,4,78,2,2665,0,0.6989601,12.43777,3.128752,-1
19,F,0,1,20,6,3,79,3,2731,0,0.3797151,6.296779,3.307544,-1
19,F,0,1,20,7,4,80,4,6108,0,0.2106521,12.43109,0.9458466,-1
19,F,0,1,20,8,4,79,3,4120,0,0.5545272,12.18263,2.578153,-1
19,F,0,1,20,1,2,77,1,3898,0,0.9126267,12.28697,4.188158,-1
19,F,0,1,20,2,2,80,4,2076,0,0.2181504,12.43432,0.9809847,-1
19,F,0,1,20,3,2,78,2,3598,0,0.2589685,12.47105,1.163652,-1
19,F,0,1,20,4,1,79,3,4120,1,0.5088714,6.33665,4.386062,-1
19,F,0,1,20,5,1,80,4,3765,1,0.07511711,6.554745,0.6236961,-1
19,F,0,1,20,6,1,78,2,2664,1,1.557151E-07,6.50698,0,-1
19,F,0,1,20,7,1,77,1,5309,0,0.390058,6.244268,3.426399,-1
19,F,0,1,20,8,2,79,3,3753,1,0.4678847,12.23318,2.166724,-1
19,F,0,1,21,1,1,84,4,2786,1,9.664176E-08,6.559177,0,-1
19,F,0,1,21,2,1,83,3,2820,0,0.4971431,6.339067,4.28336,-1
19,F,0,1,21,3,2,84,4,7053,0,0.7899379,12.44372,3.582061,-1
19,F,0,1,21,4,1,82,2,4820,0,2.170847E-07,6.523721,0,-1
19,F,0,1,21,5,2,81,1,2120,0,0.2284713,12.28465,1.048665,-1
19,F,0,1,21,6,2,83,3,3442,1,0.9320887,12.23835,4.28368,-1
19,F,0,1,21,7,2,82,2,4376,1,3.145893E-08,12.54427,0.01978234,-1
19,F,0,1,21,8,1,81,1,6375,0,0.08168853,6.460787,0.6921035,-1
19,F,0,1,22,1,1,88,4,3631,0,0.3308136,6.708984,2.683798,-1
19,F,0,1,22,2,2,87,3,4397,0,0.7284091,12.40226,3.279068,-1
19,F,0,1,22,3,1,85,1,1831,1,0.4241997,6.415543,3.6418,-1
19,F,0,1,22,4,2,86,2,7275,0,0.0233509,12.66036,0.1027921,-1
19,F,0,1,22,5,2,85,1,2442,0,0.3173019,12.47664,1.428481,-1
19,F,0,1,22,6,1,87,3,7319,0,0.1406632,6.434537,1.198283,-1
19,F,0,1,22,7,1,86,2,2863,0,0.0929966,6.705996,0.7548515,-1
19,F,0,1,22,8,2,88,4,2653,0,0.9694244,12.61272,4.2856,-1
19,F,0,1,23,1,1,91,3,5476,2,0.1209184,6.421445,1.038917,-1
19,F,0,1,23,2,2,92,4,1542,0,0.9212509,12.61233,4.072369,-1
19,F,0,1,23,3,1,90,2,3298,0,0.2419451,6.703329,1.961343,-1
19,F,0,1,23,4,1,89,1,4220,1,0.06028765,6.421357,0.5143426,-1
19,F,0,1,23,5,1,92,4,3665,0,0.1980391,6.729389,1.620516,-1
19,F,0,1,23,6,2,91,3,2019,1,0.2122856,12.3786,0.962255,-1
19,F,0,1,23,7,2,90,2,5620,0,0.8993327,12.6684,3.953987,-1
19,F,0,1,23,8,2,89,1,1598,0,0.3601325,12.48744,1.621361,-1
19,F,0,1,24,1,2,94,2,1998,0,0.8492561,12.67875,3.730614,-1
19,F,0,1,24,2,1,95,3,5709,0,0.0177375,6.311566,0.1557664,-1
19,F,0,1,24,3,1,96,4,3042,0,0.1057003,6.720356,0.8561515,-1
19,F,0,1,24,4,2,93,1,1231,0,0.6821548,12.49361,3.065927,-1
19,F,0,1,24,5,2,95,3,2542,0,0.8729991,12.39567,3.95478,-1
19,F,0,1,24,6,1,94,2,3687,1,0.1217767,6.740338,0.9960293,-1
19,F,0,1,24,7,2,96,4,4687,0,0.9868276,12.59917,4.423547,-1
19,F,0,1,24,8,1,93,1,4076,1,0.02595792,6.455396,0.220287,-1
19,F,0,1,25,1,1,100,4,2944,0,0.1508887,6.738361,1.216114,-1
19,F,0,1,25,2,1,97,1,2065,1,0.02243533,6.367727,0.1928145,-1
19,F,0,1,25,3,1,99,3,2487,0,0.1981071,6.506856,1.66201,-1
19,F,0,1,25,4,2,98,2,3486,0,0.007006385,12.66636,0.02797646,-1
19,F,0,1,25,5,2,100,4,1320,0,0.3685564,12.63692,1.629668,-1
19,F,0,1,25,6,2,97,1,1409,0,0.3157485,12.48141,1.421202,-1
19,F,0,1,25,7,2,99,3,2398,0,0.5707279,12.43369,2.574279,-1
19,F,0,1,25,8,1,98,2,9642,0,0.2279641,6.681261,1.893206,-1
19,F,0,1,26,1,1,101,1,5087,1,0.3589179,6.353886,3.122426,-1
19,F,0,1,26,2,1,102,2,3609,0,0.3495558,6.675774,2.830546,-1
19,F,0,1,26,3,2,103,3,4798,2,0.9270372,12.43601,4.226607,-1
19,F,0,1,26,4,2,104,4,9120,0,0.1778033,12.621,0.7917944,-1
19,F,0,1,26,5,2,102,2,3964,0,0.1549671,12.66483,0.6858553,-1
19,F,0,1,26,6,1,103,3,3398,1,0.4583365,6.473486,3.863408,-1
19,F,0,1,26,7,1,104,4,2798,0,1.718278E-07,6.747541,0,-1
19,F,0,1,26,8,2,101,1,1642,0,0.5477811,12.47457,2.470609,-1
19,F,0,1,27,1,2,106,2,6053,0,0.4230529,12.67211,1.893826,-1
19,F,0,1,27,2,1,108,4,3398,1,0.05170426,6.744666,0.4210443,-1
19,F,0,1,27,3,1,106,2,9020,0,1.140886E-07,6.607256,0,-1
19,F,0,1,27,4,2,107,3,2609,0,0.2077508,12.36502,0.9475003,-1
19,F,0,1,27,5,2,105,1,2220,1,0.4897784,12.39192,2.23922,-1
19,F,0,1,27,6,2,108,4,2642,0,0.1989266,12.58371,0.8853652,-1
19,F,0,1,27,7,1,107,3,5198,0,0.02712767,6.454955,0.2298502,-1
19,F,0,1,27,8,1,105,1,4365,0,0.3887816,6.29143,3.361618,-1
19,F,0,1,28,1,1,112,4,3642,0,0.3705727,6.714281,3.042532,-1
19,F,0,1,28,2,1,111,3,3920,0,0.2879465,6.466579,2.431882,-1
19,F,0,1,28,3,1,109,1,2065,0,0.01818751,6.29201,0.1582588,-1
19,F,0,1,28,4,1,110,2,2098,0,0.5277151,6.604736,4.353072,-1
19,F,0,1,28,5,2,109,1,1665,0,0.5966834,12.39651,2.704071,-1
19,F,0,1,28,6,2,111,3,2542,0,0.1377677,12.36549,0.6268256,-1
19,F,0,1,28,7,2,110,2,1375,0,0.339391,12.60136,1.512714,-1
19,F,0,1,28,8,2,112,4,2698,0,0.32474,12.57845,1.447398,-1
19,F,0,1,29,1,2,114,2,3853,0,1.0301E-07,12.59575,0,-1
19,F,0,1,29,2,1,115,3,2342,0,0.447313,6.46711,3.779008,-1
19,F,0,1,29,3,2,116,4,3676,0,0.09386102,12.58349,0.4182466,-1
19,F,0,1,29,4,2,115,3,2353,0,0.57128,12.365,2.608045,-1
19,F,0,1,29,5,2,113,1,1298,0,1.003414,12.40743,4.55079,-1
19,F,0,1,29,6,1,114,2,1742,0,0.5586722,6.612981,4.524112,-1
19,F,0,1,29,7,1,116,4,3709,0,0.1653872,6.688559,1.341005,-1
19,F,0,1,29,8,1,113,1,2042,0,0.420568,6.301605,3.631355,-1
19,F,0,1,30,1,2,120,4,4220,1,0.8074526,12.57806,3.61563,-1
19,F,0,1,30,2,1,119,3,3109,0,0.06740577,6.460864,0.5730078,-1
19,F,0,1,30,3,2,118,2,4320,0,0.6242566,12.60138,2.771987,-1
19,F,0,1,30,4,2,119,3,2953,0,1.043545E-07,12.36112,0.01978234,-1
19,F,0,1,30,5,1,120,4,3520,0,0.1186261,6.69394,0.9644893,-1
19,F,0,1,30,6,1,117,1,2887,1,0.1035042,6.29152,0.8941622,-1
19,F,0,1,30,7,1,118,2,2153,0,0.1123965,6.611199,0.9253501,-1
19,F,0,1,30,8,2,117,1,2798,0,0.3719805,12.39498,1.692926,-1
19,F,0,1,31,1,1,124,4,3409,0,0.1785491,6.698017,1.451448,-1
19,F,0,1,31,2,2,123,3,2098,0,0.3865518,12.36346,1.757249,-1
19,F,0,1,31,3,2,124,4,2053,0,4.984627E-08,12.58729,0,-1
19,F,0,1,31,4,1,123,3,3320,0,0.137409,6.458861,1.161464,-1
19,F,0,1,31,5,1,121,1,2376,0,0.1516947,6.311009,1.315666,-1
19,F,0,1,31,6,2,122,2,2009,0,0.1584594,12.59903,0.7047113,-1
19,F,0,1,31,7,2,121,1,1409,0,0.4996548,12.40817,2.26088,-1
19,F,0,1,31,8,1,122,2,3620,0,0.03347046,6.625975,0.2755364,-1
19,F,0,1,32,1,2,127,3,2764,0,0.3049714,12.36502,1.394374,-1
19,F,0,1,32,2,2,128,4,2520,0,0.2847257,12.58698,1.273339,-1
19,F,0,1,32,3,1,126,2,3565,0,0.4087471,6.614915,3.326608,-1
19,F,0,1,32,4,1,128,4,3376,0,1.033883E-07,6.69729,0,-1
19,F,0,1,32,5,2,126,2,1820,1,0.07963039,12.6044,0.3555328,-1
19,F,0,1,32,6,1,125,1,4042,0,0.3849301,6.323951,3.322721,-1
19,F,0,1,32,7,1,127,3,2642,0,0.02592611,6.451319,0.220287,-1
19,F,0,1,32,8,2,125,1,1354,0,2.71591E-08,12.41122,0,-1
19,F,0,1,33,1,2,131,3,2087,0,0.379637,12.36733,1.727824,-1
19,F,0,1,33,2,2,132,4,2098,0,0.4176523,12.57847,1.865716,-1
19,F,0,1,33,3,2,129,1,1343,0,0.3191694,12.40263,1.451987,-1
19,F,0,1,33,4,2,130,2,2720,1,1.042301,12.60159,4.705736,-1
19,F,0,1,33,5,1,132,4,2665,0,0.05733101,6.695474,0.4698059,-1
19,F,0,1,33,6,1,131,3,4120,0,0.03773345,6.443069,0.3202056,-1
19,F,0,1,33,7,1,130,2,2020,0,0.2499145,6.625858,2.039225,-1
19,F,0,1,33,8,1,129,1,3698,0,0.4053656,6.320718,3.523868,-1
19,F,0,1,34,1,1,135,3,2342,0,0.03052058,6.448732,0.2601963,-1
19,F,0,1,34,2,2,134,2,4342,0,0.562372,12.59537,2.491279,-1
19,F,0,1,34,3,1,133,1,4109,0,0.2918825,6.328574,2.517462,-1
19,F,0,1,34,4,2,135,3,2698,0,1.047655,12.35625,4.7991,-1
19,F,0,1,34,5,2,136,4,1964,0,0.2429752,12.57906,1.077563,-1
19,F,0,1,34,6,2,133,1,1331,0,0.763788,12.41224,3.45774,-1
19,F,0,1,34,7,1,134,2,2042,0,0.2600561,6.629721,2.134692,-1
19,F,0,1,34,8,1,136,4,3020,0,0.5136344,6.690179,4.141748,-1
19,F,0,1,35,1,1,139,3,5131,0,0.126484,6.439231,1.07829,-1
19,F,0,1,35,2,2,138,2,5887,0,0.1512984,12.6081,0.6749268,-1
19,F,0,1,35,3,2,139,3,2487,0,0.09904176,12.36317,0.450674,-1
19,F,0,1,35,4,2,140,4,2642,0,0.7449045,12.57682,3.328314,-1
19,F,0,1,35,5,1,137,1,4831,0,0.2573995,6.332719,2.215495,-1
19,F,0,1,35,6,1,140,4,3498,0,0.1272358,6.713525,1.03344,-1
19,F,0,1,35,7,1,138,2,2987,0,0.4175389,6.639909,3.426056,-1
19,F,0,1,35,8,2,137,1,1286,0,0.6494305,12.40817,2.939315,-1
19,F,0,1,37,1,3,147,3,2876,0,0.2946444,6.417561,2.522045,-1
19,F,0,1,37,2,3,145,1,3187,0,0.4198811,6.187104,3.75859,-1
19,F,0,1,37,3,3,148,4,5220,0,0.3198184,6.692174,2.60256,-1
19,F,0,1,37,4,4,147,3,3065,0,0.7993894,12.39376,3.655966,-1
19,F,0,1,37,5,4,145,1,1142,0,0.8293681,12.33896,3.767956,-1
19,F,0,1,37,6,4,146,2,1442,0,0.3416998,12.54838,1.53289,-1
19,F,0,1,37,7,4,148,4,1787,0,0.205426,12.59072,0.9204736,-1
19,F,0,1,37,8,3,146,2,3153,0,0.1286989,6.509957,1.077018,-1
19,F,0,1,38,1,4,152,4,3442,0,0.445372,12.59639,1.974768,-1
19,F,0,1,38,2,4,149,1,1364,0,0.5609632,12.36962,2.57055,-1
19,F,0,1,38,3,3,152,4,2787,0,0.05349366,6.714682,0.4343124,-1
19,F,0,1,38,4,4,151,3,1865,0,0.7156305,12.39389,3.199716,-1
19,F,0,1,38,5,3,149,1,2642,0,0.2311306,6.215655,2.024004,-1
19,F,0,1,38,6,4,150,2,1987,0,0.6109827,12.52512,2.737238,-1
19,F,0,1,38,7,3,151,3,4142,0,0.1684546,6.539686,1.417341,-1
19,F,0,1,38,8,3,150,2,3242,0,0.3235776,6.510106,2.703709,-1
19,F,0,1,39,1,3,153,1,2087,0,0.1954011,6.193256,1.713379,-1
19,F,0,1,39,2,3,155,3,3087,0,0.4170153,6.560121,3.505819,-1
19,F,0,1,39,3,3,156,4,2753,0,0.06715902,6.718403,0.5467969,-1
19,F,0,1,39,4,4,155,3,9999,1,-1,-1,-1,-1
19,F,0,1,39,5,4,154,2,2153,0,0.5080537,12.45714,2.303418,-1
19,F,0,1,39,6,4,156,4,2831,1,0.08952557,12.50965,0.4020255,-1
19,F,0,1,39,7,4,153,1,2965,1,0.7712414,12.29621,3.558535,-1
19,F,0,1,39,8,3,154,2,4142,0,0.02810064,6.513156,0.2349025,-1
19,F,0,1,40,1,4,157,1,4009,0,0.5671707,12.23574,2.596612,-1
19,F,0,1,40,2,4,158,2,4320,0,0.5344929,12.47139,2.391629,-1
19,F,0,1,40,3,4,159,3,9999,0,-1,-1,-1,-1
19,F,0,1,40,4,3,157,1,2776,0,0.01068719,6.198621,0.09487279,-1
19,F,0,1,40,5,4,160,4,1531,0,0.3392836,12.6217,1.51788,-1
19,F,0,1,40,6,3,159,3,2809,0,0.5178306,6.556691,4.359636,-1
19,F,0,1,40,7,3,158,2,2420,0,0.2322121,6.551995,1.912132,-1
19,F,0,1,40,8,3,160,4,2787,0,0.2197183,6.736354,1.812509,-1
19,F,0,1,41,1,1,162,2,2698,1,0.3753928,6.455763,3.127751,-1
19,F,0,1,41,2,1,161,1,2820,0,6.552822E-08,6.133605,0,-1
19,F,0,1,41,3,2,164,4,4331,0,0.06679397,12.53052,0.2987072,-1
19,F,0,1,41,4,2,163,3,2964,0,0.9122135,12.29879,4.202956,-1
19,F,0,1,41,5,1,164,4,2365,0,0.2568922,6.615446,2.132766,-1
19,F,0,1,41,6,2,161,1,1365,0,0.2152339,12.2971,0.987149,-1
19,F,0,1,41,7,1,163,3,2087,0,0.2125841,6.528329,1.77586,-1
19,F,0,1,41,8,2,162,2,1431,0,0.1215566,12.55534,0.5442861,-1
19,F,0,1,42,1,2,165,1,1187,0,0.4796807,12.35743,2.19535,-1
19,F,0,1,42,2,1,168,4,1920,0,0.04421828,6.713556,0.3620769,-1
19,F,0,1,42,3,1,166,2,1865,0,4.747424E-08,6.532909,0,-1
19,F,0,1,42,4,1,167,3,3387,1,0.1602147,6.538738,1.35205,-1
19,F,0,1,42,5,2,166,2,3853,0,0.3329155,12.53582,1.504932,-1
19,F,0,1,42,6,2,168,4,2376,0,0.3822036,12.55777,1.696044,-1
19,F,0,1,42,7,2,167,3,2320,0,8.187306E-08,12.3254,0.02797646,-1
19,F,0,1,42,8,1,165,1,3453,0,0.01526209,6.148151,0.1341704,-1
19,F,0,1,43,1,2,170,2,1353,0,0.1575728,12.49462,0.7066523,-1
19,F,0,1,43,2,2,169,1,1964,0,0.5341872,12.30884,2.443284,-1
19,F,0,1,43,3,1,170,2,2031,0,0.1562523,6.471974,1.312539,-1
19,F,0,1,43,4,1,171,3,9676,2,0.2144903,6.513373,1.8032,-1
19,F,0,1,43,5,1,172,4,3175,0,0.3812247,6.67782,3.161183,-1
19,F,0,1,43,6,2,171,3,3065,0,0.09795544,12.35904,0.4454334,-1
19,F,0,1,43,7,1,169,1,2476,0,0.2729038,6.194502,2.41257,-1
19,F,0,1,43,8,2,172,4,2087,0,0.3792079,12.58241,1.69616,-1
19,F,0,1,44,1,2,175,3,3087,0,0.472174,12.36037,2.16338,-1
19,F,0,1,44,2,1,173,1,1887,0,0.3311541,6.20167,2.918462,-1
19,F,0,1,44,3,1,174,2,1498,0,0.1491851,6.505078,1.243955,-1
19,F,0,1,44,4,2,176,4,3576,0,1.819183E-07,12.58144,0,-1
19,F,0,1,44,5,1,175,3,4997,1,0.2604479,6.524654,2.197845,-1
19,F,0,1,44,6,2,174,2,1276,0,1.01784,12.53053,4.525974,-1
19,F,0,1,44,7,1,176,4,2719,0,7.806842E-08,6.684481,0,-1
19,F,0,1,44,8,2,173,1,1287,0,0.5329429,12.35219,2.425677,-1
19,F,0,1,45,1,2,179,3,2598,0,0.7497522,12.36548,3.432849,-1
19,F,0,1,45,2,1,178,2,2098,1,0.4121329,6.507664,3.445431,-1
19,F,0,1,45,3,1,180,4,2331,0,0.08234773,6.689611,0.6702721,-1
19,F,0,1,45,4,1,177,1,3120,0,0.4072165,6.20138,3.602936,-1
19,F,0,1,45,5,2,178,2,6431,0,0.3269323,12.5449,1.457637,-1
19,F,0,1,45,6,2,177,1,1453,0,0.4132919,12.36658,1.878782,-1
19,F,0,1,45,7,2,180,4,2109,0,0.8554093,12.59565,3.786566,-1
19,F,0,1,45,8,1,179,3,4420,1,0.04844502,6.525853,0.4049353,-1
19,F,0,1,46,1,1,184,4,3231,0,0.09987505,6.693218,0.8122882,-1
19,F,0,1,46,2,2,182,2,5187,0,0.5649561,12.5381,2.561244,-1
19,F,0,1,46,3,1,181,1,2509,0,1.027923E-07,6.197491,0,-1
19,F,0,1,46,4,1,182,2,1687,0,0.01637492,6.51812,0.1356209,-1
19,F,0,1,46,5,2,184,4,2487,0,0.6650131,12.58274,2.98662,-1
19,F,0,1,46,6,2,183,3,3309,0,0.2368732,12.35431,1.083359,-1
19,F,0,1,46,7,2,181,1,1276,0,0.6022649,12.35443,2.753566,-1
19,F,0,1,46,8,1,183,3,2565,0,0.2386542,6.520475,1.995471,-1
19,F,0,1,47,1,1,186,2,9753,0,0.07938841,6.530834,0.6617518,-1
19,F,0,1,47,2,1,187,3,2298,0,0.187437,6.521068,1.570722,-1
19,F,0,1,47,3,2,186,2,3520,0,0.3318945,12.54995,1.478961,-1
19,F,0,1,47,4,2,187,3,2942,0,0.1358246,12.36604,0.6161205,-1
19,F,0,1,47,5,2,188,4,2331,0,0.2549445,12.5934,1.131596,-1
19,F,0,1,47,6,1,185,1,3987,0,0.3275861,6.210881,2.861907,-1
19,F,0,1,47,7,1,188,4,5464,0,8.268407E-08,6.700957,0,-1
19,F,0,1,47,8,2,185,1,1131,0,0.3998498,12.36985,1.818331,-1
19,F,0,1,48,1,2,192,4,2442,0,0.7644629,12.58421,3.386453,-1
19,F,0,1,48,2,2,191,3,2442,0,0.4817364,12.36964,2.182833,-1
19,F,0,1,48,3,2,190,2,3009,0,0.9976903,12.55565,4.483667,-1
19,F,0,1,48,4,1,192,4,2998,2,0.3230556,6.695326,2.627635,-1
19,F,0,1,48,5,1,189,1,3276,0,0.3057399,6.210852,2.697475,-1
19,F,0,1,48,6,1,191,3,7509,0,0.301169,6.516451,2.524605,-1
19,F,0,1,48,7,2,189,1,1276,0,0.4896048,12.34423,2.229322,-1
19,F,0,1,48,8,1,190,2,4898,0,7.338433E-08,6.517922,0,-1
19,F,0,1,49,1,2,196,4,3053,1,0.4444325,12.58787,1.994392,-1
19,F,0,1,49,2,2,193,1,1154,0,0.7188191,12.35523,3.268603,-1
19,F,0,1,49,3,1,196,4,1454,0,0.4890595,6.687285,3.928249,-1
19,F,0,1,49,4,1,195,3,4498,2,2.052333E-07,6.503958,0,-1
19,F,0,1,49,5,2,194,2,1320,0,0.7937056,12.53491,3.527921,-1
19,F,0,1,49,6,2,195,3,2364,0,0.3507181,12.35563,1.604131,-1
19,F,0,1,49,7,1,193,1,2653,0,0.1082685,6.193909,0.9559301,-1
19,F,0,1,49,8,1,194,2,1642,0,0.08559738,6.511382,0.7154584,-1
19,F,0,1,50,1,2,197,1,1398,0,0.05038808,12.34478,0.2289973,-1
19,F,0,1,50,2,1,200,4,2109,0,0.2492677,6.694535,2.052808,-1
19,F,0,1,50,3,1,197,1,3631,0,0.07937628,6.191212,0.6966124,-1
19,F,0,1,50,4,1,199,3,4675,0,5.86068E-08,6.513832,0,-1
19,F,0,1,50,5,1,198,2,2598,0,0.0509949,6.513023,0.4265846,-1
19,F,0,1,50,6,2,200,4,2009,0,0.5668184,12.57694,2.548218,-1
19,F,0,1,50,7,2,198,2,1709,0,0.2547602,12.53961,1.141239,-1
19,F,0,1,50,8,2,199,3,2009,0,0.4167695,12.35852,1.909366,-1
19,F,0,1,51,1,2,201,1,1120,0,0.6717081,12.35096,3.065927,-1
19,F,0,1,51,2,2,202,2,1398,0,0.7376942,12.53662,3.312985,-1
19,F,0,1,51,3,1,201,1,2820,0,0.2275094,6.183453,1.998314,-1
19,F,0,1,51,4,1,204,4,2231,0,0.3673107,6.684554,2.955057,-1
19,F,0,1,51,5,2,203,3,1742,0,0.6204631,12.36111,2.843104,-1
19,F,0,1,51,6,2,204,4,2609,0,0.7227791,12.57713,3.252993,-1
19,F,0,1,51,7,1,202,2,2631,0,5.867756E-08,6.516239,0,-1
19,F,0,1,51,8,1,203,3,3187,0,0.1485138,6.499712,1.259587,-1
19,F,0,1,52,1,1,205,1,4042,0,0.2421121,6.192891,2.123477,-1
19,F,0,1,52,2,2,207,3,2153,0,0.514653,12.35739,2.334394,-1
19,F,0,1,52,3,2,205,1,1320,0,0.950924,12.3517,4.337115,-1
19,F,0,1,52,4,2,206,2,3242,0,0.09288207,12.54643,0.4159008,-1
19,F,0,1,52,5,1,208,4,2676,0,1.82568E-07,6.687493,0,-1
19,F,0,1,52,6,1,207,3,2131,0,0.2714283,6.521659,2.275721,-1
19,F,0,1,52,7,1,206,2,2042,0,0.3070998,6.513209,2.546759,-1
19,F,0,1,52,8,2,208,4,2453,0,0.3924702,12.58311,1.759475,-1
19,F,0,1,53,1,2,211,3,2031,0,0.4491506,12.35842,2.05814,-1
19,F,0,1,53,2,1,212,4,2076,0,0.06271368,6.697833,0.5143426,-1
19,F,0,1,53,3,2,210,2,4876,0,0.8626937,12.63422,3.883529,-1
19,F,0,1,53,4,2,212,4,3442,0,0.3414414,12.62053,1.511938,-1
19,F,0,1,53,5,2,209,1,1765,0,0.5383902,12.43221,2.442804,-1
19,F,0,1,53,6,1,210,2,2831,0,0.194496,6.628788,1.597162,-1
19,F,0,1,53,7,1,209,1,4287,0,0.4666219,6.338691,4.049752,-1
19,F,0,1,53,8,1,211,3,3987,1,3.010348E-07,6.511676,0,-1
19,F,0,1,54,1,2,214,2,3398,0,0.4442115,12.6551,1.986822,-1
19,F,0,1,54,2,2,215,3,2409,0,0.7543719,12.415,3.443441,-1
19,F,0,1,54,3,1,213,1,3298,0,0.3468995,6.334103,2.98124,-1
19,F,0,1,54,4,1,214,2,2042,0,0.2220584,6.628128,1.817793,-1
19,F,0,1,54,5,2,216,4,2153,0,1.303082E-07,12.64878,0.01978234,-1
19,F,0,1,54,6,2,213,1,1398,0,0.5583887,12.45127,2.52445,-1
19,F,0,1,54,7,1,216,4,2087,0,0.1829419,6.755434,1.469803,-1
19,F,0,1,54,8,1,215,3,2465,0,0.3573582,6.52819,2.987275,-1
19,F,0,1,55,1,2,218,2,3175,0,0.06922887,12.63153,0.3077414,-1
19,F,0,1,55,2,2,217,1,1343,0,0.4866239,12.43466,2.204869,-1
19,F,0,1,55,3,1,218,2,4865,0,0.01112363,6.636092,0.09278741,-1
19,F,0,1,55,4,2,220,4,2620,0,0.8951073,12.63728,3.949528,-1
19,F,0,1,55,5,2,219,3,2109,0,2.82525E-08,12.42271,0,-1
19,F,0,1,55,6,1,220,4,2498,0,0.0675877,6.760905,0.5450047,-1
19,F,0,1,55,7,1,217,1,1731,0,0.307768,6.347286,2.658885,-1
19,F,0,1,55,8,1,219,3,4698,2,1.713749E-07,6.478717,0,-1
19,F,0,1,56,1,1,221,1,3287,0,0.288441,6.320184,2.479071,-1
19,F,0,1,56,2,1,223,3,4820,1,0.5278472,6.483704,4.496492,-1
19,F,0,1,56,3,2,222,2,4031,0,0.9029326,12.54633,4.053957,-1
19,F,0,1,56,4,1,224,4,2509,1,0.11761,6.692498,0.970355,-1
19,F,0,1,56,5,2,223,3,1487,0,0.3855061,12.35569,1.75223,-1
19,F,0,1,56,6,2,224,4,1442,0,0.5789759,12.58557,2.558338,-1
19,F,0,1,56,7,2,221,1,2742,1,0.4627141,12.31979,2.127345,-1
19,F,0,1,56,8,1,222,2,4109,0,0.4409712,6.510446,3.637981,-1
19,F,0,1,57,1,4,225,1,5376,0,0.4356497,12.33019,2.000467,-1
19,F,0,1,57,2,4,226,2,1342,0,0.1278609,12.50737,0.5723243,-1
19,F,0,1,57,3,3,225,1,2642,1,6.230299E-08,6.163546,0,-1
19,F,0,1,57,4,4,228,4,1309,0,0.5529561,12.56765,2.461084,-1
19,F,0,1,57,5,4,227,3,1665,0,0.6070089,12.34315,2.789866,-1
19,F,0,1,57,6,3,228,4,1798,0,0.1596618,6.685428,1.294827,-1
19,F,0,1,57,7,3,227,3,7453,0,0.3229464,6.149373,2.86389,-1
19,F,0,1,57,8,3,226,2,3409,0,5.730925E-08,6.477182,0,-1
19,F,0,1,58,1,3,229,1,3420,0,0.4184835,6.216451,3.683286,-1
19,F,0,1,58,2,3,232,4,2998,0,0.05095531,6.500842,0.427501,-1
19,F,0,1,58,3,3,230,2,2587,0,0.3060858,6.427774,2.592085,-1
19,F,0,1,58,4,4,229,1,2709,0,0.3315953,12.20592,1.527006,-1
19,F,0,1,58,5,4,232,4,2887,0,1.008908,12.36345,4.549111,-1
19,F,0,1,58,6,3,231,3,3642,0,0.3002672,6.276025,2.604666,-1
19,F,0,1,58,7,4,230,2,2820,0,0.7026122,12.39418,3.193285,-1
19,F,0,1,58,8,4,231,3,3298,0,0.8777372,12.17263,4.079288,-1
19,F,0,1,59,1,3,234,2,2298,0,0.06575633,6.442953,0.5591815,-1
19,F,0,1,59,2,3,235,3,3031,0,6.93527E-08,6.2801,0,-1
19,F,0,1,59,3,3,233,1,2642,2,0.1554756,6.159548,1.386633,-1
19,F,0,1,59,4,4,236,4,1331,0,0.2250337,12.35613,1.016448,-1
19,F,0,1,59,5,4,233,1,1720,0,0.5250878,12.1987,2.443444,-1
19,F,0,1,59,6,4,235,3,9999,4,-1,-1,-1,-1
19,F,0,1,59,7,4,234,2,2042,0,3.838281E-07,12.15231,0,-1
19,F,0,1,59,8,3,236,4,4863,0,0.5299789,6.311482,4.557328,-1
19,F,0,1,60,1,3,238,2,2598,0,0.4690003,6.306036,4.089884,-1
19,F,0,1,60,2,3,240,4,9999,1,-1,-1,-1,-1
19,F,0,1,60,3,3,237,1,2387,0,0.05218862,6.229043,0.4584226,-1
19,F,0,1,60,4,4,239,3,1575,0,0.3757225,12.28029,1.720332,-1
19,F,0,1,60,5,4,237,1,1865,0,0.9246435,12.31117,4.23628,-1
19,F,0,1,60,6,4,240,4,1764,0,0.6042227,12.49504,2.694426,-1
19,F,0,1,60,7,3,239,3,3187,0,1.689754E-07,6.391925,0,-1
19,F,0,1,60,8,4,238,2,1665,0,0.338459,12.48564,1.515557,-1
19,F,0,1,61,1,1,241,1,1898,0,0.3353115,6.212214,2.924225,-1
19,F,0,1,61,2,1,244,4,2242,0,0.3920078,6.595462,3.207477,-1
19,F,0,1,61,3,2,243,3,1909,0,0.07387546,12.27531,0.3380413,-1
19,F,0,1,61,4,2,241,1,1142,0,0.3009655,12.31794,1.377856,-1
19,F,0,1,61,5,1,242,2,1920,0,0.06949147,6.498232,0.5818186,-1
19,F,0,1,61,6,1,243,3,2665,0,0.1590997,6.409024,1.354075,-1
19,F,0,1,61,7,2,242,2,3209,0,0.7018688,12.4924,3.187947,-1
19,F,0,1,61,8,2,244,4,2264,0,0.3580883,12.48403,1.619067,-1
19,F,0,1,62,1,1,245,1,3642,0,0.001476593,6.207948,0,-1
19,F,0,1,62,2,1,246,2,1898,0,0.3619988,6.502303,3.040279,-1
19,F,0,1,62,3,1,248,4,3264,0,1.452233E-07,6.606818,0,-1
19,F,0,1,62,4,2,245,1,1487,0,0.6069768,12.30261,2.802677,-1
19,F,0,1,62,5,2,247,3,3187,0,0.3685082,12.272,1.696044,-1
19,F,0,1,62,6,2,246,2,2609,0,0.9389305,12.5023,4.27196,-1
19,F,0,1,62,7,2,248,4,3376,1,1.028404,12.50785,4.661991,-1
19,F,0,1,62,8,1,247,3,3909,0,0.2959236,6.426048,2.531805,-1
19,F,0,1,1,1,5,1,1,1940,0,5.841819,6.192216,70.6329,-1
19,F,0,1,1,2,7,3,3,1476,0,6.402987,6.534394,78.49002,-1
19,F,0,1,1,3,6,4,4,1709,0,4.816453,12.55426,22.01961,-1
19,F,0,1,1,4,5,2,2,1276,0,4.811751,6.466589,48.08134,-1
19,F,0,1,1,5,5,3,3,2198,0,5.586992,6.54232,58.64693,-1
19,F,0,1,1,6,8,4,4,931,0,3.74685,12.53806,16.89182,-1
19,F,0,1,1,7,8,1,1,2554,0,8.177472,12.32317,41.57385,-1
19,F,0,1,1,8,6,2,2,820,0,3.254906,12.50181,15.06191,-1
19,F,0,1,1,9,7,4,4,1942,0,3.856372,6.616646,34.88137,-1
19,F,0,1,1,10,7,1,1,1409,0,5.622908,6.207741,64.92985,-1
19,F,0,1,1,11,6,3,3,1631,0,10.58793,12.37722,58.80802,-1
19,F,0,1,1,12,8,2,2,1676,0,5.277265,12.47358,24.98979,-1
19,F,0,1,1,13,6,1,1,1587,0,3.351446,12.3337,15.73413,-1
19,F,0,1,1,14,7,2,2,909,0,5.534858,6.479922,58.6665,-1
19,F,0,1,1,15,8,3,3,676,0,4.03,12.34866,19.04745,-1
19,F,0,1,1,16,5,4,4,987,0,4.941056,6.656089,47.9308,-1
19,F,0,1,2,1,5,3,3,864,0,2.47231,6.517732,21.22568,-1
19,F,0,1,2,2,5,2,2,2087,0,4.570945,6.466631,44.97928,-1
19,F,0,1,2,3,6,4,4,1409,0,10.21733,12.59827,54.19476,-1
19,F,0,1,2,4,6,3,3,898,0,2.340232,12.34853,10.58805,-1
19,F,0,1,2,5,7,1,1,1053,0,2.733463,6.192928,24.65111,-1
19,F,0,1,2,6,5,4,4,931,0,3.730397,6.625831,33.48428,-1
19,F,0,1,2,7,5,1,1,2131,0,2.062156,6.186566,18.85605,-1
19,F,0,1,2,8,6,2,2,1042,0,8.263508,12.49199,41.41473,-1
19,F,0,1,2,9,7,4,4,1331,0,5.148588,6.661949,50.60917,-1
19,F,0,1,2,10,6,1,1,1565,0,4.374462,12.33371,20.72927,-1
19,F,0,1,2,11,8,2,2,1687,0,8.30823,12.46611,41.79485,-1
19,F,0,1,2,12,8,3,3,1076,0,7.935328,12.36572,39.9202,-1
19,F,0,1,2,13,8,1,1,1542,0,5.633324,12.33969,27.10072,-1
19,F,0,1,2,14,7,3,3,998,0,2.528837,6.500915,21.93326,-1
19,F,0,1,2,15,7,2,2,2653,0,5.433177,6.471236,57.09671,-1
19,F,0,1,2,16,8,4,4,864,0,3.57746,12.55146,16.08988,-1
