Age, Gender, Awareness Type, Session, Block, Trial, Set, Pattern, Quadrant, Response Time, Num Mistakes, Distance From Target, Camera Distance From Target, Angle Error (Degrees), FC Response
19,F,0,1,1,1,1,4,4,9999,1,-1,-1,-1,-1
19,F,0,1,1,2,1,1,1,2164,0,0.184015,6.082421,1.644372,-1
19,F,0,1,1,3,2,4,4,1942,0,0.4797603,12.24628,2.178975,-1
19,F,0,1,1,4,1,3,3,4231,1,0.09700698,6.257223,0.854092,-1
19,F,0,1,1,5,2,1,1,1453,0,0.4074117,12.19812,1.871267,-1
19,F,0,1,1,6,2,2,2,2175,1,0.5300047,12.31676,2.433411,-1
19,F,0,1,1,7,2,3,3,2997,0,0.3162118,12.08301,1.475517,-1
19,F,0,1,1,8,1,2,2,4320,1,1.408734E-07,6.470578,0.01978234,-1
19,F,0,1,2,1,1,7,3,8853,0,0.2276138,6.269678,1.999391,-1
19,F,0,1,2,2,2,6,2,1998,0,0.9892378,12.32623,4.470674,-1
19,F,0,1,2,3,2,7,3,8198,1,0.7677106,12.07736,3.601631,-1
19,F,0,1,2,4,2,8,4,1786,0,0.6648488,12.20742,3.019474,-1
19,F,0,1,2,5,2,5,1,1253,0,0.4203548,12.16615,1.922339,-1
19,F,0,1,2,6,1,8,4,6887,1,0.4543825,6.426127,3.827867,-1
19,F,0,1,2,7,1,6,2,4831,0,0.4793644,6.451101,3.999684,-1
19,F,0,1,2,8,1,5,1,1653,0,0.07604226,6.055143,0.6838553,-1
19,F,0,1,3,1,1,10,2,1375,0,0.43669,6.451332,3.684242,-1
19,F,0,1,3,2,1,11,3,4653,1,0.4808594,6.210327,4.269484,-1
19,F,0,1,3,3,2,9,1,1587,0,0.2525876,12.17385,1.162643,-1
19,F,0,1,3,4,2,11,3,8197,0,1.902847E-07,12.04717,0,-1
19,F,0,1,3,5,2,12,4,1720,0,0.8484291,12.21195,3.847714,-1
19,F,0,1,3,6,1,9,1,2386,1,2.934639E-08,6.044508,0,-1
19,F,0,1,3,7,2,10,2,2476,0,0.2655383,12.2867,1.210146,-1
19,F,0,1,3,8,1,12,4,3986,1,0.3904891,6.432868,3.258345,-1
19,F,0,1,4,1,1,13,1,1553,0,0.3075103,6.049022,2.809026,-1
19,F,0,1,4,2,1,14,2,3864,0,0.05928811,6.452721,0.5000685,-1
19,F,0,1,4,3,2,13,1,1353,0,0.8886463,12.15652,4.13588,-1
19,F,0,1,4,4,1,15,3,3853,0,0.4586146,6.214527,4.065824,-1
19,F,0,1,4,5,2,14,2,5742,0,0.6205145,12.30174,2.820222,-1
19,F,0,1,4,6,2,16,4,2487,1,0.6612458,12.212,3.006219,-1
19,F,0,1,4,7,2,15,3,2220,0,0.04505463,12.03885,0.2102893,-1
19,F,0,1,4,8,1,16,4,2042,0,0.4330976,6.423748,3.610861,-1
19,F,0,1,5,1,2,17,1,1486,0,0.3953517,12.16863,1.805044,-1
19,F,0,1,5,2,1,19,3,3531,0,0.3022228,6.213552,2.67825,-1
19,F,0,1,5,3,1,18,2,2076,0,0.4502675,6.456591,3.818699,-1
19,F,0,1,5,4,2,20,4,3487,2,0.1065631,12.21025,0.4897892,-1
19,F,0,1,5,5,1,17,1,1987,0,6.293723E-08,6.05327,0,-1
19,F,0,1,5,6,2,18,2,1853,0,0.5314743,12.29851,2.442403,-1
19,F,0,1,5,7,1,20,4,5797,1,0.1042968,6.431456,0.8789325,-1
19,F,0,1,5,8,2,19,3,3442,0,0.001212804,12.03101,0,-1
19,F,0,1,6,1,2,24,4,3465,0,0.4355836,12.20605,2.001739,-1
19,F,0,1,6,2,1,23,3,4453,0,5.280363E-07,6.206999,0,-1
19,F,0,1,6,3,2,22,2,1042,0,0.4140883,12.29395,1.884295,-1
19,F,0,1,6,4,1,21,1,1786,0,0.1734582,6.045328,1.559218,-1
19,F,0,1,6,5,1,24,4,3353,0,0.09603452,6.431008,0.8074558,-1
19,F,0,1,6,6,1,22,2,1797,0,0.4456009,6.451766,3.734758,-1
19,F,0,1,6,7,2,23,3,2709,0,0.3892438,12.03643,1.823167,-1
19,F,0,1,6,8,2,21,1,1786,0,0.7552506,12.16891,3.441621,-1
19,F,0,1,7,1,1,26,2,2065,0,0.3076556,6.453273,2.609321,-1
19,F,0,1,7,2,2,28,4,2798,1,0.7046953,12.20541,3.277038,-1
19,F,0,1,7,3,1,27,3,4153,0,2.285763E-07,6.195462,0,-1
19,F,0,1,7,4,2,26,2,2709,1,0.3081783,12.2848,1.404303,-1
19,F,0,1,7,5,1,25,1,2054,0,0.4617771,6.054165,4.136307,-1
19,F,0,1,7,6,2,27,3,2320,0,0.5033071,12.02614,2.378581,-1
19,F,0,1,7,7,2,25,1,2120,0,0.9430624,12.15136,4.361657,-1
19,F,0,1,7,8,1,28,4,8087,1,0.2309924,6.424321,1.937449,-1
19,F,0,1,8,1,1,29,1,3342,0,0.1642395,6.047202,1.476313,-1
19,F,0,1,8,2,2,30,2,2831,0,0.3547571,12.2824,1.616163,-1
19,F,0,1,8,3,2,31,3,2831,0,0.3140173,12.02782,1.459381,-1
19,F,0,1,8,4,2,29,1,1965,0,0.2890819,12.15809,1.323526,-1
19,F,0,1,8,5,1,31,3,3753,0,0.08528773,6.200083,0.7574393,-1
19,F,0,1,8,6,2,32,4,1309,0,0.1432206,12.20476,0.6552143,-1
19,F,0,1,8,7,1,30,2,2842,1,0.03246865,6.452409,0.2748253,-1
19,F,0,1,8,8,1,32,4,3854,0,0.5043375,6.413328,4.237205,-1
19,F,0,1,9,1,2,33,1,1409,0,0.4136702,12.16214,1.902384,-1
19,F,0,1,9,2,2,36,4,1264,0,0.3032195,12.20219,1.395496,-1
19,F,0,1,9,3,1,33,1,5453,2,0.3771288,6.1218,3.315702,-1
19,F,0,1,9,4,1,34,2,1998,0,0.3604684,6.484754,3.005764,-1
19,F,0,1,9,5,2,35,3,4887,1,0.4630707,12.06594,2.173759,-1
19,F,0,1,9,6,1,36,4,2920,0,0.3204062,6.444333,2.665943,-1
19,F,0,1,9,7,1,35,3,3731,0,1.160375E-07,6.22164,0,-1
19,F,0,1,9,8,2,34,2,3819,1,0.800191,12.30186,3.630438,-1
19,F,0,1,10,1,2,37,1,1787,0,0.4615365,12.18194,2.123109,-1
19,F,0,1,10,2,2,38,2,1120,0,0.8934122,12.3033,4.049994,-1
19,F,0,1,10,3,1,37,1,1697,0,0.1029083,6.073087,0.9208986,-1
19,F,0,1,10,4,1,38,2,7253,0,0.3901258,6.47444,3.299128,-1
19,F,0,1,10,5,2,39,3,3342,0,0.2948477,12.06656,1.370736,-1
19,F,0,1,10,6,2,40,4,1331,0,0.5846298,12.23351,2.667044,-1
19,F,0,1,10,7,1,39,3,3453,0,1.415562E-07,6.215696,0,-1
19,F,0,1,10,8,1,40,4,3798,1,0.2606324,6.439383,2.189905,-1
19,F,0,1,11,1,2,42,2,1486,0,0.8182346,12.31198,3.7132,-1
19,F,0,1,11,2,1,44,4,4131,1,0.4353486,6.428911,3.631408,-1
19,F,0,1,11,3,1,42,2,6620,1,0.2047832,6.465801,1.724763,-1
19,F,0,1,11,4,2,41,1,1531,0,0.1129198,12.18245,0.5200178,-1
19,F,0,1,11,5,1,43,3,3008,0,0.125835,6.208654,1.11645,-1
19,F,0,1,11,6,2,44,4,9999,0,-1,-1,-1,-1
19,F,0,1,11,7,1,41,1,1598,0,0.3856512,6.08544,3.418447,-1
19,F,0,1,11,8,2,43,3,4042,0,0.2342581,12.07173,1.093606,-1
19,F,0,1,12,1,1,45,1,1386,0,0.0632995,6.082048,0.5671728,-1
19,F,0,1,12,2,1,46,2,1865,0,0.3606492,6.48132,3.046325,-1
19,F,0,1,12,3,1,47,3,3620,0,1.59891E-07,6.230967,0,-1
19,F,0,1,12,4,2,45,1,1465,0,0.4237384,12.19923,1.928946,-1
19,F,0,1,12,5,2,46,2,2986,1,0.4396709,12.32057,1.994981,-1
19,F,0,1,12,6,2,48,4,1164,0,0.1235974,12.24456,0.5664824,-1
19,F,0,1,12,7,2,47,3,2897,0,1.57761E-07,12.06831,0,-1
19,F,0,1,12,8,1,48,4,5631,1,0.1338778,6.459928,1.121347,-1
19,F,0,1,13,1,2,51,3,2231,0,0.6325346,12.06565,2.924091,-1
19,F,0,1,13,2,1,52,4,3942,0,0.5282803,6.456021,4.431687,-1
19,F,0,1,13,3,1,49,1,2008,0,0.2569791,6.079751,2.290893,-1
19,F,0,1,13,4,1,51,3,2953,0,0.323948,6.236967,2.860265,-1
19,F,0,1,13,5,2,50,2,3764,1,0.2495954,12.31094,1.135911,-1
19,F,0,1,13,6,2,52,4,1120,0,0.5298731,12.22984,2.407778,-1
19,F,0,1,13,7,2,49,1,1631,0,0.5313109,12.18962,2.420992,-1
19,F,0,1,13,8,1,50,2,2286,0,0.1946247,6.473739,1.630029,-1
19,F,0,1,14,1,2,53,1,1309,0,0.2625963,12.18013,1.201871,-1
19,F,0,1,14,2,2,56,4,1164,0,1.453183E-07,12.23534,0,-1
19,F,0,1,14,3,1,55,3,2898,0,0.007002241,6.227372,0.05934703,-1
19,F,0,1,14,4,1,53,1,2065,0,1.204038E-07,6.070555,0.01978234,-1
19,F,0,1,14,5,1,54,2,6431,0,0.1258852,6.473455,1.063856,-1
19,F,0,1,14,6,2,55,3,2231,0,0.3777572,12.05958,1.749771,-1
19,F,0,1,14,7,2,54,2,830,0,4.041176E-08,12.31553,0,-1
19,F,0,1,14,8,1,56,4,9999,2,-1,-1,-1,-1
19,F,0,1,15,1,2,58,2,908,0,0.6167307,12.32074,2.794073,-1
19,F,0,1,15,2,2,60,4,987,0,0.7223697,12.23722,3.287655,-1
19,F,0,1,15,3,2,57,1,1709,0,0.3631319,12.19676,1.669412,-1
19,F,0,1,15,4,2,59,3,2953,1,0.5502962,12.06637,2.556501,-1
19,F,0,1,15,5,1,58,2,3297,0,0.5164602,6.474046,4.369374,-1
19,F,0,1,15,6,1,60,4,3265,1,0.3192605,6.454774,2.67708,-1
19,F,0,1,15,7,1,57,1,3475,0,1.703573E-07,6.085217,0,-1
19,F,0,1,15,8,1,59,3,5075,0,0.5085728,6.235315,4.498365,-1
19,F,0,1,16,1,1,64,4,9999,1,-1,-1,-1,-1
19,F,0,1,16,2,1,63,3,3320,0,0.4831224,6.233651,4.318561,-1
19,F,0,1,16,3,2,64,4,1031,0,0.5710284,12.2461,2.602335,-1
19,F,0,1,16,4,2,61,1,2275,0,0.5181694,12.19065,2.378581,-1
19,F,0,1,16,5,1,62,2,2598,0,0.2827745,6.476737,2.389828,-1
19,F,0,1,16,6,2,63,3,3275,0,0.6397237,12.06987,2.967023,-1
19,F,0,1,16,7,2,62,2,5509,0,0.4146174,12.321,1.903001,-1
19,F,0,1,16,8,1,61,1,3220,1,0.2093075,6.067228,1.895995,-1
19,F,0,1,17,1,4,67,3,2320,0,0.6618879,12.06848,3.076444,-1
19,F,0,1,17,2,3,66,2,1564,0,0.4236995,6.475905,3.582444,-1
19,F,0,1,17,3,3,65,1,7975,0,7.621544E-08,6.076993,0,-1
19,F,0,1,17,4,3,68,4,3042,0,0.3462486,6.440388,2.917456,-1
19,F,0,1,17,5,3,67,3,2409,0,0.1007003,6.209269,0.8899944,-1
19,F,0,1,17,6,4,68,4,6554,0,0.1784266,12.29164,0.8206762,-1
19,F,0,1,17,7,4,66,2,875,0,2.159902E-08,12.25924,0,-1
19,F,0,1,17,8,4,65,1,1276,0,0.8527998,12.1875,3.895511,-1
19,F,0,1,18,1,3,72,4,2375,0,0.3191043,6.475779,2.697693,-1
19,F,0,1,18,2,3,69,1,9999,0,-1,-1,-1,-1
19,F,0,1,18,3,4,71,3,2976,0,0.69877,12.09354,3.242746,-1
19,F,0,1,18,4,4,69,1,1131,0,0.6681884,12.1956,3.033639,-1
19,F,0,1,18,5,4,72,4,9999,0,-1,-1,-1,-1
19,F,0,1,18,6,4,70,2,887,0,1.147296E-07,12.25786,0,-1
19,F,0,1,18,7,3,71,3,7564,0,0.1137548,6.220603,0.9962258,-1
19,F,0,1,18,8,3,70,2,3098,1,0.3435188,6.493109,2.874601,-1
19,F,0,1,19,1,4,75,3,1853,0,0.561855,12.06707,2.596838,-1
19,F,0,1,19,2,3,76,4,2675,1,0.1470328,6.446475,1.231623,-1
19,F,0,1,19,3,4,73,1,1720,0,0.6359633,12.23851,2.902994,-1
19,F,0,1,19,4,3,75,3,3331,0,0.01338584,6.229142,0.1186941,-1
19,F,0,1,19,5,4,76,4,6687,1,0.03597999,12.26807,0.1643245,-1
19,F,0,1,19,6,4,74,2,865,0,0.2995817,12.25903,1.36401,-1
19,F,0,1,19,7,3,73,1,1620,0,0.4689978,6.070951,4.164712,-1
19,F,0,1,19,8,3,74,2,1942,1,7.429735E-08,6.488291,0,-1
19,F,0,1,20,1,3,80,4,2697,0,0.3737531,6.443397,3.148151,-1
19,F,0,1,20,2,3,79,3,2743,0,0.525859,6.220241,4.680735,-1
19,F,0,1,20,3,4,80,4,1375,0,0.4612964,12.23152,2.097325,-1
19,F,0,1,20,4,3,77,1,9999,0,-1,-1,-1,-1
19,F,0,1,20,5,4,79,3,2387,0,0.3617457,12.03007,1.682723,-1
19,F,0,1,20,6,4,78,2,1076,0,0.3294359,12.28921,1.503371,-1
19,F,0,1,20,7,4,77,1,1976,0,0.6368816,12.18346,2.893471,-1
19,F,0,1,20,8,3,78,2,3687,0,0.505007,6.465314,4.22211,-1
19,F,0,1,20,1,2,77,1,1598,0,0.03978575,12.18632,0.183454,-1
19,F,0,1,20,2,1,79,3,3664,0,0.3317778,6.238206,2.928907,-1
19,F,0,1,20,3,1,78,2,1875,0,0.2425971,6.475274,2.050518,-1
19,F,0,1,20,4,2,80,4,2098,0,0.1629789,12.24715,0.7470343,-1
19,F,0,1,20,5,2,79,3,3109,0,0.4504804,12.07025,2.089659,-1
19,F,0,1,20,6,2,78,2,1498,0,0.438369,12.32304,1.994883,-1
19,F,0,1,20,7,1,80,4,8042,1,0.1096828,6.451903,0.9206861,-1
19,F,0,1,20,8,1,77,1,1931,0,0.2300321,6.075791,2.049277,-1
19,F,0,1,21,1,2,84,4,1676,1,0.2703068,12.25935,1.240173,-1
19,F,0,1,21,2,1,83,3,2931,1,0.01005004,6.246759,0.08846933,-1
19,F,0,1,21,3,1,81,1,3187,1,0.3569316,6.073038,3.222883,-1
19,F,0,1,21,4,2,82,2,1964,0,0.9752009,12.33766,4.496841,-1
19,F,0,1,21,5,2,83,3,2687,0,0.7191822,12.0687,3.377422,-1
19,F,0,1,21,6,1,82,2,4720,0,0.1189469,6.489916,0.9989719,-1
19,F,0,1,21,7,2,81,1,1653,0,0.5276715,12.19553,2.423174,-1
19,F,0,1,21,8,1,84,4,4842,1,0.1152134,6.469326,0.9699516,-1
19,F,0,1,22,1,1,86,2,4076,0,0.1732304,6.489696,1.444962,-1
19,F,0,1,22,2,2,87,3,3309,0,8.868589E-08,12.06336,0,-1
19,F,0,1,22,3,2,85,1,2187,0,0.5987343,12.19829,2.71851,-1
19,F,0,1,22,4,1,88,4,2865,0,0.4554664,6.457005,3.822184,-1
19,F,0,1,22,5,1,87,3,3287,0,0.5061269,6.239688,4.469534,-1
19,F,0,1,22,6,1,85,1,2065,0,0.3714442,6.082067,3.286761,-1
19,F,0,1,22,7,2,86,2,1554,0,0.1046579,12.32616,0.477244,-1
19,F,0,1,22,8,2,88,4,909,0,0.1511976,12.2442,0.6895542,-1
19,F,0,1,23,1,1,91,3,2998,0,0.2802121,6.235316,2.47433,-1
19,F,0,1,23,2,1,89,1,1565,0,0.1863616,6.083795,1.660125,-1
19,F,0,1,23,3,1,90,2,3620,1,0.2102853,6.485637,1.77233,-1
19,F,0,1,23,4,2,92,4,798,0,0.09693407,12.246,0.4427898,-1
19,F,0,1,23,5,2,90,2,2087,0,0.6268969,12.32835,2.876371,-1
19,F,0,1,23,6,2,91,3,5042,0,0.08838081,12.08196,0.4111691,-1
19,F,0,1,23,7,2,89,1,1365,0,0.7747741,12.20527,3.528698,-1
19,F,0,1,23,8,1,92,4,1942,0,0.2311407,6.458964,1.936641,-1
19,F,0,1,24,1,1,94,2,5031,0,0.1211629,6.483438,1.021442,-1
19,F,0,1,24,2,2,95,3,3309,0,0.80111,12.07625,3.725625,-1
19,F,0,1,24,3,2,93,1,5987,1,0.6937573,12.19942,3.18635,-1
19,F,0,1,24,4,1,96,4,5542,2,0.0001333336,6.527107,0,-1
19,F,0,1,24,5,1,93,1,2653,0,0.3903379,6.164125,3.41879,-1
19,F,0,1,24,6,2,96,4,942,0,0.5822423,12.32897,2.665062,-1
19,F,0,1,24,7,2,94,2,953,0,0.2066999,12.40758,0.9421154,-1
19,F,0,1,24,8,1,95,3,2798,0,0.5055267,6.311146,4.416723,-1
19,F,0,1,25,1,2,98,2,9999,0,-1,-1,-1,-1
19,F,0,1,25,2,2,99,3,2053,0,0.3832187,12.16278,1.760475,-1
19,F,0,1,25,3,1,98,2,1876,0,1.035554E-07,6.548988,0,-1
19,F,0,1,25,4,1,97,1,4676,1,0.1034937,6.154351,0.9159984,-1
19,F,0,1,25,5,1,100,4,4720,1,0.1730021,6.533008,1.431628,-1
19,F,0,1,25,6,2,97,1,2042,1,0.3830628,12.26593,1.748428,-1
19,F,0,1,25,7,1,99,3,4020,1,0.2171244,6.291862,1.890516,-1
19,F,0,1,25,8,2,100,4,1853,1,0.6168035,12.31873,2.835866,-1
19,F,0,1,26,1,2,103,3,3398,0,0.5109847,12.14622,2.383102,-1
19,F,0,1,26,2,1,101,1,4498,0,0.3760994,6.159445,3.288548,-1
19,F,0,1,26,3,1,104,4,2342,0,0.06808382,6.528598,0.5664824,-1
19,F,0,1,26,4,1,103,3,3131,0,0.4394679,6.301765,3.841959,-1
19,F,0,1,26,5,2,101,1,1831,0,0.4640754,12.26957,2.099843,-1
19,F,0,1,26,6,2,102,2,9999,0,-1,-1,-1,-1
19,F,0,1,26,7,2,104,4,1131,0,0.6312507,12.32572,2.845376,-1
19,F,0,1,26,8,1,102,2,2398,0,0.4338779,6.550632,3.627902,-1
19,F,0,1,27,1,2,108,4,1442,1,0.7145063,12.32866,3.262008,-1
19,F,0,1,27,2,2,107,3,2242,0,0.1523566,12.15291,0.7060983,-1
19,F,0,1,27,3,1,108,4,2065,0,0.4175849,6.526237,3.445317,-1
19,F,0,1,27,4,1,107,3,2275,0,0.4068978,6.296383,3.559305,-1
19,F,0,1,27,5,2,106,2,2153,0,0.9113448,12.41002,4.098589,-1
19,F,0,1,27,6,1,105,1,1231,0,0.2522437,6.156649,2.216202,-1
19,F,0,1,27,7,1,106,2,1920,0,0.02756248,6.549346,0.2306999,-1
19,F,0,1,27,8,2,105,1,1442,0,0.4684225,12.26753,2.131848,-1
19,F,0,1,28,1,1,111,3,3398,0,0.2404935,6.295602,2.104498,-1
19,F,0,1,28,2,1,110,2,2564,1,3.894158E-08,6.554174,0,-1
19,F,0,1,28,3,2,109,1,1565,0,0.2396763,12.27219,1.088585,-1
19,F,0,1,28,4,1,112,4,5287,0,0.02413772,6.528587,0.2007689,-1
19,F,0,1,28,5,2,110,2,2531,2,0.4045986,12.40428,1.851606,-1
19,F,0,1,28,6,2,111,3,8086,0,0.1928117,12.1304,0.8908735,-1
19,F,0,1,28,7,2,112,4,920,0,0.1204266,12.32068,0.5485832,-1
19,F,0,1,28,8,1,109,1,1387,0,0.300818,6.166975,2.651144,-1
19,F,0,1,29,1,1,114,2,2898,0,5.346208E-08,6.547565,0.01978234,-1
19,F,0,1,29,2,2,113,1,1531,0,0.9783064,12.26973,4.514534,-1
19,F,0,1,29,3,1,115,3,2253,0,1.662028E-08,6.274131,0,-1
19,F,0,1,29,4,2,116,4,1009,0,0.7102414,12.32321,3.245522,-1
19,F,0,1,29,5,2,114,2,9999,0,-1,-1,-1,-1
19,F,0,1,29,6,1,116,4,4498,0,0.1561475,6.586886,1.282527,-1
19,F,0,1,29,7,2,115,3,3553,1,0.6420083,12.18276,2.99356,-1
19,F,0,1,29,8,1,113,1,3031,1,0.1395686,6.116685,1.240173,-1
19,F,0,1,30,1,2,120,4,954,0,0.5531313,12.34977,2.535976,-1
19,F,0,1,30,2,1,117,1,1487,0,0.1605816,6.12594,1.423953,-1
19,F,0,1,30,3,1,120,4,1331,0,0.1028907,6.586984,0.8481144,-1
19,F,0,1,30,4,2,119,3,4275,2,8.972766E-08,12.19083,0,-1
19,F,0,1,30,5,1,118,2,2220,0,0.279911,6.50534,2.321024,-1
19,F,0,1,30,6,2,117,1,1853,0,0.3001978,12.2269,1.375582,-1
19,F,0,1,30,7,2,118,2,9999,0,-1,-1,-1,-1
19,F,0,1,30,8,1,119,3,4376,1,0.05990256,6.407386,0.5151029,-1
19,F,0,1,31,1,1,122,2,3442,0,0.1999669,6.517108,1.684466,-1
19,F,0,1,31,2,2,121,1,1398,0,0.7378128,12.24628,3.376262,-1
19,F,0,1,31,3,2,123,3,3398,0,0.4318119,12.20068,2.007109,-1
19,F,0,1,31,4,1,124,4,6253,0,0.3866524,6.581542,3.18383,-1
19,F,0,1,31,5,1,123,3,3287,0,0.113072,6.391165,0.9753835,-1
19,F,0,1,31,6,2,124,4,1042,0,0.7653531,12.35664,3.434332,-1
19,F,0,1,31,7,2,122,2,953,0,0.3373105,12.39905,1.540022,-1
19,F,0,1,31,8,1,121,1,2309,0,0.06387144,6.122409,0.5716401,-1
19,F,0,1,32,1,2,127,3,2454,0,0.7677198,12.19699,3.572702,-1
19,F,0,1,32,2,1,126,2,3853,1,0.2704264,6.518453,2.270986,-1
19,F,0,1,32,3,1,128,4,3453,1,0.1351453,6.581933,1.112587,-1
19,F,0,1,32,4,2,125,1,1687,0,0.2981166,12.23395,1.378708,-1
19,F,0,1,32,5,2,128,4,820,0,0.5451188,12.34621,2.451442,-1
19,F,0,1,32,6,1,125,1,1720,0,0.4272877,6.1233,3.76702,-1
19,F,0,1,32,7,2,126,2,1042,0,0.189001,12.4025,0.8607104,-1
19,F,0,1,32,8,1,127,3,2476,0,0.3689381,6.384619,3.207599,-1
19,F,0,1,33,1,1,132,4,1976,0,0.4898283,6.55451,3.994147,-1
19,F,0,1,33,2,1,131,3,2576,0,0.521496,6.366333,4.51783,-1
19,F,0,1,33,3,1,130,2,4031,0,0.1330434,6.493074,1.112411,-1
19,F,0,1,33,4,2,131,3,2876,0,0.5281532,12.15213,2.438553,-1
19,F,0,1,33,5,2,129,1,2342,1,0.7366633,12.2091,3.361443,-1
19,F,0,1,33,6,2,130,2,2409,0,0.903157,12.38788,4.130099,-1
19,F,0,1,33,7,2,132,4,919,0,0.05212513,12.32692,0.235734,-1
19,F,0,1,33,8,1,129,1,1865,0,0.5168216,6.103745,4.556856,-1
19,F,0,1,34,1,1,135,3,2854,0,9.179115E-08,6.352517,0,-1
19,F,0,1,34,2,1,133,1,2109,0,0.2242917,6.102776,1.988594,-1
19,F,0,1,34,3,2,135,3,2853,0,0.1517512,12.15059,0.7038778,-1
19,F,0,1,34,4,1,134,2,2265,0,0.3555424,6.490603,2.969068,-1
19,F,0,1,34,5,2,136,4,1820,1,0.09039009,12.31478,0.4111691,-1
19,F,0,1,34,6,2,133,1,1687,0,0.9503058,12.20877,4.307844,-1
19,F,0,1,34,7,2,134,2,2876,0,0.004130514,12.36311,0.01978234,-1
19,F,0,1,34,8,1,136,4,3653,0,0.4833153,6.549547,3.962793,-1
19,F,0,1,35,1,2,138,2,1065,0,0.08284736,12.366,0.3763854,-1
19,F,0,1,35,2,2,137,1,2486,1,0.8487985,12.20514,3.867967,-1
19,F,0,1,35,3,1,139,3,3153,0,0.1081281,6.351353,0.9318824,-1
19,F,0,1,35,4,2,140,4,2453,3,1.487657E-07,12.32186,0,-1
19,F,0,1,35,5,2,139,3,6331,0,0.9459707,12.15872,4.374571,-1
19,F,0,1,35,6,1,137,1,1642,0,0.3187457,6.100201,2.831514,-1
19,F,0,1,35,7,1,138,2,4509,0,0.1302279,6.5002,1.096108,-1
19,F,0,1,35,8,1,140,4,2953,0,0.5168855,6.558315,4.272326,-1
19,F,0,1,37,1,3,147,3,2798,0,0.009783695,6.347527,0.08392937,-1
19,F,0,1,37,2,4,146,2,1076,0,0.232597,12.31692,1.05332,-1
19,F,0,1,37,3,4,145,1,1964,0,0.2551475,12.21572,1.180017,-1
19,F,0,1,37,4,4,148,4,1542,1,0.3668558,12.31138,1.67958,-1
19,F,0,1,37,5,3,145,1,4565,0,0.07379021,6.154158,0.6584912,-1
19,F,0,1,37,6,3,146,2,1720,0,1.083152E-07,6.510344,0,-1
19,F,0,1,37,7,3,148,4,4420,1,0.2493222,6.559471,2.046984,-1
19,F,0,1,37,8,4,147,3,1953,0,0.9876649,12.12509,4.645954,-1
19,F,0,1,38,1,4,150,2,1187,0,0.2745827,12.34756,1.242381,-1
19,F,0,1,38,2,3,149,1,1787,0,0.4052982,6.107267,3.623096,-1
19,F,0,1,38,3,4,152,4,976,0,0.569413,12.32317,2.581188,-1
19,F,0,1,38,4,4,151,3,1653,0,0.3249365,12.1764,1.50766,-1
19,F,0,1,38,5,3,152,4,3876,1,0.09963842,6.592582,0.8230571,-1
19,F,0,1,38,6,3,150,2,1342,0,0.3910215,6.513105,3.304405,-1
19,F,0,1,38,7,3,151,3,2842,0,0.483665,6.34755,4.224568,-1
19,F,0,1,38,8,4,149,1,1942,0,0.4685415,12.24659,2.131297,-1
19,F,0,1,39,1,3,156,4,2720,0,0.2747767,6.587601,2.257501,-1
19,F,0,1,39,2,3,155,3,2876,0,0.3727145,6.364733,3.245884,-1
19,F,0,1,39,3,4,154,2,809,0,0.08322745,12.31398,0.3774237,-1
19,F,0,1,39,4,3,153,1,1342,0,0.2803113,6.131814,2.489472,-1
19,F,0,1,39,5,4,156,4,1654,0,0.966635,12.33041,4.342802,-1
19,F,0,1,39,6,4,155,3,4053,0,0.1758776,12.13182,0.8101172,-1
19,F,0,1,39,7,3,154,2,1720,0,0.3893566,6.505374,3.293782,-1
19,F,0,1,39,8,4,153,1,2709,0,0.8395637,12.21455,3.830628,-1
19,F,0,1,40,1,3,159,3,4009,0,0.3042413,6.389263,2.624803,-1
19,F,0,1,40,2,4,158,2,9999,0,-1,-1,-1,-1
19,F,0,1,40,3,4,159,3,3465,0,0.8593578,12.17319,3.932285,-1
19,F,0,1,40,4,4,160,4,1742,1,0.7813359,12.40412,3.512738,-1
19,F,0,1,40,5,4,157,1,1276,0,0.4989004,12.27265,2.255506,-1
19,F,0,1,40,6,3,158,2,1676,0,0.1097866,6.528959,0.9104272,-1
19,F,0,1,40,7,3,160,4,5153,1,0.1010069,6.60629,0.8327476,-1
19,F,0,1,40,8,3,157,1,1376,0,0.3372867,6.137312,3.057615,-1
19,F,0,1,41,1,1,163,3,3331,0,0.3384045,6.351068,2.937383,-1
19,F,0,1,41,2,2,164,4,965,0,0.9538721,12.35305,4.30557,-1
19,F,0,1,41,3,2,161,1,5242,4,0.2252647,12.2448,1.025648,-1
19,F,0,1,41,4,2,162,2,1142,0,0.5046383,12.40259,2.273225,-1
19,F,0,1,41,5,1,164,4,3620,1,0.1247223,6.574399,1.028125,-1
19,F,0,1,41,6,1,161,1,2120,0,6.305057E-08,6.138101,0,-1
19,F,0,1,41,7,2,163,3,3053,1,5.434317E-08,12.16058,0,-1
19,F,0,1,41,8,1,162,2,2098,0,0.0783615,6.5365,0.6558113,-1
19,F,0,1,42,1,1,167,3,3776,0,0.3517739,6.34698,3.0695,-1
19,F,0,1,42,2,2,166,2,9999,0,-1,-1,-1,-1
19,F,0,1,42,3,2,165,1,3642,3,0.7236488,12.25325,3.293485,-1
19,F,0,1,42,4,1,166,2,2387,1,1.325611E-07,6.53007,0,-1
19,F,0,1,42,5,1,168,4,2831,1,1.490883E-07,6.586891,0.01978234,-1
19,F,0,1,42,6,1,165,1,1453,0,1.103451E-07,6.136105,0,-1
19,F,0,1,42,7,2,168,4,865,0,0.2971881,12.36295,1.353352,-1
19,F,0,1,42,8,2,167,3,4009,0,0.2299666,12.18455,1.062384,-1
19,F,0,1,43,1,1,169,1,1620,0,0.1376523,6.140362,1.217401,-1
19,F,0,1,43,2,1,172,4,2031,0,0.2610089,6.580834,2.135059,-1
19,F,0,1,43,3,1,171,3,3509,0,1.650625E-07,6.365895,0,-1
19,F,0,1,43,4,2,172,4,1476,1,0.2296194,12.35531,1.036843,-1
19,F,0,1,43,5,2,170,2,2064,1,0.6473204,12.4012,2.912957,-1
19,F,0,1,43,6,2,169,1,2398,0,0.2534757,12.25242,1.161127,-1
19,F,0,1,43,7,2,171,3,2764,0,0.4537626,12.17156,2.101427,-1
19,F,0,1,43,8,1,170,2,2309,0,0.2216683,6.527384,1.858464,-1
19,F,0,1,44,1,2,176,4,1042,0,0.4619175,12.34813,2.081213,-1
19,F,0,1,44,2,1,173,1,2653,0,0.003580365,6.131214,0.03426402,-1
19,F,0,1,44,3,2,174,2,1187,0,0.2690881,12.40744,1.214665,-1
19,F,0,1,44,4,1,175,3,3353,0,0.3315832,6.35914,2.885951,-1
19,F,0,1,44,5,1,174,2,3576,0,0.2094363,6.524736,1.740576,-1
19,F,0,1,44,6,1,176,4,3276,1,0.0275809,6.59058,0.2272819,-1
19,F,0,1,44,7,2,175,3,3487,0,1.04279E-07,12.17767,0,-1
19,F,0,1,44,8,2,173,1,1520,0,0.1368499,12.25674,0.6240098,-1
19,F,0,1,45,1,1,180,4,1942,0,0.5127831,6.579652,4.16363,-1
19,F,0,1,45,2,2,177,1,1842,0,2.116262E-07,12.25562,0,-1
19,F,0,1,45,3,1,178,2,2631,0,0.1564598,6.528544,1.299804,-1
19,F,0,1,45,4,1,177,1,1898,0,0.2606408,6.119812,2.318324,-1
19,F,0,1,45,5,2,180,4,1509,0,0.09081506,12.36295,0.4111691,-1
19,F,0,1,45,6,1,179,3,2953,0,0.05240133,6.364538,0.453703,-1
19,F,0,1,45,7,2,178,2,1087,0,4.505979E-08,12.4046,0,-1
19,F,0,1,45,8,2,179,3,2842,0,1.109829E-07,12.1735,0,-1
19,F,0,1,46,1,2,181,1,2242,0,0.3894274,12.24369,1.787613,-1
19,F,0,1,46,2,1,183,3,3609,0,0.3043744,6.365742,2.636336,-1
19,F,0,1,46,3,1,181,1,1953,0,0.3445818,6.140017,3.034156,-1
19,F,0,1,46,4,2,182,2,942,0,0.472022,12.40535,2.127345,-1
19,F,0,1,46,5,1,184,4,3853,1,0.1666475,6.590697,1.36845,-1
19,F,0,1,46,6,1,182,2,4087,0,0.1840639,6.529366,1.530207,-1
19,F,0,1,46,7,2,184,4,1576,1,0.4060455,12.35126,1.832162,-1
19,F,0,1,46,8,2,183,3,2631,0,0.6577961,12.17838,3.042596,-1
19,F,0,1,47,1,2,185,1,1976,0,0.5424204,12.25361,2.471718,-1
19,F,0,1,47,2,2,188,4,898,0,0.889173,12.35053,3.993902,-1
19,F,0,1,47,3,1,185,1,2020,0,0.1862415,6.123724,1.676314,-1
19,F,0,1,47,4,1,187,3,9999,0,-1,-1,-1,-1
19,F,0,1,47,5,1,188,4,2609,0,0.5058303,6.584536,4.119939,-1
19,F,0,1,47,6,2,186,2,2409,2,0.5694373,12.41637,2.564451,-1
19,F,0,1,47,7,2,187,3,2876,0,6.590963E-08,12.18131,0,-1
19,F,0,1,47,8,1,186,2,1865,0,0.2365225,6.532388,1.981397,-1
19,F,0,1,48,1,1,192,4,3153,1,0.1721844,6.589247,1.412777,-1
19,F,0,1,48,2,2,191,3,2987,0,0.2310121,12.17516,1.069177,-1
19,F,0,1,48,3,2,192,4,1009,0,0.463526,12.35896,2.087317,-1
19,F,0,1,48,4,2,190,2,1842,0,0.6590188,12.40679,2.968474,-1
19,F,0,1,48,5,1,191,3,3276,0,0.1476777,6.362015,1.27993,-1
19,F,0,1,48,6,1,189,1,3465,1,0.03994789,6.132322,0.3544303,-1
19,F,0,1,48,7,1,190,2,2165,0,0.3642683,6.524536,3.056014,-1
19,F,0,1,48,8,2,189,1,1298,0,0.3989894,12.25086,1.811105,-1
19,F,0,1,49,1,1,196,4,3020,1,0.3300926,6.597907,2.685986,-1
19,F,0,1,49,2,2,194,2,1531,1,1.823675E-07,12.42844,0,-1
19,F,0,1,49,3,2,195,3,3664,0,0.3060803,12.2001,1.420238,-1
19,F,0,1,49,4,1,194,2,1597,0,0.3535872,6.54391,2.930511,-1
19,F,0,1,49,5,1,193,1,1565,0,0.107362,6.155506,0.9485323,-1
19,F,0,1,49,6,2,196,4,1120,0,0.4266667,12.36973,1.920404,-1
19,F,0,1,49,7,1,195,3,2987,0,5.978826E-07,6.374943,0,-1
19,F,0,1,49,8,2,193,1,1587,0,0.6083186,12.28516,2.744024,-1
19,F,0,1,50,1,1,198,2,1942,0,0.0064098,6.544171,0.05595291,-1
19,F,0,1,50,2,2,197,1,1398,0,0.869233,12.27919,3.921463,-1
19,F,0,1,50,3,1,200,4,3709,1,1.858833E-07,6.608752,0,-1
19,F,0,1,50,4,2,199,3,2642,0,0.2733135,12.20206,1.253514,-1
19,F,0,1,50,5,2,200,4,1109,0,0.3743174,12.37493,1.691076,-1
19,F,0,1,50,6,1,199,3,3109,0,6.802973E-08,6.3778,0,-1
19,F,0,1,50,7,1,197,1,5753,1,0.5059018,6.16886,4.456368,-1
19,F,0,1,50,8,2,198,2,1453,0,0.2162809,12.42937,0.9759852,-1
19,F,0,1,51,1,2,204,4,976,0,0.8630777,12.37218,3.864017,-1
19,F,0,1,51,2,1,201,1,1642,0,0.4477315,6.161224,3.915317,-1
19,F,0,1,51,3,1,204,4,4020,1,1.500845E-07,6.609674,0,-1
19,F,0,1,51,4,2,203,3,2387,0,0.5428411,12.19643,2.522666,-1
19,F,0,1,51,5,2,201,1,1609,0,0.5939472,12.27438,2.682996,-1
19,F,0,1,51,6,1,202,2,1998,0,0.4438357,6.541333,3.715309,-1
19,F,0,1,51,7,1,203,3,3953,0,0.530398,6.382349,4.582104,-1
19,F,0,1,51,8,2,202,2,1520,0,0.4158946,12.42784,1.870953,-1
19,F,0,1,52,1,1,208,4,3642,1,0.0526336,6.611499,0.4329587,-1
19,F,0,1,52,2,1,207,3,2498,1,0.09538963,6.343181,0.8289794,-1
19,F,0,1,52,3,2,205,1,1631,0,0.1695266,12.2639,0.7722777,-1
19,F,0,1,52,4,2,207,3,2776,0,6.513849E-08,12.17206,0,-1
19,F,0,1,52,5,1,205,1,1709,0,0.2537432,6.134077,2.24088,-1
19,F,0,1,52,6,1,206,2,3720,0,0.2840171,6.532919,2.379568,-1
19,F,0,1,52,7,2,208,4,953,0,0.04525035,12.35326,0.2046302,-1
19,F,0,1,52,8,2,206,2,6253,0,0.01171258,12.40248,0.05233916,-1
19,F,0,1,53,1,2,209,1,1465,0,0.03376796,12.2513,0.1557664,-1
19,F,0,1,53,2,1,210,2,1798,0,0.1631132,6.525472,1.364727,-1
19,F,0,1,53,3,2,212,4,953,0,0.3875305,12.34413,1.752788,-1
19,F,0,1,53,4,2,210,2,787,0,0.2453295,12.39896,1.111884,-1
19,F,0,1,53,5,1,211,3,3553,1,0.3751659,6.338425,3.279248,-1
19,F,0,1,53,6,1,209,1,1487,0,0.3262034,6.131493,2.876576,-1
19,F,0,1,53,7,2,211,3,2475,0,0.6587427,12.16324,3.048253,-1
19,F,0,1,53,8,1,212,4,3009,1,0.409278,6.578843,3.371272,-1
19,F,0,1,54,1,2,213,1,1376,0,0.798641,12.24853,3.631462,-1
19,F,0,1,54,2,1,215,3,6720,0,0.398684,6.366385,3.451109,-1
19,F,0,1,54,3,2,216,4,1365,1,4.721367E-08,12.34817,0,-1
19,F,0,1,54,4,2,214,2,2098,0,0.08854008,12.40101,0.4020255,-1
19,F,0,1,54,5,2,215,3,2509,0,0.2482689,12.16075,1.150801,-1
19,F,0,1,54,6,1,213,1,2420,0,9.018489E-08,6.125832,0,-1
19,F,0,1,54,7,1,216,4,1853,0,0.4726003,6.572599,3.897471,-1
19,F,0,1,54,8,1,214,2,3720,0,0.263533,6.530282,2.20327,-1
19,F,0,1,55,1,2,217,1,1565,0,0.2101483,12.25641,0.9620516,-1
19,F,0,1,55,2,1,218,2,4487,0,0.1153583,6.526704,0.9671232,-1
19,F,0,1,55,3,2,219,3,3009,0,0.08542764,12.16889,0.3946573,-1
19,F,0,1,55,4,2,220,4,1776,0,0.8145902,12.35028,3.65677,-1
19,F,0,1,55,5,2,218,2,9999,3,-1,-1,-1,-1
19,F,0,1,55,6,1,217,1,1387,0,0.1309837,6.139971,1.159441,-1
19,F,0,1,55,7,1,219,3,2153,0,0.2851712,6.352052,2.47599,-1
19,F,0,1,55,8,1,220,4,2165,1,0.4263435,6.579293,3.511734,-1
19,F,0,1,56,1,1,222,2,1787,0,0.215229,6.532425,1.803091,-1
19,F,0,1,56,2,2,223,3,6064,0,0.8725047,12.18674,3.989585,-1
19,F,0,1,56,3,2,221,1,6097,0,0.9573959,12.25995,4.346318,-1
19,F,0,1,56,4,1,224,4,4331,0,0.5324808,6.578858,4.388027,-1
19,F,0,1,56,5,1,221,1,1354,0,0.5229667,6.141116,4.593247,-1
19,F,0,1,56,6,2,224,4,854,0,0.1549993,12.3476,0.7010924,-1
19,F,0,1,56,7,1,223,3,2620,0,0.4336772,6.34769,3.769826,-1
19,F,0,1,56,8,2,222,2,1053,0,0.7779145,12.40154,3.508387,-1
19,F,0,1,57,1,4,228,4,1298,0,0.5844969,12.39105,2.634182,-1
19,F,0,1,57,2,3,225,1,2042,1,2.114244E-07,6.175871,0,-1
19,F,0,1,57,3,3,226,2,4465,0,0.2986769,6.553943,2.508271,-1
19,F,0,1,57,4,4,225,1,1631,0,0.4457138,12.31113,2.023714,-1
19,F,0,1,57,5,3,228,4,4287,0,0.5349666,6.580959,4.330969,-1
19,F,0,1,57,6,4,227,3,2531,0,0.3007378,12.15403,1.379559,-1
19,F,0,1,57,7,4,226,2,831,0,0.4674013,12.34947,2.102265,-1
19,F,0,1,57,8,3,227,3,3186,0,0.316187,6.349462,2.758964,-1
19,F,0,1,58,1,4,229,1,2097,1,0.3366717,12.25903,1.528159,-1
19,F,0,1,58,2,3,230,2,9999,2,-1,-1,-1,-1
19,F,0,1,58,3,3,229,1,1576,0,0.04528636,6.17823,0.4015385,-1
19,F,0,1,58,4,4,231,3,2076,0,0.3350908,12.14977,1.551921,-1
19,F,0,1,58,5,4,232,4,1854,0,0.8258095,12.42013,3.767384,-1
19,F,0,1,58,6,3,231,3,4209,1,0.190094,6.352251,1.650787,-1
19,F,0,1,58,7,3,232,4,3620,1,0.2882987,6.600088,2.396371,-1
19,F,0,1,58,8,4,230,2,1698,1,0.8941725,12.36899,4.03012,-1
19,F,0,1,59,1,3,236,4,3309,1,0.211199,6.59359,1.756914,-1
19,F,0,1,59,2,4,234,2,1542,1,0.8272433,12.40749,3.729512,-1
19,F,0,1,59,3,4,235,3,3553,0,0.7605332,12.17617,3.557159,-1
19,F,0,1,59,4,4,233,1,2076,0,0.5508761,12.2985,2.515595,-1
19,F,0,1,59,5,3,235,3,3630,0,0.4169897,6.35102,3.622122,-1
19,F,0,1,59,6,3,234,2,3442,1,0.01322373,6.51159,0.1101434,-1
19,F,0,1,59,7,3,233,1,6053,0,0.2736728,6.172446,2.415002,-1
19,F,0,1,59,8,4,236,4,1109,0,0.6823245,12.35363,3.063755,-1
19,F,0,1,60,1,4,237,1,1831,1,0.25494,12.24897,1.173198,-1
19,F,0,1,60,2,3,238,2,1820,0,0.4691856,6.542371,3.948784,-1
19,F,0,1,60,3,4,240,4,9999,0,-1,-1,-1,-1
19,F,0,1,60,4,4,239,3,2520,0,0.5870826,12.12806,2.735665,-1
19,F,0,1,60,5,3,240,4,5509,0,0.2895851,6.563834,2.395799,-1
19,F,0,1,60,6,3,237,1,3531,1,0.252197,6.109648,2.258368,-1
19,F,0,1,60,7,4,238,2,9999,0,-1,-1,-1,-1
19,F,0,1,60,8,3,239,3,2909,0,1.751046E-07,6.380209,0,-1
19,F,0,1,61,1,2,241,1,5875,0,0.9778876,12.21116,4.492177,-1
19,F,0,1,61,2,2,244,4,2142,1,0.1952878,12.34613,0.8866904,-1
19,F,0,1,61,3,1,242,2,4620,0,0.433869,6.491261,3.658804,-1
19,F,0,1,61,4,1,243,3,3164,0,0.3112492,6.378541,2.692464,-1
19,F,0,1,61,5,1,244,4,5865,1,0.1869903,6.597438,1.531741,-1
19,F,0,1,61,6,2,243,3,2698,0,0.1634576,12.18354,0.7566639,-1
19,F,0,1,61,7,1,241,1,1776,0,0.2401969,6.129174,2.120987,-1
19,F,0,1,61,8,2,242,2,1409,0,0.59217,12.41103,2.667998,-1
19,F,0,1,62,1,2,248,4,964,0,0.7170121,12.37475,3.217107,-1
19,F,0,1,62,2,1,247,3,2353,0,0.4137588,6.417813,3.555893,-1
19,F,0,1,62,3,1,248,4,2998,1,0.1887594,6.629418,1.538497,-1
19,F,0,1,62,4,2,247,3,2731,0,0.2524056,12.20263,1.166004,-1
19,F,0,1,62,5,2,246,2,4520,0,0.1746251,12.42296,0.7895671,-1
19,F,0,1,62,6,2,245,1,1742,0,0.5321355,12.24963,2.412245,-1
19,F,0,1,62,7,1,246,2,5731,1,0.1851617,6.525433,1.575201,-1
19,F,0,1,62,8,1,245,1,1720,0,0.4432059,6.134966,4.050767,-1
19,F,0,1,1,1,5,4,4,8796,0,4.950874,6.626304,48.34451,-1
19,F,0,1,1,2,7,3,3,2542,0,0.3130984,6.392367,2.714403,-1
19,F,0,1,1,3,8,4,4,2564,0,0.6735749,12.43633,3.029119,-1
19,F,0,1,1,4,8,3,3,5964,0,4.661106,12.24463,22.15305,-1
19,F,0,1,1,5,8,2,2,4931,0,4.653398,12.35178,22.13184,-1
19,F,0,1,1,6,5,1,1,3486,0,2.917572,6.168405,28.22834,-1
19,F,0,1,1,7,7,4,4,4831,0,4.871136,6.634457,47.24115,-1
19,F,0,1,1,8,7,1,1,4753,0,2.641737,6.198398,25.22643,-1
19,F,0,1,1,9,5,2,2,4564,0,6.052027,6.552967,67.45151,-1
19,F,0,1,1,10,8,1,1,3064,0,2.638964,12.30084,12.19849,-1
19,F,0,1,1,11,6,2,2,6531,0,6.932097,12.41607,33.72221,-1
19,F,0,1,1,12,6,1,1,3686,0,4.259846,12.27806,20.30074,-1
19,F,0,1,1,13,5,3,3,3975,0,0.2968498,6.428856,2.545221,-1
19,F,0,1,1,14,6,4,4,3753,0,1.674571,12.38417,7.538717,-1
19,F,0,1,1,15,6,3,3,4830,0,1.927383,12.21227,9.010509,-1
19,F,0,1,1,16,7,2,2,4331,0,6.207603,6.569702,70.88855,-1
19,F,0,1,2,1,6,3,3,3942,0,6.526766,12.22062,32.00742,-1
19,F,0,1,2,2,6,1,1,1964,0,6.008613,12.27534,29.30685,-1
19,F,0,1,2,3,8,2,2,5931,0,7.546846,12.35928,37.63446,-1
19,F,0,1,2,4,5,4,4,2576,0,3.995279,6.631254,35.82171,-1
19,F,0,1,2,5,7,3,3,4420,0,4.894033,6.444322,49.17752,-1
19,F,0,1,2,6,8,4,4,4942,0,3.462251,12.44461,16.15355,-1
19,F,0,1,2,7,5,3,3,2031,0,4.485603,6.456124,41.99908,-1
19,F,0,1,2,8,6,4,4,2376,0,0.9810934,12.39194,4.445146,-1
19,F,0,1,2,9,7,2,2,2209,0,6.107258,6.56479,68.48243,-1
19,F,0,1,2,10,7,1,1,3031,0,2.313927,6.216887,21.85138,-1
19,F,0,1,2,11,5,2,2,3431,0,4.928555,6.541224,48.89103,-1
19,F,0,1,2,12,8,3,3,2487,0,3.542187,12.25605,16.79902,-1
19,F,0,1,2,13,5,1,1,987,0,2.23917,6.166214,20.93959,-1
19,F,0,1,2,14,6,2,2,1487,0,5.82337,12.42746,27.94273,-1
19,F,0,1,2,15,7,4,4,1187,0,4.554885,6.644688,43.27436,-1
19,F,0,1,2,16,8,1,1,1687,0,6.644857,12.32552,32.62332,-1
