Age, Gender, Awareness Type, Session, Block, Trial, Set, Pattern, Quadrant, Response Time, Num Mistakes, Distance From Target, Camera Distance From Target, Angle Error (Degrees), FC Response
18,F,0,1,1,1,1,2,2,6887,0,0.3855905,6.535069,3.295565,-1
18,F,0,1,1,2,1,1,1,8575,0,0.3865767,6.192458,3.439231,-1
18,F,0,1,1,3,2,2,2,9999,1,-1,-1,-1,-1
18,F,0,1,1,4,2,3,3,9999,2,-1,-1,-1,-1
18,F,0,1,1,5,1,4,4,9999,2,-1,-1,-1,-1
18,F,0,1,1,6,1,3,3,6242,0,0.4851687,5.990834,4.436413,-1
18,F,0,1,1,7,2,4,4,9999,3,-1,-1,-1,-1
18,F,0,1,1,8,2,1,1,9999,2,-1,-1,-1,-1
18,F,0,1,2,1,2,6,2,7887,0,0.4431553,12.2074,2.0398,-1
18,F,0,1,2,2,2,7,3,5297,0,0.6926892,11.97192,3.226222,-1
18,F,0,1,2,3,2,5,1,8364,0,0.3405433,11.95715,1.607178,-1
18,F,0,1,2,4,1,8,4,9999,4,-1,-1,-1,-1
18,F,0,1,2,5,1,5,1,6109,1,0.5216953,6.142772,4.723105,-1
18,F,0,1,2,6,1,7,3,3098,0,0.17759,5.867352,1.633147,-1
18,F,0,1,2,7,2,8,4,3487,1,0.966727,12.11314,4.465106,-1
18,F,0,1,2,8,1,6,2,2498,1,0.3951557,6.478745,3.396152,-1
18,F,0,1,3,1,2,9,1,9999,0,-1,-1,-1,-1
18,F,0,1,3,2,1,10,2,5464,0,0.499146,6.409845,4.363812,-1
18,F,0,1,3,3,1,11,3,6120,1,0.1380816,5.852479,1.292255,-1
18,F,0,1,3,4,1,9,1,2564,0,0.09719167,6.081394,0.8791551,-1
18,F,0,1,3,5,2,12,4,9999,0,-1,-1,-1,-1
18,F,0,1,3,6,2,11,3,6142,0,0.4650104,11.98481,2.189816,-1
18,F,0,1,3,7,2,10,2,3142,1,0.9043338,12.18985,4.164618,-1
18,F,0,1,3,8,1,12,4,3176,0,0.1900717,6.315555,1.662834,-1
18,F,0,1,4,1,1,14,2,4820,2,0.4853582,6.437152,4.205424,-1
18,F,0,1,4,2,2,15,3,8031,1,0.8859825,12.00477,4.153694,-1
18,F,0,1,4,3,2,13,1,7609,0,0.5044532,11.9554,2.388681,-1
18,F,0,1,4,4,1,15,3,5520,1,0.09160389,5.945103,0.8364988,-1
18,F,0,1,4,5,2,16,4,5587,0,0.759339,12.23445,3.477108,-1
18,F,0,1,4,6,1,13,1,3831,0,0.5114442,6.159911,4.607682,-1
18,F,0,1,4,7,1,16,4,4631,0,0.4707977,6.359665,4.094142,-1
18,F,0,1,4,8,2,14,2,2376,0,1.020822,12.2533,4.70178,-1
18,F,0,1,5,1,1,17,1,4342,1,0.431237,6.187808,3.839512,-1
18,F,0,1,5,2,2,19,3,3298,1,0.883567,12.09299,4.087968,-1
18,F,0,1,5,3,2,20,4,3698,1,0.7380399,12.24423,3.376784,-1
18,F,0,1,5,4,1,19,3,5253,2,0.2792375,5.887219,2.61112,-1
18,F,0,1,5,5,1,18,2,2387,1,0.5493674,6.455705,4.768879,-1
18,F,0,1,5,6,1,20,4,3353,0,0.5291271,6.320773,4.625164,-1
18,F,0,1,5,7,2,18,2,2920,1,0.7948503,12.2053,3.700205,-1
18,F,0,1,5,8,2,17,1,4120,0,0.6483387,12.00742,3.058319,-1
18,F,0,1,6,1,1,23,3,9999,0,-1,-1,-1,-1
18,F,0,1,6,2,2,21,1,4198,0,0.5922412,12.02421,2.799742,-1
18,F,0,1,6,3,2,22,2,3742,2,0.7053491,12.23905,3.254618,-1
18,F,0,1,6,4,2,24,4,5698,0,1.011481,12.26683,4.621986,-1
18,F,0,1,6,5,1,22,2,2598,0,0.4223996,6.474291,3.6418,-1
18,F,0,1,6,6,1,21,1,2709,0,0.4496293,6.167852,4.021511,-1
18,F,0,1,6,7,2,23,3,7131,2,0.6830583,12.05754,3.159449,-1
18,F,0,1,6,8,1,24,4,6975,1,0.3750279,6.352815,3.263868,-1
18,F,0,1,7,1,2,25,1,6798,0,0.6534166,12.00165,3.095412,-1
18,F,0,1,7,2,2,28,4,9999,0,-1,-1,-1,-1
18,F,0,1,7,3,1,27,3,7287,0,0.4644195,6.033903,4.279197,-1
18,F,0,1,7,4,1,26,2,2987,0,0.5427526,6.501317,4.667911,-1
18,F,0,1,7,5,1,25,1,3953,1,0.3587355,6.142764,3.217046,-1
18,F,0,1,7,6,1,28,4,5009,1,0.4203561,6.379691,3.637389,-1
18,F,0,1,7,7,2,26,2,2564,0,0.8310137,12.26129,3.851275,-1
18,F,0,1,7,8,2,27,3,4320,0,0.9064797,12.12593,4.17298,-1
18,F,0,1,8,1,1,32,4,9999,4,-1,-1,-1,-1
18,F,0,1,8,2,1,31,3,4487,0,0.2182108,6.003534,1.980705,-1
18,F,0,1,8,3,1,30,2,4287,2,0.3362621,6.432265,2.908518,-1
18,F,0,1,8,4,2,31,3,4076,0,0.8269905,12.12369,3.809817,-1
18,F,0,1,8,5,2,29,1,3931,0,0.4575041,12.04529,2.145575,-1
18,F,0,1,8,6,2,30,2,4864,0,0.9721335,12.26344,4.505805,-1
18,F,0,1,8,7,1,29,1,5653,0,0.4030163,6.180952,3.592432,-1
18,F,0,1,8,8,2,32,4,9999,5,-1,-1,-1,-1
18,F,0,1,9,1,2,34,2,5486,1,0.4888582,12.22243,2.266327,-1
18,F,0,1,9,2,2,33,1,2820,0,0.6275017,12.02573,2.963326,-1
18,F,0,1,9,3,1,34,2,3664,0,0.4648534,6.49035,3.982511,-1
18,F,0,1,9,4,1,36,4,7108,2,0.4770844,6.323453,4.170867,-1
18,F,0,1,9,5,1,33,1,2676,0,0.3357956,6.141216,3.011164,-1
18,F,0,1,9,6,1,35,3,2576,0,0.1207379,5.987794,1.092711,-1
18,F,0,1,9,7,2,36,4,4976,1,0.9687781,12.20879,4.447084,-1
18,F,0,1,9,8,2,35,3,6231,1,0.9751062,12.06597,4.518784,-1
18,F,0,1,10,1,2,38,2,3998,2,1.009797,12.22841,4.694149,-1
18,F,0,1,10,2,2,39,3,4065,0,0.9337088,12.06843,4.322822,-1
18,F,0,1,10,3,1,40,4,6064,1,0.3930781,6.337423,3.384487,-1
18,F,0,1,10,4,1,39,3,3031,0,0.3376392,5.993698,3.020511,-1
18,F,0,1,10,5,2,37,1,4209,1,0.8193276,12.03151,3.872622,-1
18,F,0,1,10,6,1,38,2,9864,0,0.5440399,6.528018,4.673447,-1
18,F,0,1,10,7,2,40,4,3576,0,0.8305231,12.22403,3.80668,-1
18,F,0,1,10,8,1,37,1,2253,0,0.2587342,6.128932,2.324395,-1
18,F,0,1,11,1,2,42,2,9999,5,-1,-1,-1,-1
18,F,0,1,11,2,1,43,3,3087,0,0.3542899,5.995103,3.184875,-1
18,F,0,1,11,3,1,41,1,2442,0,0.1935648,6.122354,1.740576,-1
18,F,0,1,11,4,2,43,3,3231,0,0.6057528,12.07226,2.798203,-1
18,F,0,1,11,5,2,44,4,9999,5,-1,-1,-1,-1
18,F,0,1,11,6,2,41,1,6498,2,0.8157323,12.00494,3.86427,-1
18,F,0,1,11,7,1,44,4,4531,0,0.2494081,6.382243,2.160211,-1
18,F,0,1,11,8,1,42,2,4020,0,0.04933386,6.500995,0.4177785,-1
18,F,0,1,12,1,2,45,1,3653,1,0.9613332,12.03157,4.545278,-1
18,F,0,1,12,2,2,48,4,4153,0,0.4816964,12.27239,2.19838,-1
18,F,0,1,12,3,1,46,2,2998,0,0.1927645,6.510043,1.638411,-1
18,F,0,1,12,4,1,48,4,3376,0,0.3625146,6.386903,3.138685,-1
18,F,0,1,12,5,2,47,3,3698,0,0.6168803,12.11763,2.839108,-1
18,F,0,1,12,6,2,46,2,2620,1,1.035371,12.25966,4.801018,-1
18,F,0,1,12,7,1,45,1,2809,0,0.2514442,6.186629,2.238608,-1
18,F,0,1,12,8,1,47,3,2431,0,0.4798949,6.025052,4.31257,-1
18,F,0,1,13,1,1,52,4,5087,1,0.1774375,6.454957,1.52007,-1
18,F,0,1,13,2,2,49,1,8420,2,0.5656238,12.03911,2.667485,-1
18,F,0,1,13,3,2,52,4,6609,0,0.86335,12.30945,3.910062,-1
18,F,0,1,13,4,2,50,2,587,0,0.5840129,12.27152,2.645305,-1
18,F,0,1,13,5,1,49,1,2553,0,0.05052935,6.171864,0.450674,-1
18,F,0,1,13,6,1,51,3,2576,0,0.1858877,6.046938,1.660361,-1
18,F,0,1,13,7,1,50,2,6498,0,0.04193697,6.502097,0.354982,-1
18,F,0,1,13,8,2,51,3,4165,0,0.01213972,12.14268,0.05934703,-1
18,F,0,1,14,1,1,56,4,4153,0,0.04917214,6.416764,0.4177785,-1
18,F,0,1,14,2,1,54,2,2342,0,7.374704E-08,6.507145,0.01978234,-1
18,F,0,1,14,3,1,53,1,2442,0,0.1025644,6.158187,0.9170658,-1
18,F,0,1,14,4,1,55,3,2165,0,0.08958662,6.047587,0.8047857,-1
18,F,0,1,14,5,2,53,1,3075,0,0.5256164,12.03657,2.478993,-1
18,F,0,1,14,6,2,55,3,3609,0,0.07686606,12.1376,0.3555328,-1
18,F,0,1,14,7,2,56,4,2531,0,0.4482063,12.29971,2.039417,-1
18,F,0,1,14,8,2,54,2,1542,0,0.1066295,12.26973,0.4869847,-1
18,F,0,1,15,1,2,59,3,4542,0,0.1863634,12.13348,0.867504,-1
18,F,0,1,15,2,2,60,4,4120,0,0.5063241,12.29857,2.305881,-1
18,F,0,1,15,3,1,58,2,4487,0,3.714615E-08,6.515886,0,-1
18,F,0,1,15,4,1,57,1,2220,0,0.1801006,6.160926,1.609611,-1
18,F,0,1,15,5,1,59,3,2387,0,0.06549354,6.029449,0.590498,-1
18,F,0,1,15,6,1,60,4,2653,0,0.07168159,6.420388,0.6097356,-1
18,F,0,1,15,7,2,58,2,2698,0,0.08153921,12.25897,0.373777,-1
18,F,0,1,15,8,2,57,1,2253,0,0.5283797,12.03506,2.492693,-1
18,F,0,1,16,1,2,62,2,2176,0,1.514238E-07,12.26477,0,-1
18,F,0,1,16,2,2,63,3,2642,0,0.3846172,12.11597,1.795914,-1
18,F,0,1,16,3,1,64,4,3931,0,0.05592244,6.413393,0.4764233,-1
18,F,0,1,16,4,2,61,1,2042,0,0.8150177,12.04187,3.849088,-1
18,F,0,1,16,5,1,62,2,2120,0,0.4574617,6.527368,3.863459,-1
18,F,0,1,16,6,1,61,1,4509,0,0.225452,6.172199,2.011784,-1
18,F,0,1,16,7,2,64,4,4386,0,1.031527,12.28429,4.707151,-1
18,F,0,1,16,8,1,63,3,3220,0,0.04255278,6.028012,0.3841043,-1
18,F,0,1,17,1,4,68,4,4809,0,0.5135233,12.29632,2.372979,-1
18,F,0,1,17,2,4,66,2,1576,0,0.1224932,12.30143,0.5616257,-1
18,F,0,1,17,3,3,68,4,4342,0,0.3475782,6.383449,2.969529,-1
18,F,0,1,17,4,3,66,2,1409,0,0.2155959,6.509866,1.802006,-1
18,F,0,1,17,5,4,65,1,2620,0,0.8391572,12.03262,3.9663,-1
18,F,0,1,17,6,4,67,3,2942,0,0.1642468,12.04878,0.7613045,-1
18,F,0,1,17,7,3,65,1,2153,0,0.02692578,6.18728,0.2382111,-1
18,F,0,1,17,8,3,67,3,9999,0,-1,-1,-1,-1
18,F,0,1,18,1,4,70,2,4031,0,0.6111647,12.28134,2.794143,-1
18,F,0,1,18,2,4,69,1,6175,0,0.3100143,12.13721,1.447668,-1
18,F,0,1,18,3,3,71,3,5120,0,7.565769E-08,6.029069,0,-1
18,F,0,1,18,4,3,70,2,2231,0,0.3913055,6.50297,3.30073,-1
18,F,0,1,18,5,4,72,4,2531,1,0.0554973,12.25711,0.2533378,-1
18,F,0,1,18,6,4,71,3,3697,0,0.4872738,12.11402,2.27933,-1
18,F,0,1,18,7,3,69,1,2498,0,0.07817551,6.251156,0.6921035,-1
18,F,0,1,18,8,3,72,4,4276,0,3.042594E-07,6.412504,0,-1
18,F,0,1,19,1,4,73,1,6709,0,0.2870294,12.13445,1.339837,-1
18,F,0,1,19,2,4,74,2,2053,0,0.4269693,12.32248,1.942796,-1
18,F,0,1,19,3,4,75,3,4009,0,0.3002589,12.11555,1.39072,-1
18,F,0,1,19,4,3,73,1,2664,0,0.0432529,6.279227,0.3820612,-1
18,F,0,1,19,5,3,76,4,3654,0,0.2059409,6.37183,1.767686,-1
18,F,0,1,19,6,3,75,3,2542,0,0.3148572,6.047991,2.846751,-1
18,F,0,1,19,7,4,76,4,3320,0,2.315665E-07,12.21908,0,-1
18,F,0,1,19,8,3,74,2,2442,0,0.07418608,6.496846,0.6271377,-1
18,F,0,1,20,1,4,77,1,3409,0,0.383447,12.05542,1.805369,-1
18,F,0,1,20,2,4,78,2,2475,0,0.5491536,12.24812,2.497792,-1
18,F,0,1,20,3,3,80,4,2842,0,0.09262618,6.364707,0.7977034,-1
18,F,0,1,20,4,4,79,3,4031,0,0.4519622,12.11339,2.082811,-1
18,F,0,1,20,5,4,80,4,2298,0,0.3330927,12.21871,1.517622,-1
18,F,0,1,20,6,3,77,1,2864,0,0.1075379,6.23756,0.9433607,-1
18,F,0,1,20,7,3,78,2,3697,0,0.005573541,6.518852,0.04845664,-1
18,F,0,1,20,8,3,79,3,2865,0,4.273707E-08,6.052576,0,-1
18,F,0,1,20,1,2,80,4,3953,0,0.3248861,12.28751,1.480548,-1
18,F,0,1,20,2,1,79,3,2576,0,0.102437,6.032612,0.9211111,-1
18,F,0,1,20,3,1,78,2,2365,0,0.04793326,6.529903,0.4044518,-1
18,F,0,1,20,4,1,80,4,3220,0,0.03403815,6.398529,0.2934199,-1
18,F,0,1,20,5,1,77,1,2542,0,0.06431969,6.197012,0.5688952,-1
18,F,0,1,20,6,2,78,2,1409,0,0.7488098,12.26756,3.45213,-1
18,F,0,1,20,7,2,79,3,3498,0,0.1804062,12.10144,0.8406988,-1
18,F,0,1,20,8,2,77,1,2042,0,0.2617355,12.04051,1.223014,-1
18,F,0,1,21,1,2,82,2,1620,0,0.376491,12.27175,1.739451,-1
18,F,0,1,21,2,2,81,1,2654,0,0.366792,12.05759,1.706512,-1
18,F,0,1,21,3,1,82,2,2953,0,0.2702542,6.516025,2.252901,-1
18,F,0,1,21,4,2,83,3,8709,0,0.07319295,12.05895,0.3420692,-1
18,F,0,1,21,5,1,81,1,2098,0,0.000848409,6.223472,0,-1
18,F,0,1,21,6,2,84,4,3309,0,0.4278826,12.27194,1.952643,-1
18,F,0,1,21,7,1,83,3,5498,0,0.4454073,6.03839,4.043316,-1
18,F,0,1,21,8,1,84,4,7453,0,0.4565208,6.400851,3.945658,-1
18,F,0,1,22,1,2,87,3,2609,0,0.8040867,12.11827,3.70174,-1
18,F,0,1,22,2,2,88,4,4465,1,0.3401292,12.27195,1.550029,-1
18,F,0,1,22,3,2,85,1,2720,0,0.05969814,12.03898,0.2783625,-1
18,F,0,1,22,4,1,87,3,2965,0,0.05062607,6.022998,0.4575681,-1
18,F,0,1,22,5,1,88,4,3253,0,0.4360031,6.379227,3.780148,-1
18,F,0,1,22,6,1,86,2,4309,0,0.2607373,6.526042,2.191246,-1
18,F,0,1,22,7,1,85,1,3498,0,0.1996844,6.216039,1.763696,-1
18,F,0,1,22,8,2,86,2,2287,0,0.4782628,12.28081,2.211162,-1
18,F,0,1,23,1,1,92,4,3698,0,0.3584944,6.364354,3.11395,-1
18,F,0,1,23,2,1,90,2,2642,0,0.548901,6.539953,4.561839,-1
18,F,0,1,23,3,1,89,1,2842,0,0.06973676,6.210058,0.618656,-1
18,F,0,1,23,4,2,91,3,3031,0,0.4011467,12.109,1.855724,-1
18,F,0,1,23,5,2,89,1,1787,0,0.8823091,12.05495,4.162642,-1
18,F,0,1,23,6,1,91,3,3009,0,0.5096735,6.007085,4.574445,-1
18,F,0,1,23,7,2,92,4,2498,0,0.998542,12.28672,4.555394,-1
18,F,0,1,23,8,2,90,2,3809,1,0.9120526,12.21522,4.243163,-1
18,F,0,1,24,1,1,95,3,3153,0,0.1722012,5.982654,1.555448,-1
18,F,0,1,24,2,2,94,2,2353,0,1.012712,12.25179,4.657997,-1
18,F,0,1,24,3,1,96,4,4653,1,0.2792478,6.351034,2.430191,-1
18,F,0,1,24,4,2,95,3,4709,0,0.2793944,12.07666,1.294524,-1
18,F,0,1,24,5,2,93,1,4020,0,0.9777728,11.98429,4.644014,-1
18,F,0,1,24,6,1,94,2,4720,1,0.1644365,6.480131,1.402908,-1
18,F,0,1,24,7,1,93,1,4809,0,0.4405418,6.193951,3.922762,-1
18,F,0,1,24,8,2,96,4,3753,1,0.7080146,12.20337,3.249922,-1
18,F,0,1,25,1,1,99,3,3120,0,0.09439389,6.024733,0.8504184,-1
18,F,0,1,25,2,1,97,1,1987,0,0.2504417,6.195976,2.229497,-1
18,F,0,1,25,3,2,100,4,6709,0,0.3254815,12.26946,1.493314,-1
18,F,0,1,25,4,2,99,3,4953,1,0.4463828,12.08499,2.06156,-1
18,F,0,1,25,5,1,98,2,4031,0,0.2210309,6.512928,1.846314,-1
18,F,0,1,25,6,2,97,1,1765,0,0.5163397,12.01655,2.43325,-1
18,F,0,1,25,7,2,98,2,2465,0,0.7605471,12.24736,3.517528,-1
18,F,0,1,25,8,1,100,4,2376,0,0.4616965,6.395568,3.993706,-1
18,F,0,1,26,1,1,103,3,5631,0,0.3450981,6.018164,3.103434,-1
18,F,0,1,26,2,2,102,2,9999,0,-1,-1,-1,-1
18,F,0,1,26,3,2,101,1,1842,0,0.9910767,12.03951,4.683496,-1
18,F,0,1,26,4,2,104,4,3754,0,0.4860325,12.28829,2.21523,-1
18,F,0,1,26,5,2,103,3,2842,0,0.7219416,12.07744,3.33425,-1
18,F,0,1,26,6,1,101,1,6464,1,0.1780217,6.230559,1.574207,-1
18,F,0,1,26,7,1,104,4,9999,0,-1,-1,-1,-1
18,F,0,1,26,8,1,102,2,7131,0,0.2004966,6.527804,1.674562,-1
18,F,0,1,27,1,2,108,4,4742,0,0.8179794,12.29082,3.729144,-1
18,F,0,1,27,2,1,107,3,5287,2,0.2982673,5.988757,2.759105,-1
18,F,0,1,27,3,1,106,2,7676,1,0.05622183,6.518034,0.4747775,-1
18,F,0,1,27,4,1,108,4,5365,0,0.4331978,6.394598,3.732346,-1
18,F,0,1,27,5,2,106,2,4064,2,0.838511,12.23223,3.877978,-1
18,F,0,1,27,6,2,105,1,2920,0,0.5110248,12.02991,2.408754,-1
18,F,0,1,27,7,2,107,3,2776,0,0.3224036,12.11909,1.495017,-1
18,F,0,1,27,8,1,105,1,2520,0,0.02934881,6.190243,0.2601963,-1
18,F,0,1,28,1,2,111,3,2754,0,0.3221902,12.11748,1.486748,-1
18,F,0,1,28,2,2,112,4,2776,0,0.3355237,12.29025,1.528927,-1
18,F,0,1,28,3,1,109,1,2776,0,0.03533458,6.202517,0.3127867,-1
18,F,0,1,28,4,2,110,2,1620,0,0.847926,12.26962,3.8803,-1
18,F,0,1,28,5,1,112,4,2920,0,0.05898521,6.386209,0.509757,-1
18,F,0,1,28,6,1,110,2,3231,0,0.138472,6.519974,1.174199,-1
18,F,0,1,28,7,2,109,1,2754,0,0.9524412,12.03885,4.500063,-1
18,F,0,1,28,8,1,111,3,2576,0,0.061757,6.004889,0.563365,-1
18,F,0,1,29,1,1,113,1,1666,0,0.1943666,6.180432,1.73596,-1
18,F,0,1,29,2,1,115,3,2976,0,0.2377091,6.087785,2.113685,-1
18,F,0,1,29,3,2,116,4,1465,0,0.305693,12.33048,1.38748,-1
18,F,0,1,29,4,1,114,2,6042,0,0.3935773,6.544409,3.310857,-1
18,F,0,1,29,5,2,113,1,1309,0,0.06051028,12.0954,0.2804634,-1
18,F,0,1,29,6,2,115,3,5931,2,0.8430362,12.0724,3.901137,-1
18,F,0,1,29,7,1,116,4,3409,0,5.323727E-08,6.405397,0,-1
18,F,0,1,29,8,2,114,2,9999,0,-1,-1,-1,-1
18,F,0,1,30,1,1,120,4,4153,0,0.3484744,6.441895,2.970716,-1
18,F,0,1,30,2,2,119,3,3220,0,0.4756502,12.15152,2.185432,-1
18,F,0,1,30,3,2,117,1,2798,0,0.3496838,12.0711,1.633866,-1
18,F,0,1,30,4,1,118,2,2175,0,9.899325E-08,6.534316,0,-1
18,F,0,1,30,5,1,119,3,4731,0,8.999348E-08,6.065536,0,-1
18,F,0,1,30,6,2,118,2,1576,0,0.6400078,12.29781,2.95658,-1
18,F,0,1,30,7,1,117,1,2653,0,0.1217464,6.206803,1.083901,-1
18,F,0,1,30,8,2,120,4,2587,0,0.1477495,12.32047,0.6763749,-1
18,F,0,1,31,1,1,122,2,2242,0,0.08727387,6.533703,0.7324861,-1
18,F,0,1,31,2,2,123,3,3409,0,0.6544247,12.15311,3.004917,-1
18,F,0,1,31,3,2,124,4,3609,0,0.4449259,12.31372,2.041814,-1
18,F,0,1,31,4,2,121,1,9953,0,0.8873426,12.01164,4.204772,-1
18,F,0,1,31,5,2,122,2,1398,0,0.3071524,12.30085,1.411114,-1
18,F,0,1,31,6,1,121,1,1876,0,0.5157163,6.245631,4.568361,-1
18,F,0,1,31,7,1,123,3,3876,0,0.1710319,6.0477,1.532251,-1
18,F,0,1,31,8,1,124,4,5120,0,0.4958771,6.409847,4.27993,-1
18,F,0,1,32,1,1,127,3,3787,0,0.08865053,6.038958,0.8055148,-1
18,F,0,1,32,2,2,126,2,9999,0,-1,-1,-1,-1
18,F,0,1,32,3,2,127,3,4253,0,0.0836694,12.0592,0.3906707,-1
18,F,0,1,32,4,1,128,4,4031,1,6.119407E-08,6.434037,0,-1
18,F,0,1,32,5,1,125,1,3053,0,0.1554234,6.209419,1.383525,-1
18,F,0,1,32,6,1,126,2,2498,0,1.37218E-07,6.558411,0,-1
18,F,0,1,32,7,2,125,1,2087,0,0.5552323,12.06854,2.614117,-1
18,F,0,1,32,8,2,128,4,7353,0,0.6264251,12.30758,2.845857,-1
18,F,0,1,33,1,2,130,2,3054,0,0.6433741,12.31234,2.951013,-1
18,F,0,1,33,2,2,129,1,2331,0,0.8975732,12.07488,4.218537,-1
18,F,0,1,33,3,1,132,4,3253,0,0.132598,6.432345,1.116625,-1
18,F,0,1,33,4,1,130,2,7364,0,0.03928825,6.540703,0.3310224,-1
18,F,0,1,33,5,1,131,3,2853,0,0.1733664,6.06766,1.544464,-1
18,F,0,1,33,6,2,132,4,3653,0,1.311689E-07,12.32274,0,-1
18,F,0,1,33,7,2,131,3,5076,0,0.9064919,12.14905,4.175138,-1
18,F,0,1,33,8,1,129,1,2898,0,0.1290049,6.230331,1.14141,-1
18,F,0,1,34,1,1,135,3,2509,0,0.1061071,6.043372,0.9575664,-1
18,F,0,1,34,2,1,136,4,3153,0,0.2270162,6.414862,1.926306,-1
18,F,0,1,34,3,1,133,1,1665,0,0.2237788,6.237775,1.982285,-1
18,F,0,1,34,4,2,136,4,3342,0,3.493877E-07,12.31429,0.01978234,-1
18,F,0,1,34,5,1,134,2,4642,0,0.1670317,6.565704,1.403606,-1
18,F,0,1,34,6,2,135,3,4598,0,0.3030038,12.14793,1.395356,-1
18,F,0,1,34,7,2,134,2,7631,1,0.02526919,12.31562,0.1153499,-1
18,F,0,1,34,8,2,133,1,1665,0,0.7996728,12.092,3.742876,-1
18,F,0,1,35,1,1,138,2,5142,0,0.3050961,6.561354,2.594576,-1
18,F,0,1,35,2,1,137,1,4365,0,0.03223753,6.216203,0.2846186,-1
18,F,0,1,35,3,2,140,4,4642,0,0.3435869,12.32494,1.559845,-1
18,F,0,1,35,4,2,138,2,1909,0,0.3204921,12.29963,1.475517,-1
18,F,0,1,35,5,1,140,4,4842,0,0.1218259,6.423929,1.048105,-1
18,F,0,1,35,6,2,139,3,3342,0,0.1949452,12.15382,0.8991814,-1
18,F,0,1,35,7,2,137,1,3976,1,0.9612749,12.0393,4.478509,-1
18,F,0,1,35,8,1,139,3,2909,0,0.0512773,6.069551,0.4601268,-1
18,F,0,1,37,1,3,146,2,3976,0,5.629948E-08,6.511086,0,-1
18,F,0,1,37,2,3,145,1,2242,0,1.229135E-07,6.226278,0,-1
18,F,0,1,37,3,3,147,3,2509,0,0.1686523,6.10437,1.517235,-1
18,F,0,1,37,4,4,148,4,1798,0,0.4556585,12.27556,2.066491,-1
18,F,0,1,37,5,4,146,2,1265,0,0.6595578,12.26878,3.022585,-1
18,F,0,1,37,6,4,147,3,9999,0,-1,-1,-1,-1
18,F,0,1,37,7,3,148,4,3953,0,1.775599E-07,6.392622,0,-1
18,F,0,1,37,8,4,145,1,4476,0,0.8510154,12.16764,3.966597,-1
18,F,0,1,38,1,4,152,4,3776,1,0.2747676,12.25797,1.262381,-1
18,F,0,1,38,2,4,150,2,1720,0,0.7626096,12.34742,3.502019,-1
18,F,0,1,38,3,4,149,1,2165,0,0.161209,12.10637,0.749649,-1
18,F,0,1,38,4,3,151,3,3942,0,0.2023505,6.095072,1.815099,-1
18,F,0,1,38,5,3,152,4,3331,0,3.697843E-07,6.402188,0.01978234,-1
18,F,0,1,38,6,3,150,2,1876,0,7.832211E-08,6.504075,0,-1
18,F,0,1,38,7,3,149,1,5020,0,8.816539E-08,6.296349,0.01978234,-1
18,F,0,1,38,8,4,151,3,4353,0,0.169879,12.09187,0.7858408,-1
18,F,0,1,39,1,4,154,2,9998,1,0.6607085,12.34572,3.016296,-1
18,F,0,1,39,2,3,156,4,4442,0,0.3274954,6.403341,2.737238,-1
18,F,0,1,39,3,3,155,3,5076,0,0.1657452,6.098084,1.47949,-1
18,F,0,1,39,4,3,154,2,2998,0,0.02118001,6.557626,0.174713,-1
18,F,0,1,39,5,3,153,1,2276,0,0.0782786,6.268217,0.6852845,-1
18,F,0,1,39,6,4,156,4,3109,0,0.391775,12.26116,1.777842,-1
18,F,0,1,39,7,4,153,1,3331,0,0.4851124,12.15935,2.271589,-1
18,F,0,1,39,8,4,155,3,3509,0,0.6791658,12.15997,3.123429,-1
18,F,0,1,40,1,3,158,2,3598,0,3.701772E-08,6.558779,0,-1
18,F,0,1,40,2,3,159,3,1853,0,0.1043299,6.09749,0.9375348,-1
18,F,0,1,40,3,3,160,4,2886,0,1.136303E-07,6.405125,0,-1
18,F,0,1,40,4,4,157,1,2209,0,0.6092794,12.11111,2.861702,-1
18,F,0,1,40,5,4,158,2,1820,0,0.5326416,12.29437,2.448246,-1
18,F,0,1,40,6,3,157,1,3465,0,2.006598E-07,6.2582,0,-1
18,F,0,1,40,7,4,159,3,3298,0,0.973653,12.07948,4.490433,-1
18,F,0,1,40,8,4,160,4,3298,0,0.6159385,12.33278,2.80128,-1
18,F,0,1,41,1,2,161,1,6898,1,0.7451299,11.99753,3.533633,-1
18,F,0,1,41,2,1,162,2,4542,1,0.2883306,6.548101,2.444405,-1
18,F,0,1,41,3,1,164,4,4464,1,1.552571E-07,6.424434,0,-1
18,F,0,1,41,4,1,163,3,3831,0,8.469185E-08,6.051779,0,-1
18,F,0,1,41,5,1,161,1,2898,0,0.2551009,6.223936,2.262264,-1
18,F,0,1,41,6,2,162,2,1764,0,0.3080406,12.3061,1.413054,-1
18,F,0,1,41,7,2,163,3,4053,0,0.4515764,12.15131,2.081025,-1
18,F,0,1,41,8,2,164,4,3565,0,0.2058957,12.32587,0.9360726,-1
18,F,0,1,42,1,2,166,2,1442,0,0.04772296,12.30661,0.2158,-1
18,F,0,1,42,2,2,168,4,2398,0,0.4648122,12.3221,2.108122,-1
18,F,0,1,42,3,1,167,3,1865,0,0.1383905,6.074757,1.238437,-1
18,F,0,1,42,4,2,165,1,1520,0,1.661215E-07,12.07172,0.01978234,-1
18,F,0,1,42,5,1,168,4,3153,0,0.5516579,6.445545,4.728162,-1
18,F,0,1,42,6,1,165,1,4453,0,0.006052297,6.205193,0.05233916,-1
18,F,0,1,42,7,2,167,3,2476,0,0.1258655,12.17863,0.5811456,-1
18,F,0,1,42,8,1,166,2,3298,0,0.1314893,6.534112,1.114696,-1
18,F,0,1,43,1,2,169,1,1542,0,0.1609996,12.07743,0.7472962,-1
18,F,0,1,43,2,1,170,2,2220,0,8.450718E-08,6.537243,0,-1
18,F,0,1,43,3,1,169,1,2631,0,0.2260326,6.198895,2.012562,-1
18,F,0,1,43,4,1,172,4,2820,0,1.5017E-07,6.447793,0,-1
18,F,0,1,43,5,1,171,3,4842,0,1.402913E-07,6.072107,0,-1
18,F,0,1,43,6,2,170,2,1665,0,0.3185551,12.30293,1.458442,-1
18,F,0,1,43,7,2,172,4,2876,0,0.07858556,12.31948,0.358274,-1
18,F,0,1,43,8,2,171,3,3242,0,0.726844,12.17069,3.340878,-1
18,F,0,1,44,1,1,176,4,3554,0,1.150236E-07,6.440386,0,-1
18,F,0,1,44,2,2,175,3,3720,0,0.0313891,12.16061,0.1440177,-1
18,F,0,1,44,3,1,173,1,3520,0,0.1212564,6.201382,1.079922,-1
18,F,0,1,44,4,1,174,2,4098,0,3.381281E-07,6.532169,0,-1
18,F,0,1,44,5,2,176,4,3253,0,0.09802805,12.32353,0.4463111,-1
18,F,0,1,44,6,1,175,3,3242,0,0.07514934,6.08667,0.6717301,-1
18,F,0,1,44,7,2,173,1,3020,0,0.334114,12.08595,1.546743,-1
18,F,0,1,44,8,2,174,2,9999,0,-1,-1,-1,-1
18,F,0,1,45,1,1,179,3,1976,0,0.1956815,6.095885,1.73765,-1
18,F,0,1,45,2,1,180,4,2664,0,0.3758233,6.454784,3.155418,-1
18,F,0,1,45,3,2,179,3,2353,0,0.6694024,12.17246,3.073324,-1
18,F,0,1,45,4,1,178,2,2120,0,1.949161E-08,6.536453,0,-1
18,F,0,1,45,5,2,177,1,2198,0,0.5263769,12.07537,2.468865,-1
18,F,0,1,45,6,2,180,4,2898,0,0.6187441,12.32816,2.811672,-1
18,F,0,1,45,7,2,178,2,1053,0,0.02919553,12.30336,0.132704,-1
18,F,0,1,45,8,1,177,1,6709,1,0.383052,6.237521,3.321837,-1
18,F,0,1,46,1,1,184,4,2609,1,0.4989412,6.417062,4.253812,-1
18,F,0,1,46,2,2,181,1,1776,0,0.485045,12.0819,2.271589,-1
18,F,0,1,46,3,1,183,3,2520,0,5.093737E-08,6.052495,0,-1
18,F,0,1,46,4,2,184,4,2464,0,0.1631114,12.3202,0.7420408,-1
18,F,0,1,46,5,1,182,2,2853,0,0.1081614,6.537588,0.9091367,-1
18,F,0,1,46,6,2,183,3,5087,1,0.3071766,12.15874,1.413193,-1
18,F,0,1,46,7,1,181,1,8264,0,0.1932724,6.226216,1.708575,-1
18,F,0,1,46,8,2,182,2,1320,0,0.05288894,12.30828,0.2414744,-1
18,F,0,1,47,1,1,188,4,3498,0,0.2461364,6.42674,2.073959,-1
18,F,0,1,47,2,1,185,1,2331,0,0.04033616,6.225489,0.3566318,-1
18,F,0,1,47,3,2,188,4,2498,0,2.900491E-07,12.31663,0,-1
18,F,0,1,47,4,2,186,2,1309,0,0.4155192,12.30678,1.90793,-1
18,F,0,1,47,5,2,187,3,2665,0,0.6212735,12.15742,2.858211,-1
18,F,0,1,47,6,2,185,1,1765,0,0.02224221,12.08302,0.1027921,-1
18,F,0,1,47,7,1,186,2,2442,0,7.125336E-08,6.547005,0,-1
18,F,0,1,47,8,1,187,3,3276,0,0.1608739,6.052316,1.437902,-1
18,F,0,1,48,1,2,190,2,1331,0,0.487917,12.30467,2.236684,-1
18,F,0,1,48,2,2,191,3,2720,0,1.126518E-07,12.14494,0,-1
18,F,0,1,48,3,1,189,1,2487,0,0.03183872,6.224011,0.2811602,-1
18,F,0,1,48,4,2,192,4,2231,0,0.4637275,12.31651,2.108772,-1
18,F,0,1,48,5,1,190,2,2409,0,0.1994917,6.548345,1.679813,-1
18,F,0,1,48,6,2,189,1,3342,0,0.2720133,12.07446,1.2698,-1
18,F,0,1,48,7,1,192,4,4320,0,0.2310618,6.42837,1.954646,-1
18,F,0,1,48,8,1,191,3,2631,0,0.04578777,6.056007,0.4116447,-1
18,F,0,1,49,1,2,194,2,1087,0,1.434943E-07,12.31335,0,-1
18,F,0,1,49,2,2,195,3,3842,1,0.5955043,12.14419,2.740526,-1
18,F,0,1,49,3,1,193,1,1909,0,0.01939555,6.204501,0.1713202,-1
18,F,0,1,49,4,1,195,3,2609,0,0.0948239,6.009747,0.8568369,-1
18,F,0,1,49,5,2,196,4,2509,0,0.6347585,12.27805,2.895973,-1
18,F,0,1,49,6,1,194,2,2142,0,0.3277582,6.523495,2.746947,-1
18,F,0,1,49,7,2,193,1,1998,0,1.007402E-07,12.03059,0,-1
18,F,0,1,49,8,1,196,4,5309,1,0.1868756,6.385001,1.617253,-1
18,F,0,1,50,1,1,199,3,3576,0,0.1392246,6.00601,1.255386,-1
18,F,0,1,50,2,2,198,2,1620,0,0.1123738,12.30305,0.5124369,-1
18,F,0,1,50,3,2,197,1,1687,0,0.4812215,12.07849,2.234671,-1
18,F,0,1,50,4,2,199,3,1776,0,0.405104,12.14433,1.865191,-1
18,F,0,1,50,5,1,200,4,3409,0,0.1515762,6.423329,1.290588,-1
18,F,0,1,50,6,1,197,1,5120,0,0.3581145,6.219185,3.176443,-1
18,F,0,1,50,7,2,200,4,3409,0,0.06989911,12.32045,0.3195939,-1
18,F,0,1,50,8,1,198,2,2820,0,0.001482895,6.550158,0,-1
18,F,0,1,51,1,2,204,4,2387,0,0.76497,12.31898,3.501069,-1
18,F,0,1,51,2,2,203,3,3187,0,0.706168,12.15119,3.250766,-1
18,F,0,1,51,3,1,204,4,4653,0,0.04601834,6.413095,0.3961419,-1
18,F,0,1,51,4,1,201,1,1587,0,0.2990691,6.238339,2.65048,-1
18,F,0,1,51,5,1,202,2,3176,0,0.1498801,6.549923,1.273646,-1
18,F,0,1,51,6,1,203,3,4664,1,0.2910191,6.059419,2.581719,-1
18,F,0,1,51,7,2,201,1,3198,0,0.5869609,12.09157,2.738668,-1
18,F,0,1,51,8,2,202,2,2320,0,0.2649138,12.31415,1.198283,-1
18,F,0,1,52,1,1,208,4,6653,2,0.01856041,6.410348,0.1594904,-1
18,F,0,1,52,2,1,205,1,2087,0,0.4269667,6.235654,3.79256,-1
18,F,0,1,52,3,2,208,4,3053,0,2.112491E-07,12.3037,0,-1
18,F,0,1,52,4,2,206,2,3242,0,0.1733912,12.30439,0.7863387,-1
18,F,0,1,52,5,2,207,3,4176,0,0.3803804,12.15644,1.748876,-1
18,F,0,1,52,6,1,206,2,5642,0,0.1726315,6.560525,1.468071,-1
18,F,0,1,52,7,2,205,1,2287,0,0.5407023,12.07681,2.540526,-1
18,F,0,1,52,8,1,207,3,4465,0,0.0649989,6.045346,0.587175,-1
18,F,0,1,53,1,2,209,1,2087,0,0.8485007,12.00743,4.018198,-1
18,F,0,1,53,2,2,212,4,5798,0,0.01696856,12.34841,0.07912937,-1
18,F,0,1,53,3,1,210,2,4053,0,0.1268149,6.537391,1.0772,-1
18,F,0,1,53,4,2,211,3,4020,0,1.034678,12.16517,4.825804,-1
18,F,0,1,53,5,2,210,2,2664,2,0.459128,12.32322,2.112666,-1
18,F,0,1,53,6,1,212,4,2698,0,0.2112206,6.452939,1.78586,-1
18,F,0,1,53,7,1,209,1,2298,0,0.1484029,6.217832,1.318786,-1
18,F,0,1,53,8,1,211,3,2587,0,0.2583271,6.089889,2.296184,-1
18,F,0,1,54,1,1,216,4,2620,0,0.08371548,6.442822,0.7066523,-1
18,F,0,1,54,2,2,215,3,2587,0,0.1068174,12.17172,0.4925778,-1
18,F,0,1,54,3,2,214,2,1576,0,0.2495563,12.31679,1.140553,-1
18,F,0,1,54,4,1,215,3,2820,0,1.287731E-07,6.052163,0,-1
18,F,0,1,54,5,2,213,1,2009,0,0.7412379,12.10453,3.476826,-1
18,F,0,1,54,6,2,216,4,2264,0,0.3261396,12.3465,1.486221,-1
18,F,0,1,54,7,1,213,1,3931,0,0.09195777,6.230532,0.8139727,-1
18,F,0,1,54,8,1,214,2,6020,0,0.08597966,6.54795,0.7265852,-1
18,F,0,1,55,1,1,219,3,3176,0,0.03979615,6.089697,0.3560827,-1
18,F,0,1,55,2,2,220,4,2742,0,0.2147193,12.34669,0.9745807,-1
18,F,0,1,55,3,1,217,1,1953,0,0.07020704,6.219987,0.6221254,-1
18,F,0,1,55,4,1,218,2,2031,0,0.174797,6.545606,1.457234,-1
18,F,0,1,55,5,2,219,3,4809,0,0.7231618,12.18361,3.320481,-1
18,F,0,1,55,6,2,218,2,9999,0,-1,-1,-1,-1
18,F,0,1,55,7,2,217,1,1865,0,0.02596049,12.09598,0.1186941,-1
18,F,0,1,55,8,1,220,4,6109,0,0.2857911,6.464293,2.445126,-1
18,F,0,1,56,1,1,223,3,3264,0,0.1659289,6.112899,1.469537,-1
18,F,0,1,56,2,2,224,4,3565,0,0.8298605,12.35068,3.751707,-1
18,F,0,1,56,3,1,221,1,4097,0,0.2210704,6.213152,1.964235,-1
18,F,0,1,56,4,2,223,3,4242,0,0.6945469,12.19667,3.185674,-1
18,F,0,1,56,5,2,222,2,1576,0,0.3023441,12.31607,1.38621,-1
18,F,0,1,56,6,1,224,4,3620,0,0.1807719,6.464851,1.524441,-1
18,F,0,1,56,7,2,221,1,1831,0,0.8660332,12.11349,4.074292,-1
18,F,0,1,56,8,1,222,2,2331,0,0.1003188,6.54156,0.8494976,-1
18,F,0,1,57,1,3,228,4,4276,0,9.294644E-08,6.450697,0,-1
18,F,0,1,57,2,3,227,3,3631,0,0.236857,6.086666,2.110442,-1
18,F,0,1,57,3,3,225,1,1997,0,0.2018012,6.254313,1.773986,-1
18,F,0,1,57,4,4,228,4,2309,0,4.02522E-08,12.34817,0,-1
18,F,0,1,57,5,4,225,1,4009,1,0.5758829,12.07146,2.697113,-1
18,F,0,1,57,6,3,226,2,1676,0,6.102178E-08,6.496947,0,-1
18,F,0,1,57,7,4,227,3,3953,0,0.07424381,12.16295,0.3414966,-1
18,F,0,1,57,8,4,226,2,1931,0,0.377782,12.36161,1.72805,-1
18,F,0,1,58,1,3,231,3,4209,0,0.04259205,6.134242,0.3810355,-1
18,F,0,1,58,2,4,230,2,1542,0,0.6511317,12.29107,2.994737,-1
18,F,0,1,58,3,3,232,4,3176,0,1.403368E-07,6.460385,0,-1
18,F,0,1,58,4,3,229,1,2042,0,0.04113613,6.288877,0.3615361,-1
18,F,0,1,58,5,4,232,4,2487,0,0.918081,12.35108,4.151948,-1
18,F,0,1,58,6,4,231,3,2009,0,0.5917076,12.11952,2.702405,-1
18,F,0,1,58,7,3,230,2,2653,0,9.656676E-08,6.497568,0,-1
18,F,0,1,58,8,4,229,1,2831,0,0.8128453,12.14067,3.758642,-1
18,F,0,1,59,1,4,236,4,2176,0,0.02578652,12.29151,0.1153499,-1
18,F,0,1,59,2,3,235,3,2465,0,0.3711825,6.154345,3.307781,-1
18,F,0,1,59,3,3,233,1,4286,0,0.0383133,6.245447,0.3368816,-1
18,F,0,1,59,4,4,235,3,2520,0,0.2284391,12.19145,1.049784,-1
18,F,0,1,59,5,4,234,2,5498,0,0.6811341,12.26253,3.108602,-1
18,F,0,1,59,6,3,236,4,6664,0,0.3972827,6.447711,3.403811,-1
18,F,0,1,59,7,4,233,1,1809,0,0.8483148,12.12981,3.990469,-1
18,F,0,1,59,8,3,234,2,1765,0,0.2050064,6.550292,1.717486,-1
18,F,0,1,60,1,4,239,3,2042,0,0.2234187,12.20019,1.029456,-1
18,F,0,1,60,2,3,238,2,1208,0,0.2037226,6.550984,1.72465,-1
18,F,0,1,60,3,3,239,3,3842,0,0.2648736,6.161998,2.356009,-1
18,F,0,1,60,4,4,237,1,1465,0,0.2515386,12.18768,1.168686,-1
18,F,0,1,60,5,3,240,4,3131,0,6.899908E-08,6.420061,0.01978234,-1
18,F,0,1,60,6,4,238,2,2476,1,0.308349,12.26437,1.420513,-1
18,F,0,1,60,7,3,237,1,5242,0,4.348507E-08,6.301862,0,-1
18,F,0,1,60,8,4,240,4,2020,0,0.5378375,12.30755,2.428338,-1
18,F,0,1,61,1,2,241,1,2564,0,0.7033325,12.12077,3.286106,-1
18,F,0,1,61,2,1,244,4,3898,2,1.87909E-08,6.465137,0,-1
18,F,0,1,61,3,1,241,1,2031,0,0.1983396,6.240489,1.738213,-1
18,F,0,1,61,4,2,242,2,1187,0,0.281707,12.31867,1.293012,-1
18,F,0,1,61,5,2,243,3,2009,0,0.02195022,12.19284,0.1027921,-1
18,F,0,1,61,6,2,244,4,2587,0,0.2849836,12.35995,1.292558,-1
18,F,0,1,61,7,1,242,2,4753,0,1.468031E-07,6.552538,0,-1
18,F,0,1,61,8,1,243,3,2731,0,1.485995E-07,6.092089,0,-1
18,F,0,1,62,1,1,245,1,1731,0,0.0685843,6.215796,0.6074851,-1
18,F,0,1,62,2,1,248,4,2709,0,0.262298,6.447362,2.207708,-1
18,F,0,1,62,3,2,245,1,2198,0,0.9211355,12.1119,4.311525,-1
18,F,0,1,62,4,1,246,2,2042,0,0.08821536,6.559096,0.7383398,-1
18,F,0,1,62,5,2,247,3,2776,0,0.8052145,12.18663,3.68658,-1
18,F,0,1,62,6,2,246,2,2331,0,0.8153116,12.32878,3.736174,-1
18,F,0,1,62,7,2,248,4,3020,0,0.2575758,12.34413,1.168686,-1
18,F,0,1,62,8,1,247,3,3076,0,0.3178222,6.089784,2.840142,-1
18,F,0,1,1,1,5,3,3,7452,0,3.154318,6.128245,30.9786,-1
18,F,0,1,1,2,8,1,1,6298,0,0.2855283,12.15861,1.330604,-1
18,F,0,1,1,3,8,3,3,8875,0,1.007345,12.09677,4.602918,-1
18,F,0,1,1,4,7,1,1,3065,0,1.257468,6.221439,10.95803,-1
18,F,0,1,1,5,6,3,3,7087,0,0.1057105,12.18163,0.4877876,-1
18,F,0,1,1,6,7,2,2,5931,0,3.396956,6.507955,30.17024,-1
18,F,0,1,1,7,6,1,1,3375,0,0.4757778,12.10249,2.199091,-1
18,F,0,1,1,8,5,4,4,1864,0,5.506631,6.487326,58.08455,-1
18,F,0,1,1,9,5,2,2,4309,0,3.423449,6.542128,30.73451,-1
18,F,0,1,1,10,5,1,1,4720,0,2.648357,6.25809,24.97991,-1
18,F,0,1,1,11,8,2,2,7087,0,4.49292,12.29856,21.42734,-1
18,F,0,1,1,12,7,4,4,4598,0,4.300316,6.493322,40.80557,-1
18,F,0,1,1,13,6,2,2,4776,0,4.875173,12.26895,23.41315,-1
18,F,0,1,1,14,8,4,4,4609,0,5.591753,12.28362,27.07912,-1
18,F,0,1,1,15,7,3,3,3565,0,4.951671,6.156676,53.54047,-1
18,F,0,1,1,16,6,4,4,6120,0,2.342547,12.3429,10.85001,-1
18,F,0,1,2,1,5,4,4,4953,0,1.307426,6.472099,11.24278,-1
18,F,0,1,2,2,5,3,3,3009,0,4.38168,6.142776,45.50456,-1
18,F,0,1,2,3,6,2,2,8053,0,8.162534,12.29377,41.60237,-1
18,F,0,1,2,4,8,1,1,4309,0,8.328939,12.18179,43.13507,-1
18,F,0,1,2,5,8,2,2,2598,0,4.078811,12.29883,19.36847,-1
18,F,0,1,2,6,7,4,4,3620,0,3.198671,6.433201,28.72661,-1
18,F,0,1,2,7,7,2,2,1898,0,1.821184,6.498856,15.65109,-1
18,F,0,1,2,8,7,1,1,3898,0,5.382237,6.238271,59.62984,-1
18,F,0,1,2,9,8,4,4,2909,0,6.202965,12.29939,30.28696,-1
18,F,0,1,2,10,6,3,3,7464,0,6.445606,12.19945,31.79173,-1
18,F,0,1,2,11,5,2,2,3398,0,3.833274,6.530003,35.94617,-1
18,F,0,1,2,12,6,1,1,3476,0,3.411569,12.10546,16.2877,-1
18,F,0,1,2,13,8,3,3,4920,0,5.630854,12.14917,27.61168,-1
18,F,0,1,2,14,5,1,1,5253,0,4.538424,6.25651,46.5015,-1
18,F,0,1,2,15,7,3,3,10031,0,0.2131537,6.088692,1.8818,-1
18,F,0,1,2,16,6,4,4,5109,0,2.559835,12.36784,11.84299,-1
