Age, Gender, Awareness Type, Session, Block, Trial, Set, Pattern, Quadrant, Response Time, Num Mistakes, Distance From Target, Camera Distance From Target, Angle Error (Degrees), FC Response
21,F,0,1,1,1,2,1,1,2664,0,1.015995,12.32643,4.688387,-1
21,F,0,1,1,2,2,4,4,9999,2,-1,-1,-1,-1
21,F,0,1,1,3,2,2,2,6231,2,0.7787922,12.42942,3.542377,-1
21,F,0,1,1,4,1,4,4,1998,0,0.1720789,6.628833,1.410976,-1
21,F,0,1,1,5,1,3,3,4164,0,0.5129303,6.453524,4.415747,-1
21,F,0,1,1,6,1,1,1,3776,1,4.453537E-08,6.289692,0,-1
21,F,0,1,1,7,1,2,2,6942,4,0.1467571,6.458713,1.238753,-1
21,F,0,1,1,8,2,3,3,1987,0,0.282243,12.36589,1.269183,-1
21,F,0,1,2,1,1,6,2,2331,0,0.5245929,6.476346,4.399973,-1
21,F,0,1,2,2,2,5,1,5209,0,0.1219623,12.30001,0.5567266,-1
21,F,0,1,2,3,2,8,4,2487,0,0.5944183,12.48262,2.65697,-1
21,F,0,1,2,4,1,7,3,3787,0,0.2132202,6.446105,1.821986,-1
21,F,0,1,2,5,1,5,1,4720,0,1.283962E-07,6.308696,0,-1
21,F,0,1,2,6,1,8,4,3653,1,1.873293E-07,6.622359,0,-1
21,F,0,1,2,7,2,7,3,1531,0,0.6965582,12.35711,3.157341,-1
21,F,0,1,2,8,2,6,2,3553,1,9.605349E-08,12.43655,0,-1
21,F,0,1,3,1,2,12,4,1520,0,0.6838303,12.50541,3.060686,-1
21,F,0,1,3,2,2,10,2,1998,0,0.2159321,12.43764,0.9683364,-1
21,F,0,1,3,3,1,9,1,1898,0,9.844607E-08,6.298964,0.01978234,-1
21,F,0,1,3,4,1,11,3,2876,0,0.06599303,6.452301,0.5619739,-1
21,F,0,1,3,5,1,12,4,3931,1,0.1093617,6.63343,0.9078444,-1
21,F,0,1,3,6,2,9,1,1664,0,0.005080346,12.3029,0.01978234,-1
21,F,0,1,3,7,1,10,2,4575,0,0.2577449,6.486402,2.166815,-1
21,F,0,1,3,8,2,11,3,1687,0,4.651968E-08,12.36768,0,-1
21,F,0,1,4,1,1,14,2,2753,1,0.1264947,6.485842,1.053134,-1
21,F,0,1,4,2,2,15,3,1487,0,0.09028616,12.37009,0.4092611,-1
21,F,0,1,4,3,1,13,1,1876,0,0.1427593,6.302563,1.251326,-1
21,F,0,1,4,4,2,16,4,1598,0,0.1414119,12.49253,0.6342734,-1
21,F,0,1,4,5,2,14,2,2042,0,0.6692145,12.4233,3.014283,-1
21,F,0,1,4,6,2,13,1,2164,0,0.2301734,12.30767,1.048665,-1
21,F,0,1,4,7,1,16,4,3587,1,0.3111633,6.638713,2.56674,-1
21,F,0,1,4,8,1,15,3,3753,0,0.04355467,6.456736,0.3700944,-1
21,F,0,1,5,1,2,18,2,3031,0,0.7245305,12.5253,3.264108,-1
21,F,0,1,5,2,1,20,4,2053,0,0.1032764,6.720939,0.8464977,-1
21,F,0,1,5,3,1,19,3,3931,0,0.1253716,6.5224,1.057029,-1
21,F,0,1,5,4,1,17,1,1942,0,0.1462609,6.378175,1.278554,-1
21,F,0,1,5,5,1,18,2,3464,0,0.4337276,6.555409,3.581515,-1
21,F,0,1,5,6,2,17,1,3231,0,0.7960471,12.38862,3.648729,-1
21,F,0,1,5,7,2,20,4,2664,1,0.04476142,12.58485,0.199792,-1
21,F,0,1,5,8,2,19,3,2620,0,0.7026224,12.45121,3.187026,-1
21,F,0,1,6,1,1,21,1,2631,0,0.2199867,6.378442,1.90557,-1
21,F,0,1,6,2,2,24,4,2231,1,0.1785469,12.5797,0.8013745,-1
21,F,0,1,6,3,2,23,3,1476,0,0.1760618,12.45587,0.7883269,-1
21,F,0,1,6,4,1,22,2,2820,0,0.2893672,6.530808,2.399228,-1
21,F,0,1,6,5,1,24,4,1442,0,0.3235832,6.710124,2.641973,-1
21,F,0,1,6,6,2,21,1,1698,0,0.3623336,12.36273,1.644253,-1
21,F,0,1,6,7,1,23,3,3742,0,0.2676907,6.516637,2.252467,-1
21,F,0,1,6,8,2,22,2,2987,0,0.3161916,12.49101,1.410421,-1
21,F,0,1,7,1,2,28,4,1398,0,0.9039355,12.57612,4.016784,-1
21,F,0,1,7,2,1,27,3,3720,0,2.736081E-08,6.528683,0,-1
21,F,0,1,7,3,1,26,2,2187,0,0.4189237,6.540274,3.494408,-1
21,F,0,1,7,4,1,28,4,1642,0,0.3219979,6.711899,2.599023,-1
21,F,0,1,7,5,2,25,1,1842,0,0.4433718,12.37237,2.033747,-1
21,F,0,1,7,6,2,27,3,2587,0,0.01895007,12.44637,0.08392937,-1
21,F,0,1,7,7,2,26,2,1864,0,0.4460583,12.49324,1.983766,-1
21,F,0,1,7,8,1,25,1,2342,0,0.3803953,6.373608,3.307781,-1
21,F,0,1,8,1,2,30,2,2453,1,0.11521,12.49908,0.5154827,-1
21,F,0,1,8,2,2,29,1,2131,0,0.3422021,12.37976,1.56135,-1
21,F,0,1,8,3,2,32,4,2487,1,0.2634408,12.58193,1.18184,-1
21,F,0,1,8,4,1,31,3,4431,0,0.07169357,6.519965,0.6026341,-1
21,F,0,1,8,5,1,30,2,2875,0,0.1821604,6.530487,1.514783,-1
21,F,0,1,8,6,1,29,1,2509,0,0.3432625,6.373634,2.968079,-1
21,F,0,1,8,7,1,32,4,3609,1,0.09531246,6.73496,0.772531,-1
21,F,0,1,8,8,2,31,3,1620,0,0.1201563,12.44835,0.5392296,-1
21,F,0,1,9,1,1,36,4,3953,1,0.3515017,6.717662,2.911075,-1
21,F,0,1,9,2,1,34,2,2931,0,0.1872474,6.540155,1.580906,-1
21,F,0,1,9,3,1,35,3,3142,0,8.414501E-08,6.512148,0,-1
21,F,0,1,9,4,2,33,1,2542,0,0.02912558,12.36949,0.1312212,-1
21,F,0,1,9,5,2,34,2,1598,0,0.428403,12.4978,1.905878,-1
21,F,0,1,9,6,2,36,4,1487,0,0.6863835,12.57644,3.055245,-1
21,F,0,1,9,7,2,35,3,1864,0,0.3552449,12.42596,1.601689,-1
21,F,0,1,9,8,1,33,1,3009,0,0.04588562,6.345502,0.4005627,-1
21,F,0,1,10,1,1,38,2,2053,0,0.0549114,6.531825,0.4579955,-1
21,F,0,1,10,2,1,37,1,2442,0,0.1686571,6.33996,1.469404,-1
21,F,0,1,10,3,2,39,3,1820,0,0.2949072,12.44175,1.331633,-1
21,F,0,1,10,4,2,38,2,2120,0,0.3765695,12.49883,1.679463,-1
21,F,0,1,10,5,1,40,4,2698,0,0.4380226,6.709353,3.576646,-1
21,F,0,1,10,6,1,39,3,4198,0,0.1433723,6.525925,1.20496,-1
21,F,0,1,10,7,2,37,1,2531,0,0.9141772,12.40356,4.149967,-1
21,F,0,1,10,8,2,40,4,1631,0,1.017993,12.59315,4.527921,-1
21,F,0,1,11,1,1,42,2,3864,0,0.2985209,6.537629,2.490336,-1
21,F,0,1,11,2,2,44,4,1264,0,0.9930049,12.5834,4.419915,-1
21,F,0,1,11,3,1,41,1,2753,0,0.5015408,6.378176,4.382802,-1
21,F,0,1,11,4,2,43,3,2353,1,1.582372E-08,12.4647,0.01978234,-1
21,F,0,1,11,5,2,41,1,2776,0,0.5874887,12.39312,2.661387,-1
21,F,0,1,11,6,2,42,2,1787,0,0.4424452,12.49913,1.980507,-1
21,F,0,1,11,7,1,43,3,2887,0,0.2561038,6.531975,2.148947,-1
21,F,0,1,11,8,1,44,4,3664,1,0.09891167,6.686756,0.8072135,-1
21,F,0,1,12,1,2,46,2,2020,0,1.041019,12.48406,4.649705,-1
21,F,0,1,12,2,1,45,1,2676,0,0.1588319,6.345056,1.382818,-1
21,F,0,1,12,3,1,48,4,7231,3,0.02788943,6.713079,0.2281412,-1
21,F,0,1,12,4,2,45,1,2631,0,0.6969787,12.34296,3.1999,-1
21,F,0,1,12,5,2,47,3,1498,0,0.6563206,12.41807,2.977298,-1
21,F,0,1,12,6,2,48,4,2164,1,0.3625525,12.54391,1.634225,-1
21,F,0,1,12,7,1,47,3,4353,0,0.05184374,6.504888,0.4361108,-1
21,F,0,1,12,8,1,46,2,2554,0,0.1899436,6.517723,1.589054,-1
21,F,0,1,13,1,2,51,3,1631,0,0.1238915,12.42762,0.5591815,-1
21,F,0,1,13,2,2,52,4,1609,0,0.2528811,12.56579,1.126222,-1
21,F,0,1,13,3,1,50,2,2887,1,0.02187538,6.519045,0.1823843,-1
21,F,0,1,13,4,1,49,1,3242,1,0.2315119,6.356319,2.00974,-1
21,F,0,1,13,5,2,50,2,2709,0,1.072441E-07,12.47711,0,-1
21,F,0,1,13,6,1,51,3,3742,0,0.1558415,6.510515,1.31239,-1
21,F,0,1,13,7,2,49,1,1976,0,0.1626647,12.35961,0.7370135,-1
21,F,0,1,13,8,1,52,4,1909,0,1.032568E-07,6.713924,0,-1
21,F,0,1,14,1,1,54,2,2487,0,0.274119,6.513338,2.278214,-1
21,F,0,1,14,2,2,56,4,1087,0,0.8666639,12.55419,3.865486,-1
21,F,0,1,14,3,2,53,1,1909,0,0.3809025,12.35817,1.744843,-1
21,F,0,1,14,4,2,54,2,1964,0,0.4639379,12.47963,2.065733,-1
21,F,0,1,14,5,2,55,3,1754,0,0.6450634,12.42591,2.883305,-1
21,F,0,1,14,6,1,56,4,2687,0,0.2526369,6.689637,2.068573,-1
21,F,0,1,14,7,1,53,1,2220,0,0.2924575,6.347777,2.547066,-1
21,F,0,1,14,8,1,55,3,3898,0,0.1185832,6.509787,1.001906,-1
21,F,0,1,15,1,2,60,4,2098,1,1.055095E-07,12.56016,0,-1
21,F,0,1,15,2,2,58,2,2409,0,0.3054213,12.47379,1.373161,-1
21,F,0,1,15,3,2,57,1,1709,0,0.4250404,12.3545,1.930163,-1
21,F,0,1,15,4,1,60,4,2531,1,0.125704,6.706856,1.02412,-1
21,F,0,1,15,5,1,59,3,3820,0,0.2854166,6.515075,2.418161,-1
21,F,0,1,15,6,1,57,1,2342,0,0.5258287,6.352417,4.559692,-1
21,F,0,1,15,7,2,59,3,1531,0,0.5141837,12.42287,2.300016,-1
21,F,0,1,15,8,1,58,2,4120,2,0.01498215,6.509267,0.1251145,-1
21,F,0,1,16,1,1,61,1,1709,0,0.3036405,6.358418,2.632621,-1
21,F,0,1,16,2,2,63,3,1587,0,0.0779615,12.44265,0.3511023,-1
21,F,0,1,16,3,1,64,4,1576,0,0.1057592,6.707427,0.8620735,-1
21,F,0,1,16,4,1,62,2,4042,0,0.3513747,6.520932,2.913831,-1
21,F,0,1,16,5,1,63,3,3620,0,0.1830367,6.521694,1.537734,-1
21,F,0,1,16,6,2,62,2,1653,0,0.6644269,12.48192,2.954063,-1
21,F,0,1,16,7,2,64,4,1320,0,0.6185092,12.56782,2.753211,-1
21,F,0,1,16,8,2,61,1,1864,0,0.1077131,12.36335,0.4897892,-1
21,F,0,1,17,1,3,67,3,2309,0,0.1383486,6.527358,1.174865,-1
21,F,0,1,17,2,3,68,4,2198,1,0.3637682,6.692289,2.939582,-1
21,F,0,1,17,3,3,66,2,4598,2,0.08227454,6.512374,0.6849989,-1
21,F,0,1,17,4,4,67,3,1687,0,0.2900335,12.44084,1.295733,-1
21,F,0,1,17,5,4,65,1,1798,0,0.1823935,12.36941,0.8311011,-1
21,F,0,1,17,6,4,66,2,2242,0,0.4140334,12.52206,1.852135,-1
21,F,0,1,17,7,3,65,1,4176,0,0.1153642,6.302485,1.003467,-1
21,F,0,1,17,8,4,68,4,1531,0,0.5924259,12.56141,2.629497,-1
21,F,0,1,18,1,4,69,1,1498,0,0.1670746,12.36286,0.7610474,-1
21,F,0,1,18,2,3,72,4,3587,1,0.04845852,6.707591,0.3941611,-1
21,F,0,1,18,3,3,69,1,1875,0,0.09443955,6.324348,0.8235324,-1
21,F,0,1,18,4,4,70,2,1565,0,0.5475175,12.52857,2.445446,-1
21,F,0,1,18,5,4,72,4,1765,0,0.8525955,12.57762,3.802306,-1
21,F,0,1,18,6,4,71,3,1809,0,1.021599,12.45092,4.563342,-1
21,F,0,1,18,7,3,70,2,3531,0,0.1338745,6.520517,1.115222,-1
21,F,0,1,18,8,3,71,3,4797,0,0.2493981,6.523785,2.106543,-1
21,F,0,1,19,1,3,73,1,1587,0,1.16416E-07,6.301031,0,-1
21,F,0,1,19,2,3,76,4,4031,2,0.2102881,6.743032,1.731558,-1
21,F,0,1,19,3,4,75,3,2909,1,0.09659757,12.43678,0.4370072,-1
21,F,0,1,19,4,4,74,2,4087,1,0.1770875,12.51624,0.798929,-1
21,F,0,1,19,5,3,75,3,4320,0,0.1027512,6.53489,0.8643403,-1
21,F,0,1,19,6,4,76,4,1486,0,0.9743454,12.5255,4.317881,-1
21,F,0,1,19,7,3,74,2,3620,0,0.5587432,6.545689,4.660898,-1
21,F,0,1,19,8,4,73,1,2398,0,7.247095E-08,12.35924,0,-1
21,F,0,1,20,1,4,80,4,1287,0,0.9224602,12.52702,4.088255,-1
21,F,0,1,20,2,3,77,1,2576,0,0.3329624,6.333695,2.904006,-1
21,F,0,1,20,3,4,79,3,1331,0,1.193298E-07,12.45208,0,-1
21,F,0,1,20,4,3,78,2,6153,2,0.02597038,6.520815,0.2158,-1
21,F,0,1,20,5,4,77,1,1820,0,0.9396077,12.41487,4.229896,-1
21,F,0,1,20,6,3,80,4,6687,1,0.1969403,6.738588,1.621965,-1
21,F,0,1,20,7,3,79,3,3198,0,1.046257E-07,6.533694,0,-1
21,F,0,1,20,8,4,78,2,2165,0,0.61643,12.48658,2.746519,-1
21,F,0,1,20,1,2,77,1,1664,0,0.342956,12.369,1.5523,-1
21,F,0,1,20,2,1,80,4,1765,0,0.2940561,6.722232,2.379486,-1
21,F,0,1,20,3,1,79,3,2076,0,0.1104688,6.53817,0.9268292,-1
21,F,0,1,20,4,2,80,4,1164,0,1.036741,12.58457,4.609849,-1
21,F,0,1,20,5,2,78,2,1742,0,0.5956477,12.48127,2.669978,-1
21,F,0,1,20,6,2,79,3,1331,0,0.719256,12.45626,3.206623,-1
21,F,0,1,20,7,1,77,1,1754,0,0.11946,6.364248,1.037975,-1
21,F,0,1,20,8,1,78,2,3387,0,0.1571385,6.534524,1.311047,-1
21,F,0,1,21,1,1,81,1,2098,0,0.07815743,6.402242,0.675796,-1
21,F,0,1,21,2,1,84,4,1698,0,0.0444897,6.778446,0.3588198,-1
21,F,0,1,21,3,1,83,3,2398,0,9.145206E-08,6.541646,0,-1
21,F,0,1,21,4,2,84,4,1476,0,0.9497908,12.60546,4.199412,-1
21,F,0,1,21,5,2,82,2,2331,0,0.6444921,12.5165,2.857663,-1
21,F,0,1,21,6,2,81,1,2153,0,0.04852735,12.39333,0.220287,-1
21,F,0,1,21,7,2,83,3,1376,0,0.3662731,12.46843,1.633267,-1
21,F,0,1,21,8,1,82,2,3198,0,0.2436949,6.580287,2.011395,-1
21,F,0,1,22,1,1,85,1,1909,1,1.05016E-07,6.385548,0,-1
21,F,0,1,22,2,2,88,4,1153,0,1.511283E-07,12.60672,0,-1
21,F,0,1,22,3,1,87,3,2364,0,0.1855553,6.54115,1.555448,-1
21,F,0,1,22,4,1,88,4,1720,0,6.873729E-08,6.769595,0,-1
21,F,0,1,22,5,2,86,2,1820,0,0.7549881,12.49121,3.366506,-1
21,F,0,1,22,6,2,85,1,2787,0,0.4223319,12.42013,1.928641,-1
21,F,0,1,22,7,1,86,2,2209,0,0.2066235,6.555255,1.718853,-1
21,F,0,1,22,8,2,87,3,1453,0,0.08455681,12.47722,0.3810355,-1
21,F,0,1,23,1,2,92,4,2720,1,0.2840813,12.60526,1.262071,-1
21,F,0,1,23,2,1,89,1,2242,0,0.4299983,6.41141,3.698141,-1
21,F,0,1,23,3,2,91,3,1153,0,0.7755315,12.47243,3.515579,-1
21,F,0,1,23,4,2,90,2,1576,0,0.14271,12.50813,0.6391903,-1
21,F,0,1,23,5,1,92,4,1653,0,2.177563E-08,6.750937,0,-1
21,F,0,1,23,6,2,89,1,2620,0,0.7883447,12.38875,3.613571,-1
21,F,0,1,23,7,1,91,3,3042,0,7.612785E-08,6.551806,0,-1
21,F,0,1,23,8,1,90,2,2709,0,0.4201286,6.552788,3.498104,-1
21,F,0,1,24,1,2,96,4,2109,0,1.698376E-07,12.61308,0.01978234,-1
21,F,0,1,24,2,2,94,2,1464,0,0.06071622,12.51226,0.2719625,-1
21,F,0,1,24,3,2,95,3,1409,0,0.1088594,12.4649,0.4897892,-1
21,F,0,1,24,4,2,93,1,1520,0,0.6821829,12.38027,3.133878,-1
21,F,0,1,24,5,1,95,3,3776,0,3.984504E-08,6.541878,0,-1
21,F,0,1,24,6,1,96,4,3920,0,9.431775E-08,6.759309,0,-1
21,F,0,1,24,7,1,94,2,2887,0,0.3433396,6.554239,2.837936,-1
21,F,0,1,24,8,1,93,1,1365,0,0.4541108,6.373891,3.927351,-1
21,F,0,1,25,1,1,98,2,2220,0,0.3861954,6.553524,3.214915,-1
21,F,0,1,25,2,2,100,4,1920,0,0.09582042,12.60079,0.4270431,-1
21,F,0,1,25,3,1,99,3,3487,0,0.1632486,6.548147,1.373161,-1
21,F,0,1,25,4,1,97,1,1198,0,0.5356396,6.388242,4.623512,-1
21,F,0,1,25,5,2,99,3,1542,0,0.3076326,12.48044,1.370308,-1
21,F,0,1,25,6,2,97,1,1187,0,0.184317,12.39129,0.8341562,-1
21,F,0,1,25,7,2,98,2,1487,0,0.4743452,12.51389,2.138814,-1
21,F,0,1,25,8,1,100,4,2365,0,0.1208501,6.760324,0.9835745,-1
21,F,0,1,26,1,1,102,2,2242,0,0.2156407,6.538867,1.787722,-1
21,F,0,1,26,2,1,104,4,2509,0,0.3193844,6.75284,2.648706,-1
21,F,0,1,26,3,1,103,3,3942,0,1.074449E-07,6.555749,0,-1
21,F,0,1,26,4,2,104,4,2409,1,0.1698718,12.59736,0.760533,-1
21,F,0,1,26,5,2,102,2,1342,0,0.4459574,12.50501,1.995177,-1
21,F,0,1,26,6,2,101,1,3631,0,1.597622E-08,12.39549,0,-1
21,F,0,1,26,7,2,103,3,1520,0,0.3030377,12.46229,1.36616,-1
21,F,0,1,26,8,1,101,1,1409,0,0.3052403,6.372271,2.643454,-1
21,F,0,1,27,1,1,108,4,2042,0,1.431104E-07,6.779557,0,-1
21,F,0,1,27,2,1,106,2,2153,0,0.03925986,6.535141,0.3268584,-1
21,F,0,1,27,3,2,108,4,2353,1,0.09188326,12.58853,0.409739,-1
21,F,0,1,27,4,2,107,3,1431,0,0.2157264,12.45425,0.9650977,-1
21,F,0,1,27,5,1,105,1,2154,1,0.06114039,6.348256,0.5352231,-1
21,F,0,1,27,6,2,106,2,2064,0,0.7968675,12.49739,3.569303,-1
21,F,0,1,27,7,2,105,1,2042,0,0.213728,12.37823,0.9715644,-1
21,F,0,1,27,8,1,107,3,2620,0,1.800271E-08,6.558565,0.01978234,-1
21,F,0,1,28,1,2,109,1,1253,0,0.3964998,12.37311,1.806561,-1
21,F,0,1,28,2,1,112,4,4931,1,3.107403E-08,6.778868,0,-1
21,F,0,1,28,3,1,111,3,1742,0,0.2529283,6.555932,2.127253,-1
21,F,0,1,28,4,2,110,2,1209,0,2.778246E-07,12.5145,0,-1
21,F,0,1,28,5,1,109,1,1242,0,0.05505835,6.376539,0.4788812,-1
21,F,0,1,28,6,2,112,4,998,0,0.928198,12.61355,4.098971,-1
21,F,0,1,28,7,1,110,2,2798,0,0.3992674,6.550776,3.325018,-1
21,F,0,1,28,8,2,111,3,2609,0,0.3374201,12.47689,1.504542,-1
21,F,0,1,29,1,2,113,1,4220,1,0.2253788,12.41151,1.01818,-1
21,F,0,1,29,2,2,116,4,2898,1,2.399893E-07,12.61991,0,-1
21,F,0,1,29,3,1,115,3,2153,0,9.276378E-08,6.554639,0,-1
21,F,0,1,29,4,1,114,2,2175,0,0.1031539,6.567585,0.854092,-1
21,F,0,1,29,5,1,116,4,1709,0,0.05430394,6.767859,0.4410186,-1
21,F,0,1,29,6,1,113,1,1320,0,2.072449E-08,6.354936,0,-1
21,F,0,1,29,7,2,115,3,1465,0,0.2864506,12.47486,1.288464,-1
21,F,0,1,29,8,2,114,2,1365,0,0.2957925,12.51301,1.323082,-1
21,F,0,1,30,1,2,119,3,1320,0,0.1429128,12.46355,0.640108,-1
21,F,0,1,30,2,1,117,1,1442,0,5.391938E-08,6.356767,0,-1
21,F,0,1,30,3,2,118,2,1253,0,0.7109831,12.50905,3.227253,-1
21,F,0,1,30,4,2,120,4,1209,0,0.2148288,12.61173,0.9544962,-1
21,F,0,1,30,5,2,117,1,1342,0,1.406168E-07,12.37978,0,-1
21,F,0,1,30,6,1,120,4,2187,0,0.1613009,6.773941,1.296337,-1
21,F,0,1,30,7,1,119,3,2131,0,0.2056895,6.559491,1.726464,-1
21,F,0,1,30,8,1,118,2,3642,0,0.4076387,6.554777,3.392576,-1
21,F,0,1,31,1,1,121,1,1264,0,0.1208007,6.376685,1.047732,-1
21,F,0,1,31,2,1,123,3,2565,0,1.259975E-07,6.556023,0,-1
21,F,0,1,31,3,2,124,4,3231,1,0.2642329,12.63905,1.170694,-1
21,F,0,1,31,4,2,122,2,2142,1,0.04129894,12.51192,0.183454,-1
21,F,0,1,31,5,2,121,1,1487,0,0.3190268,12.38592,1.456562,-1
21,F,0,1,31,6,1,124,4,1509,0,0.1647231,6.766734,1.333689,-1
21,F,0,1,31,7,1,122,2,3765,0,0.09864844,6.56845,0.8170919,-1
21,F,0,1,31,8,2,123,3,1653,0,2.115728E-07,12.47773,0,-1
21,F,0,1,32,1,1,128,4,1820,0,0.02702739,6.774778,0.2176059,-1
21,F,0,1,32,2,1,125,1,1309,0,0.1321987,6.37914,1.14603,-1
21,F,0,1,32,3,1,127,3,3653,0,0.1136701,6.556427,0.9536759,-1
21,F,0,1,32,4,1,126,2,4087,2,1.132256E-07,6.553813,0,-1
21,F,0,1,32,5,2,128,4,1253,0,0.2889728,12.61596,1.281916,-1
21,F,0,1,32,6,2,127,3,2098,0,0.02501566,12.47861,0.1119058,-1
21,F,0,1,32,7,2,126,2,2598,0,0.4972766,12.51909,2.222199,-1
21,F,0,1,32,8,2,125,1,1676,0,7.818647E-08,12.39207,0.01978234,-1
21,F,0,1,33,1,2,130,2,1653,0,0.3553764,12.51928,1.586096,-1
21,F,0,1,33,2,2,131,3,2053,0,0.395492,12.47936,1.772992,-1
21,F,0,1,33,3,1,130,2,2242,0,0.2128412,6.555953,1.770231,-1
21,F,0,1,33,4,1,131,3,2465,0,3.530477E-08,6.56121,0,-1
21,F,0,1,33,5,1,129,1,1387,0,0.4699434,6.397773,4.049898,-1
21,F,0,1,33,6,2,132,4,1642,0,0.9949571,12.61946,4.391016,-1
21,F,0,1,33,7,2,129,1,1253,0,0.0506332,12.38852,0.2289973,-1
21,F,0,1,33,8,1,132,4,1198,0,0.4889091,6.77224,3.923061,-1
21,F,0,1,34,1,1,133,1,1453,0,0.09384444,6.359744,0.8166127,-1
21,F,0,1,34,2,2,136,4,1253,0,0.6800283,12.60708,3.010839,-1
21,F,0,1,34,3,2,133,1,1976,0,0.1902416,12.39332,0.8602557,-1
21,F,0,1,34,4,1,135,3,2153,0,1.616593E-07,6.564242,0,-1
21,F,0,1,34,5,1,134,2,2165,0,0.1772002,6.556405,1.467404,-1
21,F,0,1,34,6,2,135,3,1376,0,0.07346756,12.48389,0.329838,-1
21,F,0,1,34,7,2,134,2,1565,0,0.1499157,12.51878,0.6711472,-1
21,F,0,1,34,8,1,136,4,2365,0,0.1666874,6.776167,1.33896,-1
21,F,0,1,35,1,2,137,1,2465,0,0.2284006,12.38894,1.034387,-1
21,F,0,1,35,2,2,139,3,1431,0,0.2310326,12.48025,1.046424,-1
21,F,0,1,35,3,2,140,4,1820,0,1.017727,12.56238,4.515532,-1
21,F,0,1,35,4,1,139,3,2842,0,5.63992E-08,6.526554,0,-1
21,F,0,1,35,5,1,138,2,2964,1,0.06217496,6.527028,0.5222706,-1
21,F,0,1,35,6,1,137,1,1776,0,0.203407,6.366796,1.764805,-1
21,F,0,1,35,7,2,138,2,1431,0,0.4374864,12.49202,1.958947,-1
21,F,0,1,35,8,1,140,4,1942,0,0.2285895,6.734761,1.843662,-1
21,F,0,1,37,1,4,146,2,1120,0,0.8133859,12.47356,3.629251,-1
21,F,0,1,37,2,3,147,3,3131,0,0.1300614,6.531665,1.095394,-1
21,F,0,1,37,3,3,146,2,1653,0,0.5295954,6.533375,4.508456,-1
21,F,0,1,37,4,3,145,1,1864,0,0.332856,6.272012,2.898945,-1
21,F,0,1,37,5,3,148,4,2531,0,0.3560132,6.719473,2.890425,-1
21,F,0,1,37,6,4,145,1,1098,0,0.2601877,12.3132,1.180515,-1
21,F,0,1,37,7,4,147,3,2453,0,0.332332,12.43824,1.507271,-1
21,F,0,1,37,8,4,148,4,1820,0,0.1805604,12.55566,0.8060005,-1
21,F,0,1,38,1,3,150,2,1809,0,0.02713125,6.486009,0.2281412,-1
21,F,0,1,38,2,3,151,3,2131,0,1.01442E-07,6.535887,0,-1
21,F,0,1,38,3,4,152,4,1576,0,1.850442E-07,12.53822,0.01978234,-1
21,F,0,1,38,4,4,150,2,1453,0,0.6929604,12.43738,3.119666,-1
21,F,0,1,38,5,4,149,1,1276,0,0.4983523,12.36076,2.259494,-1
21,F,0,1,38,6,4,151,3,1442,0,0.5897583,12.426,2.640046,-1
21,F,0,1,38,7,3,152,4,3087,1,0.05653005,6.74507,0.4601268,-1
21,F,0,1,38,8,3,149,1,1665,0,9.877512E-08,6.266489,0,-1
21,F,0,1,39,1,3,156,4,2598,1,0.3903271,6.703224,3.144418,-1
21,F,0,1,39,2,3,153,1,2498,0,0.5193441,6.277002,4.592395,-1
21,F,0,1,39,3,4,154,2,1387,0,0.3468653,12.45847,1.549271,-1
21,F,0,1,39,4,4,155,3,1331,0,0.3596461,12.46638,1.614709,-1
21,F,0,1,39,5,3,154,2,4953,1,0.5131202,6.501368,4.255653,-1
21,F,0,1,39,6,4,156,4,2420,1,0.1793652,12.51178,0.8062432,-1
21,F,0,1,39,7,3,155,3,2109,0,0.4165264,6.535617,3.491829,-1
21,F,0,1,39,8,4,153,1,2376,0,0.3032884,12.33481,1.383242,-1
21,F,0,1,40,1,3,159,3,3675,0,0.5508531,6.559283,4.562998,-1
21,F,0,1,40,2,4,158,2,1220,0,0.718165,12.46472,3.22434,-1
21,F,0,1,40,3,4,159,3,1487,0,0.5930322,12.45163,2.69733,-1
21,F,0,1,40,4,3,160,4,1309,0,1.708933E-07,6.72197,0.01978234,-1
21,F,0,1,40,5,3,158,2,2332,1,0.04825251,6.527383,0.4059006,-1
21,F,0,1,40,6,3,157,1,4165,0,0.09663706,6.301658,0.8416294,-1
21,F,0,1,40,7,4,160,4,1398,0,0.2417024,12.53299,1.085705,-1
21,F,0,1,40,8,4,157,1,1287,0,0.312152,12.37989,1.418583,-1
21,F,0,1,41,1,2,163,3,1497,0,1.316507E-07,12.44791,0,-1
21,F,0,1,41,2,2,161,1,1442,0,0.3179538,12.3538,1.447533,-1
21,F,0,1,41,3,2,164,4,1298,0,0.1065675,12.57396,0.4756011,-1
21,F,0,1,41,4,1,163,3,3120,0,0.1687817,6.542145,1.414715,-1
21,F,0,1,41,5,1,164,4,1453,0,1.313048E-07,6.743328,0,-1
21,F,0,1,41,6,2,162,2,1309,0,0.3958151,12.45681,1.773654,-1
21,F,0,1,41,7,1,161,1,1742,0,0.1819322,6.34417,1.583627,-1
21,F,0,1,41,8,1,162,2,1964,0,0.5147338,6.501598,4.269208,-1
21,F,0,1,42,1,1,168,4,1609,0,0.3872435,6.747721,3.1691,-1
21,F,0,1,42,2,1,167,3,2887,0,0.1033935,6.533199,0.8697567,-1
21,F,0,1,42,3,1,165,1,2109,1,1.578823E-08,6.355326,0,-1
21,F,0,1,42,4,2,166,2,1287,0,0.2926244,12.47785,1.325151,-1
21,F,0,1,42,5,2,168,4,2942,1,0.002666036,12.58978,0,-1
21,F,0,1,42,6,2,167,3,1553,0,0.2669151,12.44875,1.193046,-1
21,F,0,1,42,7,1,166,2,1909,0,0.2570104,6.513589,2.128265,-1
21,F,0,1,42,8,2,165,1,4153,0,0.9877135,12.35591,4.456676,-1
21,F,0,1,43,1,1,170,2,2476,0,0.2470346,6.510067,2.068668,-1
21,F,0,1,43,2,1,171,3,2776,0,0.2118266,6.55527,1.779933,-1
21,F,0,1,43,3,1,169,1,1376,0,0.02968774,6.362252,0.2579304,-1
21,F,0,1,43,4,1,172,4,4487,0,0.4944932,6.740265,4.113851,-1
21,F,0,1,43,5,2,169,1,2409,0,7.007022E-08,12.35856,0,-1
21,F,0,1,43,6,2,172,4,4842,0,0.8788983,12.60244,3.950916,-1
21,F,0,1,43,7,2,170,2,2987,1,0.530845,12.4711,2.416299,-1
21,F,0,1,43,8,2,171,3,3176,0,0.30492,12.46593,1.371164,-1
21,F,0,1,44,1,2,176,4,1353,0,0.5772529,12.58803,2.566892,-1
21,F,0,1,44,2,1,173,1,1220,0,0.1230406,6.357426,1.070458,-1
21,F,0,1,44,3,1,176,4,1209,0,0.4088356,6.743008,3.323546,-1
21,F,0,1,44,4,2,173,1,1142,0,0.2140505,12.35082,0.9745807,-1
21,F,0,1,44,5,1,174,2,1831,0,0.237751,6.514647,1.97764,-1
21,F,0,1,44,6,2,175,3,1442,0,0.0992246,12.46381,0.4454334,-1
21,F,0,1,44,7,2,174,2,1708,0,0.6351508,12.48117,2.826116,-1
21,F,0,1,44,8,1,175,3,2153,0,1.152539E-07,6.551012,0,-1
21,F,0,1,45,1,1,178,2,2842,1,0.1987117,6.518002,1.656467,-1
21,F,0,1,45,2,2,179,3,1298,0,0.1348462,12.4518,0.6071628,-1
21,F,0,1,45,3,2,177,1,1131,0,0.4015247,12.34033,1.844299,-1
21,F,0,1,45,4,1,179,3,2642,0,7.639051E-08,6.54629,0,-1
21,F,0,1,45,5,1,180,4,1487,0,0.268225,6.737408,2.181488,-1
21,F,0,1,45,6,2,178,2,1176,0,0.4203893,12.46613,1.878261,-1
21,F,0,1,45,7,1,177,1,1276,0,0.2394966,6.340931,2.084502,-1
21,F,0,1,45,8,2,180,4,1753,0,0.576646,12.58143,2.564909,-1
21,F,0,1,46,1,1,181,1,1220,0,0.5337091,6.345714,4.636247,-1
21,F,0,1,46,2,2,184,4,1198,0,0.1523244,12.5812,0.6795497,-1
21,F,0,1,46,3,2,182,2,1209,0,0.8573662,12.47215,3.805857,-1
21,F,0,1,46,4,1,184,4,1131,0,0.3301476,6.727786,2.663078,-1
21,F,0,1,46,5,2,181,1,1809,1,0.1187209,12.33782,0.5410409,-1
21,F,0,1,46,6,1,183,3,3565,0,0.2640698,6.559082,2.210277,-1
21,F,0,1,46,7,1,182,2,3065,0,0.3138603,6.526114,2.622565,-1
21,F,0,1,46,8,2,183,3,1909,0,0.4861007,12.46596,2.174749,-1
21,F,0,1,47,1,1,186,2,2598,0,0.31955,6.519886,2.672689,-1
21,F,0,1,47,2,1,187,3,2698,0,0.1521004,6.559088,1.276409,-1
21,F,0,1,47,3,1,185,1,1109,0,0.3744272,6.358031,3.247331,-1
21,F,0,1,47,4,2,188,4,1520,0,0.6459502,12.58854,2.87249,-1
21,F,0,1,47,5,2,186,2,1342,0,0.5511081,12.47042,2.453916,-1
21,F,0,1,47,6,2,185,1,1897,0,0.8417853,12.35367,3.878079,-1
21,F,0,1,47,7,1,188,4,1065,0,0.5114049,6.735759,4.163207,-1
21,F,0,1,47,8,2,187,3,1353,0,8.786784E-08,12.44835,0,-1
21,F,0,1,48,1,1,189,1,1142,0,0.165062,6.350477,1.436132,-1
21,F,0,1,48,2,1,191,3,3109,0,6.131654E-08,6.561346,0,-1
21,F,0,1,48,3,2,190,2,1142,0,1.025239,12.47978,4.565273,-1
21,F,0,1,48,4,1,192,4,998,0,0.4580619,6.733247,3.729512,-1
21,F,0,1,48,5,1,190,2,1698,0,0.5425121,6.499414,4.554491,-1
21,F,0,1,48,6,2,189,1,1398,0,6.435381E-08,12.3453,0,-1
21,F,0,1,48,7,2,192,4,1265,0,4.230445E-08,12.58246,0,-1
21,F,0,1,48,8,2,191,3,1375,0,0.04955573,12.45226,0.2238118,-1
21,F,0,1,49,1,1,193,1,1298,0,0.3795416,6.348409,3.297406,-1
21,F,0,1,49,2,1,194,2,1665,0,0.4503774,6.513103,3.771799,-1
21,F,0,1,49,3,2,196,4,1231,0,0.241071,12.59151,1.072102,-1
21,F,0,1,49,4,1,195,3,3031,0,1.110061E-07,6.569558,0.01978234,-1
21,F,0,1,49,5,1,196,4,1742,0,0.1170837,6.76203,0.9487386,-1
21,F,0,1,49,6,2,194,2,1442,0,0.3979331,12.48833,1.783009,-1
21,F,0,1,49,7,2,193,1,1442,0,0.448626,12.36734,2.042102,-1
21,F,0,1,49,8,2,195,3,3109,1,0.7296631,12.49031,3.244617,-1
21,F,0,1,50,1,2,198,2,1131,0,0.8830252,12.49567,3.926005,-1
21,F,0,1,50,2,1,199,3,2631,0,0.09412634,6.576658,0.7868362,-1
21,F,0,1,50,3,1,200,4,4387,1,1.180331E-07,6.762236,0,-1
21,F,0,1,50,4,2,197,1,1187,0,0.9847577,12.37082,4.479165,-1
21,F,0,1,50,5,2,200,4,987,0,0.3612864,12.60459,1.603032,-1
21,F,0,1,50,6,2,199,3,1442,0,0.294557,12.4794,1.315815,-1
21,F,0,1,50,7,1,198,2,2365,0,0.4235925,6.515126,3.545968,-1
21,F,0,1,50,8,1,197,1,1142,0,0.2670003,6.359289,2.317058,-1
21,F,0,1,51,1,2,202,2,1220,0,0.5342972,12.48545,2.37644,-1
21,F,0,1,51,2,2,201,1,1065,0,0.3080762,12.36852,1.392548,-1
21,F,0,1,51,3,2,203,3,1809,0,1.787204E-07,12.48544,0,-1
21,F,0,1,51,4,1,202,2,1709,0,0.1663381,6.517896,1.390579,-1
21,F,0,1,51,5,1,204,4,2197,0,0.2443897,6.752796,2.004962,-1
21,F,0,1,51,6,1,203,3,3987,1,0.4402435,6.568717,3.676582,-1
21,F,0,1,51,7,1,201,1,1487,0,0.4656201,6.360893,4.035316,-1
21,F,0,1,51,8,2,204,4,2331,0,0.8124889,12.6038,3.652805,-1
21,F,0,1,52,1,2,207,3,1442,0,0.5966381,12.46115,2.68161,-1
21,F,0,1,52,2,2,206,2,1320,0,1.778658E-07,12.47425,0,-1
21,F,0,1,52,3,2,208,4,1542,0,1.851807E-07,12.59176,0,-1
21,F,0,1,52,4,1,205,1,1598,0,0.3260492,6.366062,2.825354,-1
21,F,0,1,52,5,1,208,4,2053,0,0.16424,6.762906,1.325446,-1
21,F,0,1,52,6,1,207,3,3020,0,0.0926294,6.569988,0.7745547,-1
21,F,0,1,52,7,2,205,1,1309,0,0.7980034,12.36409,3.594938,-1
21,F,0,1,52,8,1,206,2,2664,1,0.178452,6.50576,1.493707,-1
21,F,0,1,53,1,2,209,1,1431,0,0.6258519,12.35779,2.875487,-1
21,F,0,1,53,2,2,210,2,1131,0,0.4712431,12.47812,2.098818,-1
21,F,0,1,53,3,1,211,3,3431,0,0.3247488,6.571536,2.713681,-1
21,F,0,1,53,4,1,209,1,1309,0,0.5359545,6.370492,4.63857,-1
21,F,0,1,53,5,2,211,3,2487,0,0.5953985,12.48355,2.699434,-1
21,F,0,1,53,6,1,212,4,2809,1,0.05454322,6.755837,0.4419051,-1
21,F,0,1,53,7,1,210,2,1976,0,0.07588822,6.505563,0.6345818,-1
21,F,0,1,53,8,2,212,4,1175,0,0.0251244,12.59286,0.1119058,-1
21,F,0,1,54,1,1,215,3,3042,0,0.3135031,6.575336,2.615839,-1
21,F,0,1,54,2,1,213,1,1187,0,0.08832848,6.349701,0.7745547,-1
21,F,0,1,54,3,2,216,4,1620,0,0.5872756,12.60003,2.604515,-1
21,F,0,1,54,4,2,215,3,2287,0,0.4418527,12.46285,1.984555,-1
21,F,0,1,54,5,1,214,2,2765,1,0.3463028,6.508981,2.875214,-1
21,F,0,1,54,6,2,213,1,1264,0,1.455829E-09,12.35218,0,-1
21,F,0,1,54,7,1,216,4,2197,0,0.2925504,6.748582,2.391547,-1
21,F,0,1,54,8,2,214,2,2454,1,0.1563532,12.47078,0.7005339,-1
21,F,0,1,55,1,2,217,1,1409,0,0.7133414,12.35046,3.28551,-1
21,F,0,1,55,2,1,219,3,3998,0,0.09300044,6.575381,0.7770769,-1
21,F,0,1,55,3,2,218,2,898,0,0.5382884,12.47542,2.402,-1
21,F,0,1,55,4,1,217,1,2242,0,3.588909E-08,6.357129,0,-1
21,F,0,1,55,5,1,220,4,2253,1,0.03789515,6.753089,0.3064671,-1
21,F,0,1,55,6,2,219,3,2109,0,0.005027055,12.46812,0,-1
21,F,0,1,55,7,1,218,2,1420,0,0.2393979,6.501482,2.007206,-1
21,F,0,1,55,8,2,220,4,2909,1,0.2095857,12.60068,0.9383693,-1
21,F,0,1,56,1,1,222,2,1431,0,0.3832082,6.500384,3.182108,-1
21,F,0,1,56,2,1,223,3,2375,0,0.1372882,6.566607,1.147736,-1
21,F,0,1,56,3,2,221,1,1398,0,0.01807796,12.35325,0.08156469,-1
21,F,0,1,56,4,2,224,4,1320,0,0.4035509,12.59938,1.81402,-1
21,F,0,1,56,5,2,222,2,1164,0,0.733512,12.46576,3.277337,-1
21,F,0,1,56,6,1,224,4,3009,1,0.1714429,6.747272,1.392127,-1
21,F,0,1,56,7,1,221,1,998,0,3.670888E-08,6.334059,0,-1
21,F,0,1,56,8,2,223,3,2020,0,1.76588E-07,12.46771,0,-1
21,F,0,1,57,1,4,228,4,2076,0,0.5822074,12.59385,2.587777,-1
21,F,0,1,57,2,3,227,3,3320,0,0.2828605,6.638631,2.366619,-1
21,F,0,1,57,3,4,225,1,1386,0,0.3342066,12.34793,1.512067,-1
21,F,0,1,57,4,3,228,4,9397,0,0.2542083,6.74244,2.043922,-1
21,F,0,1,57,5,4,226,2,1097,0,0.5728264,12.51647,2.558567,-1
21,F,0,1,57,6,3,225,1,1742,0,0.4097116,6.361834,3.55143,-1
21,F,0,1,57,7,3,226,2,2320,0,0.519039,6.512414,4.347715,-1
21,F,0,1,57,8,4,227,3,1463,0,0.1559061,12.46538,0.6985759,-1
21,F,0,1,58,1,4,232,4,1287,0,0.25336,12.60457,1.135566,-1
21,F,0,1,58,2,4,230,2,1698,0,0.3514436,12.51879,1.573709,-1
21,F,0,1,58,3,4,229,1,1353,0,0.7339535,12.34501,3.345212,-1
21,F,0,1,58,4,3,231,3,2698,0,3.867449E-08,6.615787,0,-1
21,F,0,1,58,5,3,230,2,2753,0,0.05332357,6.5076,0.4458725,-1
21,F,0,1,58,6,3,229,1,2253,0,0.3571312,6.320739,3.111057,-1
21,F,0,1,58,7,4,231,3,1298,0,7.472007E-08,12.46406,0,-1
21,F,0,1,58,8,3,232,4,2498,0,0.5532092,6.786422,4.492265,-1
21,F,0,1,59,1,3,234,2,2220,0,0.5458524,6.520787,4.597169,-1
21,F,0,1,59,2,3,236,4,3553,0,0.2017429,6.739226,1.640202,-1
21,F,0,1,59,3,3,233,1,1642,0,0.3130731,6.320953,2.724192,-1
21,F,0,1,59,4,4,234,2,2298,1,0.2049594,12.47355,0.923021,-1
21,F,0,1,59,5,3,235,3,2598,0,0.254131,6.577947,2.143019,-1
21,F,0,1,59,6,4,233,1,1231,0,0.1236141,12.34262,0.5605795,-1
21,F,0,1,59,7,4,235,3,1320,0,0.1201541,12.46938,0.5424856,-1
21,F,0,1,59,8,4,236,4,1165,0,0.6404821,12.54569,2.838074,-1
21,F,0,1,60,1,3,238,2,3353,0,0.3454272,6.493391,2.874942,-1
21,F,0,1,60,2,3,237,1,2753,0,0.4158055,6.28833,3.62801,-1
21,F,0,1,60,3,4,239,3,2542,0,0.1745587,12.50309,0.7903101,-1
21,F,0,1,60,4,4,240,4,2087,0,0.08075487,12.60383,0.3609945,-1
21,F,0,1,60,5,3,239,3,3731,0,3.849267E-08,6.574428,0,-1
21,F,0,1,60,6,4,237,1,3342,2,0.4995057,12.35361,2.282848,-1
21,F,0,1,60,7,3,240,4,1409,0,0.4631412,6.752242,3.760986,-1
21,F,0,1,60,8,4,238,2,1076,0,0.4952771,12.47395,2.217703,-1
21,F,0,1,61,1,2,243,3,1253,0,0.6088676,12.32826,2.741312,-1
21,F,0,1,61,2,1,241,1,1576,0,0.06071116,6.217765,0.5406791,-1
21,F,0,1,61,3,2,242,2,1420,0,0.7703454,12.35215,3.473389,-1
21,F,0,1,61,4,2,241,1,1298,0,0.05415523,12.22603,0.2478722,-1
21,F,0,1,61,5,2,244,4,1154,0,0.3179682,12.45645,1.428344,-1
21,F,0,1,61,6,1,243,3,2465,0,0.296459,6.44693,2.523751,-1
21,F,0,1,61,7,1,242,2,2387,0,0.5212265,6.418518,4.430007,-1
21,F,0,1,61,8,1,244,4,3587,1,0.1815919,6.612039,1.501287,-1
21,F,0,1,62,1,1,246,2,1842,0,0.4717879,6.411796,4.012882,-1
21,F,0,1,62,2,1,247,3,3098,0,0.1131775,6.447256,0.9610341,-1
21,F,0,1,62,3,2,248,4,1375,0,0.08193403,12.457,0.3685048,-1
21,F,0,1,62,4,2,245,1,1364,0,3.141363E-08,12.21474,0,-1
21,F,0,1,62,5,2,246,2,987,0,0.3431967,12.35521,1.551669,-1
21,F,0,1,62,6,1,248,4,1120,0,7.822793E-08,6.620025,0,-1
21,F,0,1,62,7,2,247,3,1476,0,1.397919E-07,12.32744,0,-1
21,F,0,1,62,8,1,245,1,1287,0,0.4259667,6.217769,3.770605,-1
21,F,0,1,1,1,8,1,1,3307,0,0.9959193,12.29988,4.56909,-1
21,F,0,1,1,2,7,4,4,2209,0,2.839189,6.608236,24.97836,-1
21,F,0,1,1,3,5,1,1,2298,0,3.154006,6.293253,29.74107,-1
21,F,0,1,1,4,6,3,3,2476,0,2.068329,12.38135,9.492995,-1
21,F,0,1,1,5,8,4,4,4464,0,6.588345,12.48088,31.86198,-1
21,F,0,1,1,6,7,3,3,2276,0,3.476564,6.548222,30.78466,-1
21,F,0,1,1,7,7,2,2,2331,0,3.801569,6.477709,34.426,-1
21,F,0,1,1,8,7,1,1,3142,0,1.973971,6.244323,18.42858,-1
21,F,0,1,1,9,8,2,2,1976,0,2.037132,12.41691,9.215971,-1
21,F,0,1,1,10,6,4,4,2920,0,0.6455658,12.497,2.891237,-1
21,F,0,1,1,11,8,3,3,3265,0,3.882137,12.37187,17.69605,-1
21,F,0,1,1,12,6,2,2,3564,0,2.69635,12.38188,12.17736,-1
21,F,0,1,1,13,5,3,3,4253,0,0.02834564,6.485479,0.2390311,-1
21,F,0,1,1,14,6,1,1,5209,0,8.836701,12.28462,45.99921,-1
21,F,0,1,1,15,5,4,4,4509,0,3.955771,6.614825,36.72794,-1
21,F,0,1,1,16,5,2,2,4420,0,1.13115,6.437275,9.621182,-1
21,F,0,1,2,1,7,3,3,4964,0,5.856503,6.554212,63.32243,-1
21,F,0,1,2,2,8,1,1,3031,0,4.228167,12.29764,20.10975,-1
21,F,0,1,2,3,6,4,4,1942,0,1.279327,12.48562,5.742043,-1
21,F,0,1,2,4,8,2,2,4164,0,1.157357,12.40497,5.225398,-1
21,F,0,1,2,5,5,1,1,1787,0,1.2295,6.253543,10.99447,-1
21,F,0,1,2,6,7,4,4,2109,0,3.527118,6.604281,31.66242,-1
21,F,0,1,2,7,7,1,1,3264,0,3.466817,6.255022,33.65875,-1
21,F,0,1,2,8,8,3,3,3298,0,1.714623,12.35932,7.872128,-1
21,F,0,1,2,9,5,2,2,3309,0,2.111774,6.425348,18.21617,-1
21,F,0,1,2,10,6,1,1,5364,0,3.531157,12.2672,16.60373,-1
21,F,0,1,2,11,6,3,3,4498,0,3.757184,12.39152,17.41858,-1
21,F,0,1,2,12,6,2,2,4853,0,6.047691,12.37763,29.24852,-1
21,F,0,1,2,13,8,4,4,3064,0,2.008276,12.47334,9.019401,-1
21,F,0,1,2,14,5,3,3,2653,0,3.038468,6.502362,26.58311,-1
21,F,0,1,2,15,7,2,2,6431,0,2.613596,6.4535,22.84438,-1
21,F,0,1,2,16,5,4,4,3931,0,1.322141,6.647439,11.28324,-1
