Age, Gender, Awareness Type, Session, Block, Trial, Set, Pattern, Quadrant, Response Time, Num Mistakes, Distance From Target, Camera Distance From Target, Angle Error (Degrees), FC Response
18,M,0,1,1,1,1,1,1,2709,0,0.2236785,6.17123,1.984259,-1
18,M,0,1,1,2,1,3,3,3553,0,0.3955492,6.267069,3.449009,-1
18,M,0,1,1,3,1,4,4,2698,0,0.2736263,6.449106,2.336405,-1
18,M,0,1,1,4,2,1,1,7775,3,0.14187,12.27578,0.652521,-1
18,M,0,1,1,5,2,2,2,3387,0,0.9917699,12.32005,4.531423,-1
18,M,0,1,1,6,2,3,3,1219,0,0.2899094,12.13614,1.34392,-1
18,M,0,1,1,7,2,4,4,2298,0,0.9277512,12.40111,4.224151,-1
18,M,0,1,1,8,1,2,2,5320,0,0.3705768,6.416629,3.163845,-1
18,M,0,1,2,1,2,8,4,4753,1,0.6531447,12.39072,2.993625,-1
18,M,0,1,2,2,2,5,1,6509,4,0.1688447,12.23367,0.7765731,-1
18,M,0,1,2,3,2,7,3,1787,0,0.3730676,12.13588,1.712922,-1
18,M,0,1,2,4,1,5,1,1331,0,0.2619257,6.168403,2.324648,-1
18,M,0,1,2,5,1,6,2,8887,0,0.02518349,6.430748,0.2158,-1
18,M,0,1,2,6,1,8,4,3342,0,0.2630533,6.435419,2.235809,-1
18,M,0,1,2,7,2,6,2,1498,0,0.5444754,12.31251,2.502411,-1
18,M,0,1,2,8,1,7,3,3376,0,0.4035446,6.266999,3.52781,-1
18,M,0,1,3,1,1,10,2,6709,0,0.4513271,6.421922,3.871762,-1
18,M,0,1,3,2,2,12,4,5620,2,1.01216,12.39507,4.634091,-1
18,M,0,1,3,3,1,9,1,4242,0,1.539973E-08,6.170672,0,-1
18,M,0,1,3,4,1,12,4,3909,0,0.1663508,6.441619,1.4143,-1
18,M,0,1,3,5,2,9,1,2798,0,0.7448747,12.27015,3.436156,-1
18,M,0,1,3,6,2,11,3,2031,0,0.9626871,12.14888,4.473608,-1
18,M,0,1,3,7,2,10,2,1831,0,0.6880873,12.31718,3.123116,-1
18,M,0,1,3,8,1,11,3,1298,0,0.2820759,6.27048,2.461561,-1
18,M,0,1,4,1,2,14,2,6842,6,0.06792923,12.3073,0.309643,-1
18,M,0,1,4,2,1,16,4,3798,0,0.1353452,6.448294,1.144321,-1
18,M,0,1,4,3,1,13,1,2431,0,5.228733E-08,6.177009,0,-1
18,M,0,1,4,4,1,15,3,2387,0,0.2735632,6.29441,2.380637,-1
18,M,0,1,4,5,1,14,2,3087,1,0.5123292,6.432281,4.376585,-1
18,M,0,1,4,6,2,15,3,1087,0,0.645515,12.16651,2.968342,-1
18,M,0,1,4,7,2,13,1,1153,0,2.363927E-07,12.29043,0.01978234,-1
18,M,0,1,4,8,2,16,4,1753,1,1.021013,12.42562,4.669296,-1
18,M,0,1,5,1,2,19,3,3876,0,0.254524,12.16917,1.167346,-1
18,M,0,1,5,2,2,17,1,3464,0,0.5961176,12.30717,2.738311,-1
18,M,0,1,5,3,2,18,2,1387,0,0.591821,12.34807,2.661387,-1
18,M,0,1,5,4,1,19,3,3565,0,0.06922222,6.287398,0.6013339,-1
18,M,0,1,5,5,1,20,4,1242,0,0.1489373,6.469914,1.254918,-1
18,M,0,1,5,6,1,17,1,1009,0,0.2704134,6.208709,2.390319,-1
18,M,0,1,5,7,2,20,4,998,0,0.4231317,12.41994,1.898161,-1
18,M,0,1,5,8,1,18,2,3743,0,0.1941086,6.451287,1.633986,-1
18,M,0,1,6,1,1,24,4,2620,0,7.189425E-08,6.467405,0,-1
18,M,0,1,6,2,2,22,2,2053,0,0.5328755,12.34399,2.446486,-1
18,M,0,1,6,3,1,21,1,2631,0,1.612183E-07,6.192301,0,-1
18,M,0,1,6,4,1,23,3,2731,0,0.1341489,6.294248,1.161296,-1
18,M,0,1,6,5,2,21,1,1542,0,0.5021399,12.30732,2.278557,-1
18,M,0,1,6,6,2,24,4,3353,3,1.058297,12.40495,4.739831,-1
18,M,0,1,6,7,1,22,2,3720,0,0.4968998,6.437347,4.252937,-1
18,M,0,1,6,8,2,23,3,2009,0,0.902391,12.17226,4.152845,-1
18,M,0,1,7,1,2,25,1,1198,0,0.2726642,12.30562,1.253201,-1
18,M,0,1,7,2,1,28,4,3065,0,6.872121E-08,6.475292,0.01978234,-1
18,M,0,1,7,3,2,27,3,2487,2,0.6514683,12.16304,3.034801,-1
18,M,0,1,7,4,1,26,2,4009,1,0.03835849,6.458665,0.3238513,-1
18,M,0,1,7,5,1,25,1,1609,1,0.2464487,6.199484,2.202826,-1
18,M,0,1,7,6,2,28,4,1720,1,0.5149069,12.43849,2.297973,-1
18,M,0,1,7,7,2,26,2,2342,0,0.9960098,12.3482,4.563256,-1
18,M,0,1,7,8,1,27,3,1442,0,0.245579,6.299224,2.131756,-1
18,M,0,1,8,1,2,32,4,3787,3,0.3445612,12.44053,1.537988,-1
18,M,0,1,8,2,1,30,2,6353,4,0.4539447,6.449203,3.833336,-1
18,M,0,1,8,3,2,31,3,4453,5,0.9590387,12.17374,4.440341,-1
18,M,0,1,8,4,1,32,4,3309,0,0.3378165,6.474349,2.837798,-1
18,M,0,1,8,5,1,31,3,5753,4,0.5103021,6.320508,4.411842,-1
18,M,0,1,8,6,1,29,1,1531,0,0.29083,6.198862,2.605567,-1
18,M,0,1,8,7,2,30,2,4064,0,0.8414445,12.35479,3.837931,-1
18,M,0,1,8,8,2,29,1,1431,0,0.8379191,12.3141,3.85097,-1
18,M,0,1,9,1,1,36,4,1665,0,9.061545E-08,6.478956,0,-1
18,M,0,1,9,2,1,35,3,2064,0,0.3773698,6.315488,3.272973,-1
18,M,0,1,9,3,1,33,1,2242,1,1.610001E-07,6.218806,0,-1
18,M,0,1,9,4,2,34,2,2698,0,0.5326497,12.35815,2.405908,-1
18,M,0,1,9,5,2,35,3,1098,0,5.46866E-08,12.1889,0,-1
18,M,0,1,9,6,1,34,2,3153,0,0.1513258,6.462824,1.273493,-1
18,M,0,1,9,7,2,36,4,853,0,0.8458294,12.44183,3.780822,-1
18,M,0,1,9,8,2,33,1,1165,0,0.2765295,12.3216,1.261916,-1
18,M,0,1,10,1,2,40,4,976,0,0.6962935,12.44438,3.112818,-1
18,M,0,1,10,2,1,39,3,2820,0,0.09275517,6.310338,0.8030819,-1
18,M,0,1,10,3,1,37,1,1720,0,1.702164E-07,6.214487,0.01978234,-1
18,M,0,1,10,4,2,38,2,5620,3,0.7783123,12.29353,3.591287,-1
18,M,0,1,10,5,2,37,1,1376,0,0.9814109,12.31713,4.482444,-1
18,M,0,1,10,6,2,39,3,1031,0,0.32863,12.19676,1.512197,-1
18,M,0,1,10,7,1,38,2,7642,9,0.4234654,6.280932,3.657894,-1
18,M,0,1,10,8,1,40,4,5709,4,0.2784256,6.494183,2.365378,-1
18,M,0,1,11,1,2,42,2,5387,0,0.8203623,12.34039,3.771799,-1
18,M,0,1,11,2,2,41,1,1887,0,0.4053749,12.29495,1.859832,-1
18,M,0,1,11,3,2,44,4,1631,1,0.06588914,12.43093,0.2967354,-1
18,M,0,1,11,4,2,43,3,942,0,0.9060149,12.18638,4.12469,-1
18,M,0,1,11,5,1,42,2,1931,0,0.4755889,6.445539,4.065294,-1
18,M,0,1,11,6,1,43,3,1976,0,0.2313924,6.315363,2.006914,-1
18,M,0,1,11,7,1,44,4,2431,1,0.0903063,6.488152,0.7576976,-1
18,M,0,1,11,8,1,41,1,1109,0,0.3522934,6.207152,3.10898,-1
18,M,0,1,12,1,2,47,3,1342,1,0.3494979,12.18286,1.615436,-1
18,M,0,1,12,2,1,45,1,1165,0,0.2962395,6.203354,2.61172,-1
18,M,0,1,12,3,2,48,4,2942,5,0.6955062,12.44047,3.10438,-1
18,M,0,1,12,4,2,46,2,920,0,0.8910978,12.3507,4.035268,-1
18,M,0,1,12,5,1,48,4,2731,0,0.2764155,6.48033,2.333471,-1
18,M,0,1,12,6,1,47,3,2175,0,0.2634867,6.314112,2.278385,-1
18,M,0,1,12,7,2,45,1,1053,0,0.2145866,12.35928,0.9759852,-1
18,M,0,1,12,8,1,46,2,3475,1,0.3792226,6.491717,3.196962,-1
18,M,0,1,13,1,1,51,3,2931,0,0.4831749,6.349339,4.170633,-1
18,M,0,1,13,2,1,49,1,1575,1,0.01686332,6.259929,0.1480375,-1
18,M,0,1,13,3,2,52,4,809,0,0.9676544,12.49214,4.308208,-1
18,M,0,1,13,4,1,50,2,7331,4,0.5027164,6.352407,4.298104,-1
18,M,0,1,13,5,2,51,3,1020,0,0.2120518,12.24175,0.9675278,-1
18,M,0,1,13,6,1,52,4,2053,0,0.1208037,6.520177,1.011044,-1
18,M,0,1,13,7,2,49,1,876,0,0.4090041,12.36266,1.848221,-1
18,M,0,1,13,8,2,50,2,2031,0,0.183993,12.40373,0.8296872,-1
18,M,0,1,14,1,1,55,3,2465,0,0.4158705,6.359973,3.585503,-1
18,M,0,1,14,2,2,53,1,987,0,0.4793065,12.36776,2.16835,-1
18,M,0,1,14,3,1,56,4,9098,9,0.257231,6.499332,2.164736,-1
18,M,0,1,14,4,2,54,2,6465,2,0.9551866,12.38579,4.3172,-1
18,M,0,1,14,5,1,53,1,2965,2,0.01282665,6.238415,0.1119058,-1
18,M,0,1,14,6,1,54,2,2420,1,0.499563,6.48865,4.221832,-1
18,M,0,1,14,7,2,56,4,1020,0,0.7379433,12.46614,3.344919,-1
18,M,0,1,14,8,2,55,3,1176,0,0.8263399,12.23089,3.750245,-1
18,M,0,1,15,1,2,60,4,2287,0,0.9079314,12.47193,4.043945,-1
18,M,0,1,15,2,2,58,2,2031,0,0.6545436,12.39096,2.953467,-1
18,M,0,1,15,3,1,59,3,3631,0,0.02356054,6.322297,0.2027088,-1
18,M,0,1,15,4,1,58,2,3820,1,0.2310175,6.480299,1.958447,-1
18,M,0,1,15,5,1,57,1,1398,0,0.1568044,6.235393,1.371593,-1
18,M,0,1,15,6,2,59,3,4543,0,0.6018644,12.22657,2.781645,-1
18,M,0,1,15,7,1,60,4,3264,0,0.1486526,6.511779,1.244741,-1
18,M,0,1,15,8,2,57,1,4498,0,0.03957291,12.34188,0.1791368,-1
18,M,0,1,16,1,1,64,4,5509,1,0.2683183,6.501616,2.264599,-1
18,M,0,1,16,2,1,61,1,3098,1,0.5220403,6.232483,4.607979,-1
18,M,0,1,16,3,2,62,2,1276,0,0.5155902,12.39709,2.316128,-1
18,M,0,1,16,4,1,63,3,3409,0,0.3905034,6.331409,3.378813,-1
18,M,0,1,16,5,2,61,1,1487,0,0.8656092,12.35393,3.911764,-1
18,M,0,1,16,6,2,63,3,2953,0,0.3337317,12.23662,1.520585,-1
18,M,0,1,16,7,1,62,2,1876,1,0.1900741,6.489421,1.589178,-1
18,M,0,1,16,8,2,64,4,3909,0,0.9397652,12.47561,4.184837,-1
18,M,0,1,17,1,4,67,3,3220,0,0.1015608,12.25972,0.4652019,-1
18,M,0,1,17,2,3,65,1,1020,0,0.3393617,6.21401,2.932447,-1
18,M,0,1,17,3,3,67,3,2731,0,0.4061045,6.353707,3.478909,-1
18,M,0,1,17,4,3,66,2,1309,0,0.1288212,6.462118,1.084983,-1
18,M,0,1,17,5,4,68,4,1431,1,0.1388399,12.47716,0.6218109,-1
18,M,0,1,17,6,4,65,1,831,0,0.4466,12.31287,2.015477,-1
18,M,0,1,17,7,4,66,2,909,0,0.5724587,12.38199,2.601583,-1
18,M,0,1,17,8,3,68,4,2764,0,0.3789473,6.486277,3.171632,-1
18,M,0,1,18,1,3,69,1,1543,0,0.1326503,6.216526,1.163988,-1
18,M,0,1,18,2,4,70,2,2387,1,0.9814889,12.38563,4.397435,-1
18,M,0,1,18,3,4,69,1,1187,0,0.5942848,12.30774,2.703854,-1
18,M,0,1,18,4,4,71,3,1198,0,0.0523574,12.21669,0.2398483,-1
18,M,0,1,18,5,3,70,2,2909,2,0.007838322,6.376267,0.0656106,-1
18,M,0,1,18,6,3,72,4,2409,1,0.4443894,6.410164,3.75395,-1
18,M,0,1,18,7,3,71,3,3319,0,0.2285848,6.339337,1.968614,-1
18,M,0,1,18,8,4,72,4,3587,3,0.9810995,12.42339,4.385214,-1
18,M,0,1,19,1,3,74,2,3164,1,0.2439959,6.4168,2.055951,-1
18,M,0,1,19,2,4,75,3,4020,0,0.6619321,12.21792,3.079815,-1
18,M,0,1,19,3,3,73,1,3098,0,0.1240323,6.182543,1.094858,-1
18,M,0,1,19,4,3,76,4,4342,0,0.2850414,6.468072,2.423901,-1
18,M,0,1,19,5,4,73,1,920,0,0.5505862,12.32134,2.4934,-1
18,M,0,1,19,6,4,76,4,776,0,0.3316668,12.4588,1.480152,-1
18,M,0,1,19,7,4,74,2,1031,0,0.7076904,12.365,3.176012,-1
18,M,0,1,19,8,3,75,3,2309,0,0.4620129,6.33441,4.033714,-1
18,M,0,1,20,1,3,78,2,1809,1,0.4849466,6.461129,4.135549,-1
18,M,0,1,20,2,3,79,3,2720,0,0.3534969,6.315132,3.060814,-1
18,M,0,1,20,3,4,77,1,1531,1,0.8837066,12.31886,4.071262,-1
18,M,0,1,20,4,3,80,4,3442,0,1.072733E-07,6.486217,0,-1
18,M,0,1,20,5,4,79,3,1120,0,0.5553729,12.19926,2.580354,-1
18,M,0,1,20,6,3,77,1,4876,0,0.07478487,6.216001,0.6564078,-1
18,M,0,1,20,7,4,80,4,2020,0,0.8959508,12.46129,3.998411,-1
18,M,0,1,20,8,4,78,2,942,0,0.8219603,12.38925,3.689235,-1
18,M,0,1,20,1,1,77,1,2031,0,0.2951906,6.251251,2.587777,-1
18,M,0,1,20,2,2,79,3,1454,0,0.4787079,12.30085,2.16844,-1
18,M,0,1,20,3,2,78,2,2109,0,0.2580123,12.46337,1.162475,-1
18,M,0,1,20,4,2,80,4,1642,1,0.05077704,12.53097,0.2255535,-1
18,M,0,1,20,5,2,77,1,1153,0,0.1451296,12.4185,0.6573014,-1
18,M,0,1,20,6,1,80,4,2609,0,0.2364504,6.525584,1.981298,-1
18,M,0,1,20,7,1,78,2,5420,4,0.06653978,6.282878,0.57743,-1
18,M,0,1,20,8,1,79,3,2965,1,0.2302837,6.299172,2.008181,-1
18,M,0,1,21,1,1,84,4,2309,0,0.09330939,6.503783,0.7843454,-1
18,M,0,1,21,2,2,82,2,1020,0,0.7482673,12.41175,3.352462,-1
18,M,0,1,21,3,2,83,3,831,0,0.7094043,12.23714,3.220269,-1
18,M,0,1,21,4,1,82,2,1431,0,0.405968,6.501895,3.432165,-1
18,M,0,1,21,5,2,84,4,909,0,0.9780779,12.49456,4.349336,-1
18,M,0,1,21,6,2,81,1,853,0,0.09765369,12.37497,0.4432315,-1
18,M,0,1,21,7,1,83,3,1309,0,0.1382629,6.330636,1.194685,-1
18,M,0,1,21,8,1,81,1,887,0,0.465805,6.278032,4.058447,-1
18,M,0,1,22,1,1,86,2,4209,0,0.2838324,6.51184,2.363391,-1
18,M,0,1,22,2,1,85,1,3887,0,0.1653413,6.27647,1.443743,-1
18,M,0,1,22,3,2,87,3,1376,0,0.9784334,12.24488,4.545579,-1
18,M,0,1,22,4,1,88,4,5953,0,0.06410273,6.505555,0.5385033,-1
18,M,0,1,22,5,1,87,3,2287,0,0.2366664,6.333941,2.043539,-1
18,M,0,1,22,6,2,88,4,976,0,0.1344773,12.49337,0.6016592,-1
18,M,0,1,22,7,2,85,1,2765,0,0.6764765,12.38917,3.092565,-1
18,M,0,1,22,8,2,86,2,1176,0,0.3033854,12.42488,1.380126,-1
18,M,0,1,23,1,1,92,4,1565,0,0.2984057,6.506228,2.508583,-1
18,M,0,1,23,2,1,90,2,4942,1,0.5012884,6.516635,4.23022,-1
18,M,0,1,23,3,1,91,3,4731,3,0.3115362,6.274172,2.698709,-1
18,M,0,1,23,4,2,89,1,1242,0,0.391473,12.42647,1.776741,-1
18,M,0,1,23,5,2,91,3,1331,0,0.05375797,12.287,0.2462884,-1
18,M,0,1,23,6,2,92,4,1142,0,0.8394591,12.53946,3.718891,-1
18,M,0,1,23,7,2,90,2,1787,0,3.600296E-07,12.46121,0,-1
18,M,0,1,23,8,1,89,1,3231,0,0.2688633,6.314565,2.334226,-1
18,M,0,1,24,1,1,95,3,2787,0,0.07761008,6.36865,0.667053,-1
18,M,0,1,24,2,2,93,1,1308,0,0.3945684,12.37445,1.779493,-1
18,M,0,1,24,3,2,96,4,864,0,0.8998013,12.49642,4.004822,-1
18,M,0,1,24,4,2,95,3,1287,0,0.9282026,12.24913,4.215518,-1
18,M,0,1,24,5,1,94,2,8065,2,0.3293991,6.502282,2.782771,-1
18,M,0,1,24,6,1,96,4,1520,0,0.12108,6.493173,1.018948,-1
18,M,0,1,24,7,2,94,2,4153,0,0.8782446,12.27786,4.001495,-1
18,M,0,1,24,8,1,93,1,2009,0,0.07546629,6.210636,0.6638185,-1
18,M,0,1,25,1,1,98,2,2042,0,1.39522E-07,6.521214,0,-1
18,M,0,1,25,2,2,100,4,754,0,0.6437241,12.50218,2.865052,-1
18,M,0,1,25,3,2,99,3,864,0,0.7879338,12.25073,3.574455,-1
18,M,0,1,25,4,1,97,1,1142,0,0.1230979,6.27028,1.076473,-1
18,M,0,1,25,5,2,98,2,1954,0,0.05496556,12.42758,0.2478722,-1
18,M,0,1,25,6,2,97,1,1920,0,2.815257E-08,12.38568,0,-1
18,M,0,1,25,7,1,100,4,4009,0,0.3026816,6.511232,2.538136,-1
18,M,0,1,25,8,1,99,3,1254,0,0.3782685,6.347108,3.264528,-1
18,M,0,1,26,1,1,102,2,3431,1,0.09141622,6.525039,0.7666831,-1
18,M,0,1,26,2,1,104,4,1820,0,0.1400961,6.521471,1.171195,-1
18,M,0,1,26,3,2,102,2,3109,0,0.6947217,12.42347,3.147716,-1
18,M,0,1,26,4,2,101,1,909,0,0.9893732,12.38372,4.527575,-1
18,M,0,1,26,5,1,103,3,2753,0,0.1233687,6.341129,1.063305,-1
18,M,0,1,26,6,1,101,1,2098,2,0.2032764,6.268013,1.762808,-1
18,M,0,1,26,7,2,104,4,831,0,0.9831914,12.5064,4.368074,-1
18,M,0,1,26,8,2,103,3,1831,1,0.3596243,12.25081,1.653629,-1
18,M,0,1,27,1,2,105,1,1120,0,0.3501312,12.39239,1.577808,-1
18,M,0,1,27,2,2,106,2,2231,0,0.6110699,12.41625,2.731082,-1
18,M,0,1,27,3,1,105,1,2409,0,0.08772278,6.257144,0.7720242,-1
18,M,0,1,27,4,2,108,4,1465,1,0.9936118,12.50642,4.405756,-1
18,M,0,1,27,5,2,107,3,2431,2,6.928999E-08,12.21865,0,-1
18,M,0,1,27,6,1,108,4,2965,0,0.0207587,6.515956,0.1735894,-1
18,M,0,1,27,7,1,106,2,1765,0,0.4880683,6.511889,4.050236,-1
18,M,0,1,27,8,1,107,3,1631,0,6.868281E-08,6.336082,0,-1
18,M,0,1,28,1,1,110,2,9999,0,-1,-1,-1,-1
18,M,0,1,28,2,1,111,3,2987,0,2.789694E-08,6.316424,0,-1
18,M,0,1,28,3,2,112,4,920,0,0.2822826,12.495,1.255697,-1
18,M,0,1,28,4,1,109,1,2064,1,0.2865283,6.263523,2.515439,-1
18,M,0,1,28,5,2,110,2,1265,0,1.002233,12.4181,4.516182,-1
18,M,0,1,28,6,2,111,3,1287,0,0.4475299,12.22853,2.048991,-1
18,M,0,1,28,7,1,112,4,3887,0,0.08040305,6.508085,0.6755064,-1
18,M,0,1,28,8,2,109,1,2242,0,0.2189648,12.37461,0.9950465,-1
18,M,0,1,29,1,1,115,3,2487,0,0.3158913,6.329186,2.732801,-1
18,M,0,1,29,2,2,113,1,2320,0,0.1697226,12.38656,0.7679582,-1
18,M,0,1,29,3,2,115,3,1020,0,0.5626101,12.26057,2.594953,-1
18,M,0,1,29,4,2,114,2,1165,0,0.6123068,12.43591,2.732443,-1
18,M,0,1,29,5,2,116,4,1098,0,0.8246986,12.50521,3.663243,-1
18,M,0,1,29,6,1,114,2,3720,1,0.3299117,6.525088,2.785653,-1
18,M,0,1,29,7,1,116,4,3187,2,0.09154675,6.517158,0.7666831,-1
18,M,0,1,29,8,1,113,1,1398,0,0.204758,6.274761,1.789801,-1
18,M,0,1,30,1,2,118,2,3587,0,0.02895909,12.43657,0.1297215,-1
18,M,0,1,30,2,1,120,4,2687,0,0.4487262,6.520446,3.765772,-1
18,M,0,1,30,3,1,119,3,1909,0,0.4770682,6.344634,4.12013,-1
18,M,0,1,30,4,2,120,4,987,0,0.9809759,12.50882,4.357434,-1
18,M,0,1,30,5,1,118,2,1587,0,0.4574203,6.523428,3.864422,-1
18,M,0,1,30,6,1,117,1,2087,1,0.4655834,6.274258,4.058689,-1
18,M,0,1,30,7,2,119,3,3376,3,1.428554E-07,12.22791,0,-1
18,M,0,1,30,8,2,117,1,2587,0,3.035415E-08,12.37737,0,-1
18,M,0,1,31,1,1,123,3,3320,2,0.1184942,6.337955,1.019332,-1
18,M,0,1,31,2,2,124,4,1320,0,0.6152045,12.50297,2.735951,-1
18,M,0,1,31,3,2,121,1,1998,1,0.4294406,12.35558,1.963936,-1
18,M,0,1,31,4,1,122,2,1787,0,0.4485078,6.507524,3.797874,-1
18,M,0,1,31,5,2,123,3,898,0,0.3275738,12.24731,1.491478,-1
18,M,0,1,31,6,1,121,1,1543,0,7.007747E-08,6.259189,0,-1
18,M,0,1,31,7,2,122,2,1420,0,1.03717,12.41539,4.694066,-1
18,M,0,1,31,8,1,124,4,2198,1,0.01380667,6.522578,0.1136409,-1
18,M,0,1,32,1,2,125,1,954,0,1.047907,12.37713,4.72895,-1
18,M,0,1,32,2,1,127,3,1376,0,0.2014329,6.340805,1.738663,-1
18,M,0,1,32,3,2,126,2,1287,0,0.9391937,12.41818,4.199133,-1
18,M,0,1,32,4,2,127,3,998,0,0.7406151,12.2518,3.363248,-1
18,M,0,1,32,5,1,125,1,1742,1,1.053422E-07,6.261492,0,-1
18,M,0,1,32,6,2,128,4,742,0,0.7405471,12.52118,3.355322,-1
18,M,0,1,32,7,1,126,2,2954,0,0.3361823,6.523456,2.822304,-1
18,M,0,1,32,8,1,128,4,2753,0,1.803694E-07,6.529818,0,-1
18,M,0,1,33,1,2,129,1,1565,0,0.2510554,12.39233,1.140381,-1
18,M,0,1,33,2,2,130,2,4286,0,0.4914925,12.43371,2.193388,-1
18,M,0,1,33,3,2,132,4,964,0,0.4806394,12.51272,2.143658,-1
18,M,0,1,33,4,1,130,2,7998,0,0.03592863,6.520235,0.3006659,-1
18,M,0,1,33,5,1,131,3,2120,0,0.2324892,6.347397,1.995569,-1
18,M,0,1,33,6,1,129,1,1164,0,0.3892301,6.280484,3.388823,-1
18,M,0,1,33,7,1,132,4,3998,0,1.833181E-07,6.615633,0,-1
18,M,0,1,33,8,2,131,3,1109,0,1.022586,12.3694,4.5912,-1
18,M,0,1,34,1,1,133,1,1065,0,0.3689861,6.31271,3.206684,-1
18,M,0,1,34,2,1,135,3,3053,0,0.1414512,6.39824,1.209822,-1
18,M,0,1,34,3,2,134,2,987,0,0.9699227,12.46955,4.33445,-1
18,M,0,1,34,4,1,136,4,3365,0,0.1158974,6.577326,0.9614412,-1
18,M,0,1,34,5,2,133,1,2020,0,0.7755895,12.43055,3.486611,-1
18,M,0,1,34,6,2,136,4,953,0,0.3652358,12.58135,1.627024,-1
18,M,0,1,34,7,2,135,3,1587,1,0.7727281,12.30947,3.558315,-1
18,M,0,1,34,8,1,134,2,2653,0,0.427912,6.570047,3.589378,-1
18,M,0,1,35,1,2,139,3,1164,0,0.06489113,12.30091,0.2954137,-1
18,M,0,1,35,2,1,137,1,1476,1,0.4671353,6.322461,4.042202,-1
18,M,0,1,35,3,1,139,3,3764,1,0.2923566,6.389172,2.501394,-1
18,M,0,1,35,4,1,138,2,2720,0,0.5212022,6.563759,4.377704,-1
18,M,0,1,35,5,2,137,1,4187,2,1.021811,12.45048,4.651474,-1
18,M,0,1,35,6,1,140,4,1520,0,0.3008381,6.564889,2.506553,-1
18,M,0,1,35,7,2,138,2,954,0,0.5226818,12.49425,2.327256,-1
18,M,0,1,35,8,2,140,4,1065,0,0.7083726,12.56226,3.155853,-1
18,M,0,1,37,1,3,147,3,3453,0,0.38169,6.400698,3.280501,-1
18,M,0,1,37,2,4,148,4,3565,1,0.7044315,12.61594,3.108728,-1
18,M,0,1,37,3,3,145,1,2253,0,0.5194137,6.306738,4.507065,-1
18,M,0,1,37,4,4,146,2,1409,0,0.3916361,12.48353,1.748652,-1
18,M,0,1,37,5,4,147,3,3176,2,0.530217,12.23795,2.420669,-1
18,M,0,1,37,6,3,148,4,1398,0,0.3923915,6.526259,3.259486,-1
18,M,0,1,37,7,4,145,1,1931,1,0.7054083,12.375,3.218506,-1
18,M,0,1,37,8,3,146,2,3142,1,0.3544488,6.545234,2.924158,-1
18,M,0,1,38,1,3,151,3,2498,0,0.3934221,6.375179,3.380319,-1
18,M,0,1,38,2,3,149,1,1420,0,0.3577381,6.288342,3.080132,-1
18,M,0,1,38,3,4,151,3,1187,0,0.9728152,12.31645,4.388339,-1
18,M,0,1,38,4,3,152,4,2142,0,0.0005281452,6.543349,0,-1
18,M,0,1,38,5,3,150,2,2153,0,0.5453532,6.565377,4.511235,-1
18,M,0,1,38,6,4,152,4,8186,1,0.1338621,12.59267,0.5951191,-1
18,M,0,1,38,7,4,149,1,1642,0,0.2025845,12.39756,0.9119305,-1
18,M,0,1,38,8,4,150,2,2498,2,0.7765555,12.46117,3.530751,-1
18,M,0,1,39,1,3,155,3,4598,2,0.4701883,6.361089,4.106132,-1
18,M,0,1,39,2,4,156,4,909,0,0.7743772,12.55882,3.49564,-1
18,M,0,1,39,3,4,154,2,1009,0,0.6897381,12.50424,3.061965,-1
18,M,0,1,39,4,4,155,3,1087,0,0.7204405,12.31045,3.254437,-1
18,M,0,1,39,5,3,153,1,1931,0,0.18031,6.33991,1.552804,-1
18,M,0,1,39,6,3,154,2,2787,0,0.1924434,6.607987,1.586713,-1
18,M,0,1,39,7,3,156,4,2909,0,0.06764717,6.565062,0.5588315,-1
18,M,0,1,39,8,4,153,1,1998,0,0.8296617,12.43688,3.702533,-1
18,M,0,1,40,1,4,160,4,876,0,0.6439403,12.59717,2.83559,-1
18,M,0,1,40,2,4,157,1,1776,1,0.6140943,12.47028,2.784529,-1
18,M,0,1,40,3,4,158,2,1187,0,0.6481485,12.53244,2.882015,-1
18,M,0,1,40,4,3,160,4,3209,0,0.1567431,6.564621,1.306861,-1
18,M,0,1,40,5,4,159,3,1676,0,0.9143043,12.32486,4.127253,-1
18,M,0,1,40,6,3,157,1,5265,1,0.1226818,6.321966,1.074108,-1
18,M,0,1,40,7,3,158,2,1687,0,0.4577706,6.58853,3.787342,-1
18,M,0,1,40,8,3,159,3,2820,1,0.5429725,6.37686,4.733462,-1
18,M,0,1,41,1,2,161,1,1064,0,0.08062346,12.46822,0.3626169,-1
18,M,0,1,41,2,1,164,4,4198,1,0.1739506,6.578863,1.442929,-1
18,M,0,1,41,3,1,161,1,1720,1,9.808302E-08,6.348757,0,-1
18,M,0,1,41,4,2,162,2,1620,0,0.007866158,12.52115,0.03426402,-1
18,M,0,1,41,5,2,163,3,920,0,0.7915776,12.33623,3.579546,-1
18,M,0,1,41,6,2,164,4,798,0,0.8312272,12.5918,3.670772,-1
18,M,0,1,41,7,1,162,2,3309,0,0.4623175,6.620965,3.79385,-1
18,M,0,1,41,8,1,163,3,2020,0,0.0201025,6.388407,0.1713202,-1
18,M,0,1,42,1,2,165,1,1587,0,0.791235,12.47606,3.571167,-1
18,M,0,1,42,2,2,166,2,1931,0,0.3615018,12.51655,1.606691,-1
18,M,0,1,42,3,1,167,3,3131,1,0.1638338,6.379579,1.409172,-1
18,M,0,1,42,4,2,168,4,1109,0,0.3222193,12.60782,1.425464,-1
18,M,0,1,42,5,2,167,3,1187,0,0.1755068,12.32442,0.7959845,-1
18,M,0,1,42,6,1,166,2,2276,1,0.1719632,6.595811,1.431218,-1
18,M,0,1,42,7,1,168,4,1298,0,0.1249819,6.573593,1.037409,-1
18,M,0,1,42,8,1,165,1,2975,1,0.3691519,6.328976,3.178168,-1
18,M,0,1,43,1,1,170,2,4087,1,0.1047893,6.600549,0.8720036,-1
18,M,0,1,43,2,2,171,3,2881,1,0.3855788,12.33512,1.761698,-1
18,M,0,1,43,3,2,170,2,1287,0,0.7032444,12.53331,3.130566,-1
18,M,0,1,43,4,2,172,4,1076,0,0.1859988,12.60244,0.8230571,-1
18,M,0,1,43,5,2,169,1,1309,0,1.030618,12.47759,4.618171,-1
18,M,0,1,43,6,1,171,3,2821,2,0.4609846,6.38929,3.942282,-1
18,M,0,1,43,7,1,172,4,2198,1,0.1667777,6.589959,1.391986,-1
18,M,0,1,43,8,1,169,1,4342,1,2.035982E-07,6.351551,0,-1
18,M,0,1,44,1,1,175,3,2631,1,0.3575347,6.376156,3.093451,-1
18,M,0,1,44,2,2,174,2,2342,0,0.3393169,12.53338,1.506492,-1
18,M,0,1,44,3,1,176,4,4476,0,0.1120129,6.582625,0.9253501,-1
18,M,0,1,44,4,2,173,1,1531,0,0.6570854,12.48379,2.941113,-1
18,M,0,1,44,5,2,175,3,953,0,1.71536E-07,12.34817,0,-1
18,M,0,1,44,6,1,173,1,1642,0,0.3767766,6.364073,3.238819,-1
18,M,0,1,44,7,2,176,4,9999,0,-1,-1,-1,-1
18,M,0,1,44,8,1,174,2,1753,0,0.2692357,6.599781,2.246725,-1
18,M,0,1,45,1,2,177,1,1220,0,0.6076084,12.46369,2.761162,-1
18,M,0,1,45,2,2,180,4,1365,1,0.6770069,12.58803,2.98603,-1
18,M,0,1,45,3,2,179,3,876,0,0.7739126,12.338,3.495248,-1
18,M,0,1,45,4,1,177,1,1065,0,0.2553348,6.355549,2.205934,-1
18,M,0,1,45,5,1,180,4,4598,1,0.2952562,6.574014,2.475358,-1
18,M,0,1,45,6,2,178,2,986,0,1.030299,12.54933,4.560508,-1
18,M,0,1,45,7,1,179,3,2109,0,0.4211656,6.403095,3.602772,-1
18,M,0,1,45,8,1,178,2,3942,0,0.1162454,6.601467,0.9638805,-1
18,M,0,1,46,1,1,183,3,2209,0,0.4034349,6.383693,3.461418,-1
18,M,0,1,46,2,2,184,4,2320,1,5.576188E-08,12.58833,0,-1
18,M,0,1,46,3,1,181,1,1787,1,0.1891958,6.34735,1.635781,-1
18,M,0,1,46,4,2,183,3,1342,0,0.8867086,12.33403,4.024479,-1
18,M,0,1,46,5,2,181,1,908,0,0.8722112,12.38116,3.999635,-1
18,M,0,1,46,6,1,182,2,2642,1,7.833588E-08,6.595407,0,-1
18,M,0,1,46,7,1,184,4,3487,0,0.1990433,6.590055,1.651972,-1
18,M,0,1,46,8,2,182,2,1887,0,0.953992,12.51081,4.258414,-1
18,M,0,1,47,1,1,188,4,1787,0,0.4540493,6.590385,3.770657,-1
18,M,0,1,47,2,1,186,2,1853,0,0.4731057,6.586977,3.959184,-1
18,M,0,1,47,3,2,185,1,2375,0,1.033791,12.46615,4.636542,-1
18,M,0,1,47,4,2,186,2,3020,1,0.4880367,12.51758,2.178256,-1
18,M,0,1,47,5,1,187,3,1720,0,0.4929489,6.406584,4.216029,-1
18,M,0,1,47,6,2,188,4,909,0,0.7130154,12.61426,3.139994,-1
18,M,0,1,47,7,1,185,1,2231,1,2.172527E-08,6.341354,0,-1
18,M,0,1,47,8,2,187,3,2097,1,0.3665133,12.34375,1.655758,-1
18,M,0,1,48,1,2,189,1,1631,0,1.029653,12.48221,4.612058,-1
18,M,0,1,48,2,2,192,4,1165,0,1.079635,12.60546,4.760863,-1
18,M,0,1,48,3,1,191,3,3587,0,0.4905615,6.404663,4.211335,-1
18,M,0,1,48,4,2,190,2,2052,1,1.451097E-07,12.51727,0,-1
18,M,0,1,48,5,1,189,1,3965,1,0.03672598,6.341269,0.3171355,-1
18,M,0,1,48,6,2,191,3,1176,0,1.014317,12.34894,4.609255,-1
18,M,0,1,48,7,1,192,4,3142,0,0.3541349,6.593302,2.920608,-1
18,M,0,1,48,8,1,190,2,2720,1,0.3752058,6.604171,3.118913,-1
18,M,0,1,49,1,2,195,3,898,0,0.8985692,12.33846,4.043606,-1
18,M,0,1,49,2,2,194,2,1653,0,2.008648E-07,12.51898,0,-1
18,M,0,1,49,3,2,196,4,2009,2,0.1225911,12.59618,0.5467969,-1
18,M,0,1,49,4,1,193,1,1876,0,0.3552713,6.362222,3.065799,-1
18,M,0,1,49,5,1,195,3,2231,0,0.3135879,6.406085,2.673861,-1
18,M,0,1,49,6,1,194,2,2787,0,0.2161138,6.5934,1.791986,-1
18,M,0,1,49,7,1,196,4,2431,0,9.389656E-08,6.593678,0,-1
18,M,0,1,49,8,2,193,1,865,0,0.4599515,12.47232,2.086754,-1
18,M,0,1,50,1,1,199,3,1776,0,0.3819392,6.415152,3.266387,-1
18,M,0,1,50,2,1,197,1,1509,1,0.1633017,6.352056,1.405696,-1
18,M,0,1,50,3,1,200,4,2398,0,0.2857876,6.593437,2.370916,-1
18,M,0,1,50,4,2,199,3,898,0,0.8699859,12.35711,3.914866,-1
18,M,0,1,50,5,2,198,2,1131,0,0.5958497,12.52028,2.641528,-1
18,M,0,1,50,6,2,200,4,1165,1,0.354893,12.60336,1.569975,-1
18,M,0,1,50,7,2,197,1,842,0,0.5986908,12.47781,2.680733,-1
18,M,0,1,50,8,1,198,2,1587,0,0.1957568,6.599763,1.616284,-1
18,M,0,1,51,1,1,204,4,3109,0,0.1786623,6.597475,1.481077,-1
18,M,0,1,51,2,1,201,1,2087,0,0.4547415,6.346944,3.920115,-1
18,M,0,1,51,3,2,202,2,1620,0,0.4586577,12.52158,2.034613,-1
18,M,0,1,51,4,2,204,4,2087,1,0.6227444,12.59099,2.763642,-1
18,M,0,1,51,5,1,203,3,1353,0,0.2482103,6.39746,2.123938,-1
18,M,0,1,51,6,1,202,2,2187,1,0.06988637,6.617925,0.5747126,-1
18,M,0,1,51,7,2,201,1,2020,0,0.4618333,12.47581,2.096298,-1
18,M,0,1,51,8,2,203,3,931,0,0.001165061,12.34329,0.01978234,-1
18,M,0,1,52,1,1,205,1,909,0,0.3942821,6.356501,3.393326,-1
18,M,0,1,52,2,2,207,3,709,0,0.2908623,12.33948,1.315815,-1
18,M,0,1,52,3,2,208,4,1398,1,0.02894927,12.59761,0.1282043,-1
18,M,0,1,52,4,2,206,2,1142,0,0.7859491,12.52127,3.484926,-1
18,M,0,1,52,5,1,207,3,2587,0,0.2203929,6.404605,1.883983,-1
18,M,0,1,52,6,2,205,1,1876,1,0.5435282,12.47163,2.466327,-1
18,M,0,1,52,7,1,208,4,2187,0,0.5334997,6.583303,4.435884,-1
18,M,0,1,52,8,1,206,2,3265,1,0.2167189,6.608434,1.782679,-1
18,M,0,1,53,1,2,212,4,720,0,0.7691066,12.5962,3.408754,-1
18,M,0,1,53,2,2,211,3,1387,1,0.2563335,12.34254,1.172531,-1
18,M,0,1,53,3,2,209,1,820,0,0.4903486,12.48177,2.217173,-1
18,M,0,1,53,4,2,210,2,1220,0,0.914777,12.52321,4.05642,-1
18,M,0,1,53,5,1,211,3,3953,1,0.3426146,6.398547,2.953931,-1
18,M,0,1,53,6,1,210,2,3542,1,0.11102,6.607544,0.9198356,-1
18,M,0,1,53,7,1,212,4,2765,0,0.2372534,6.588111,1.968514,-1
18,M,0,1,53,8,1,209,1,1809,1,0.1414941,6.327191,1.234163,-1
18,M,0,1,54,1,1,215,3,1531,0,0.05589741,6.313674,0.4841639,-1
18,M,0,1,54,2,1,216,4,1654,0,0.2463918,6.362637,2.105149,-1
18,M,0,1,54,3,2,213,1,1042,0,3.245787E-07,12.24184,0,-1
18,M,0,1,54,4,2,214,2,2831,0,0.2455175,12.28466,1.114169,-1
18,M,0,1,54,5,2,215,3,876,0,0.2831881,12.26672,1.304613,-1
18,M,0,1,54,6,2,216,4,753,0,0.7348194,12.4783,3.291345,-1
18,M,0,1,54,7,1,214,2,5742,0,0.1985764,6.524381,1.664834,-1
18,M,0,1,54,8,1,213,1,1987,0,8.078043E-08,6.282429,0,-1
18,M,0,1,55,1,2,218,2,2831,0,0.158644,12.42743,0.7184606,-1
18,M,0,1,55,2,1,219,3,1554,0,0.3039482,6.325735,2.630911,-1
18,M,0,1,55,3,1,220,4,2731,0,3.899733E-08,6.496937,0,-1
18,M,0,1,55,4,2,217,1,920,0,0.4141359,12.38602,1.89124,-1
18,M,0,1,55,5,2,220,4,898,0,0.1520201,12.49748,0.6795497,-1
18,M,0,1,55,6,1,218,2,3187,1,0.3697813,6.522572,3.115773,-1
18,M,0,1,55,7,2,219,3,1098,0,0.7955197,12.136,3.638035,-1
18,M,0,1,55,8,1,217,1,954,0,0.3351748,6.267311,2.924359,-1
18,M,0,1,56,1,2,222,2,1609,0,0.4250241,12.40761,1.902898,-1
18,M,0,1,56,2,1,221,1,1054,0,0.4968032,6.270007,4.336889,-1
18,M,0,1,56,3,2,224,4,709,0,0.7944761,12.47135,3.547182,-1
18,M,0,1,56,4,1,223,3,2142,0,2.216427E-07,6.293787,0,-1
18,M,0,1,56,5,1,222,2,1365,0,0.2568161,6.511738,2.172408,-1
18,M,0,1,56,6,1,224,4,1653,0,0.3787649,6.484333,3.175703,-1
18,M,0,1,56,7,2,221,1,2565,2,1.004056,12.24762,4.640258,-1
18,M,0,1,56,8,2,223,3,731,0,0.6599517,12.21319,3.062029,-1
18,M,0,1,57,1,3,228,4,1498,0,0.0742178,6.494837,0.6314908,-1
18,M,0,1,57,2,3,227,3,2087,0,0.01406388,6.365735,0.1203313,-1
18,M,0,1,57,3,4,226,2,931,0,0.3291963,12.42913,1.480548,-1
18,M,0,1,57,4,4,227,3,2165,1,0.7657356,12.30175,3.547569,-1
18,M,0,1,57,5,4,225,1,842,0,0.3908977,12.36399,1.792423,-1
18,M,0,1,57,6,3,226,2,2187,0,0.1729286,6.517385,1.442793,-1
18,M,0,1,57,7,4,228,4,2076,0,0.1199175,12.51083,0.5366834,-1
18,M,0,1,57,8,3,225,1,1731,0,7.218534E-08,6.284228,0,-1
18,M,0,1,58,1,4,230,2,2542,0,0.06802715,12.44685,0.3064671,-1
18,M,0,1,58,2,3,231,3,3409,1,0.331683,6.338494,2.853688,-1
18,M,0,1,58,3,3,232,4,2065,0,4.79927E-08,6.505446,0,-1
18,M,0,1,58,4,4,229,1,1020,0,0.02711682,12.35859,0.1219466,-1
18,M,0,1,58,5,4,231,3,1042,0,0.2171287,12.25183,0.9974037,-1
18,M,0,1,58,6,3,230,2,2754,0,0.3582231,6.519742,2.967617,-1
18,M,0,1,58,7,3,229,1,1231,0,0.1497116,6.267198,1.304013,-1
18,M,0,1,58,8,4,232,4,764,0,0.332109,12.50854,1.479887,-1
18,M,0,1,59,1,4,234,2,831,0,0.4997994,12.44093,2.22695,-1
18,M,0,1,59,2,4,236,4,765,0,0.9176944,12.50881,4.171901,-1
18,M,0,1,59,3,3,233,1,920,0,0.4857438,6.309465,4.214031,-1
18,M,0,1,59,4,3,235,3,3042,0,0.1493422,6.366253,1.275642,-1
18,M,0,1,59,5,3,236,4,2754,0,0.1319624,6.510355,1.118376,-1
18,M,0,1,59,6,4,233,1,1031,0,0.3462051,12.38657,1.584862,-1
18,M,0,1,59,7,3,234,2,2587,1,0.4109816,6.527058,3.401336,-1
18,M,0,1,59,8,4,235,3,898,0,0.8845051,12.28296,4.066979,-1
18,M,0,1,60,1,4,240,4,2654,0,1.022173,12.56392,4.551694,-1
18,M,0,1,60,2,3,237,1,1553,1,0.1246073,6.272875,1.099317,-1
18,M,0,1,60,3,4,239,3,1131,0,0.5120606,12.27157,2.320771,-1
18,M,0,1,60,4,4,238,2,1309,0,0.1026839,12.49131,0.4605518,-1
18,M,0,1,60,5,3,240,4,2842,0,0.5354862,6.517533,4.554921,-1
18,M,0,1,60,6,3,239,3,4853,0,0.2081119,6.351116,1.788598,-1
18,M,0,1,60,7,3,238,2,2431,0,8.872955E-08,6.526788,0.01978234,-1
18,M,0,1,60,8,4,237,1,1909,0,0.5347292,12.37736,2.402814,-1
18,M,0,1,61,1,1,243,3,1853,0,9.070122E-08,6.370139,0,-1
18,M,0,1,61,2,2,241,1,1009,0,0.9130833,12.43192,4.117467,-1
18,M,0,1,61,3,2,243,3,787,0,0.1315129,12.29877,0.598725,-1
18,M,0,1,61,4,2,244,4,742,0,0.1152099,12.53872,0.5132,-1
18,M,0,1,61,5,2,242,2,1587,0,0.1500999,12.46562,0.6775311,-1
18,M,0,1,61,6,1,244,4,2998,0,0.1403246,6.52059,1.18399,-1
18,M,0,1,61,7,1,242,2,4220,0,0.09611121,6.534667,0.8028382,-1
18,M,0,1,61,8,1,241,1,2342,0,0.08268337,6.316278,0.7179157,-1
18,M,0,1,62,1,1,247,3,1420,0,1.683034E-07,6.374144,0,-1
18,M,0,1,62,2,1,245,1,776,0,0.4435925,6.324322,3.837369,-1
18,M,0,1,62,3,2,248,4,742,0,0.6225463,12.53692,2.791129,-1
18,M,0,1,62,4,2,246,2,1242,0,0.1694495,12.46796,0.7600183,-1
18,M,0,1,62,5,2,247,3,787,0,0.6996612,12.30342,3.168112,-1
18,M,0,1,62,6,2,245,1,720,0,2.367555E-07,12.42924,0,-1
18,M,0,1,62,7,1,248,4,3198,1,0.224582,6.538572,1.870744,-1
18,M,0,1,62,8,1,246,2,4009,0,0.2553298,6.548624,2.147672,-1
18,M,0,1,1,1,6,4,4,3930,0,4.840329,12.53447,22.4686,-1
18,M,0,1,1,2,8,3,3,1353,0,1.535106,12.29761,7.039602,-1
18,M,0,1,1,3,8,2,2,4153,0,6.952395,12.47654,33.86496,-1
18,M,0,1,1,4,7,1,1,1687,0,5.939104,6.328947,69.78506,-1
18,M,0,1,1,5,5,4,4,3265,0,6.592476,6.604749,86.50664,-1
18,M,0,1,1,6,8,1,1,1865,0,3.827552,12.41414,17.65561,-1
18,M,0,1,1,7,5,2,2,1942,0,3.262085,6.558668,28.56229,-1
18,M,0,1,1,8,7,4,4,2331,0,6.465422,6.601659,78.33975,-1
18,M,0,1,1,9,5,3,3,2431,0,0.9074723,6.374297,7.817935,-1
18,M,0,1,1,10,6,2,2,2387,0,1.168595,12.47195,5.205336,-1
18,M,0,1,1,11,7,3,3,4031,0,6.323395,6.43549,79.29041,-1
18,M,0,1,1,12,6,1,1,1198,0,5.909732,12.43767,28.36897,-1
18,M,0,1,1,13,7,2,2,1476,0,2.206903,6.53958,18.70713,-1
18,M,0,1,1,14,8,4,4,953,0,6.293887,12.54502,30.11279,-1
18,M,0,1,1,15,6,3,3,1365,0,4.670741,12.30256,22.12286,-1
18,M,0,1,1,16,5,1,1,1153,0,1.059414,6.326772,9.193683,-1
18,M,0,1,2,1,6,3,3,787,0,0.2276722,12.29723,1.043802,-1
18,M,0,1,2,2,8,4,4,2553,0,6.617085,12.54533,31.83359,-1
18,M,0,1,2,3,6,1,1,4520,0,11.5063,12.47022,67.3243,-1
18,M,0,1,2,4,7,2,2,1020,0,2.757188,6.542921,23.61113,-1
18,M,0,1,2,5,6,4,4,1543,0,5.157124,12.53345,24.03067,-1
18,M,0,1,2,6,8,2,2,1087,0,8.546596E-08,12.47369,0.01978234,-1
18,M,0,1,2,7,8,3,3,1453,0,5.56018,12.30215,26.63467,-1
18,M,0,1,2,8,8,1,1,1064,0,3.450092,12.40231,16.0496,-1
18,M,0,1,2,9,5,4,4,876,0,3.743356,6.560548,33.00109,-1
18,M,0,1,2,10,5,1,1,1442,0,1.454272,6.333525,12.65618,-1
18,M,0,1,2,11,5,2,2,987,0,3.34622,6.562461,29.35256,-1
18,M,0,1,2,12,7,3,3,1542,0,2.640635,6.396571,23.23607,-1
18,M,0,1,2,13,7,1,1,2776,0,2.680592,6.295366,23.95896,-1
18,M,0,1,2,14,6,2,2,4142,0,11.50701,12.49782,67.03182,-1
18,M,0,1,2,15,5,3,3,2564,0,0.741502,6.354158,6.400951,-1
18,M,0,1,2,16,7,4,4,2231,0,6.434991,6.590946,77.51113,-1
