Age, Gender, Awareness Type, Session, Block, Trial, Set, Pattern, Quadrant, Response Time, Num Mistakes, Distance From Target, Camera Distance From Target, Angle Error (Degrees), FC Response
18,F,0,1,1,1,2,3,3,4120,1,0.1202133,12.1671,0.5532007,-1
18,F,0,1,1,2,2,2,2,1586,0,0.2138393,12.32823,0.9735762,-1
18,F,0,1,1,3,1,3,3,9999,3,-1,-1,-1,-1
18,F,0,1,1,4,2,4,4,3109,0,0.2968071,12.33929,1.358547,-1
18,F,0,1,1,5,2,1,1,2687,1,0.5342237,12.22073,2.472747,-1
18,F,0,1,1,6,1,2,2,2965,0,7.436135E-08,6.499298,0,-1
18,F,0,1,1,7,1,4,4,3809,0,9.613336E-08,6.373101,0,-1
18,F,0,1,1,8,1,1,1,7042,1,0.5398805,6.301552,4.762344,-1
18,F,0,1,2,1,1,7,3,5509,1,0.1547132,6.284701,1.359699,-1
18,F,0,1,2,2,2,5,1,1920,0,0.4284615,12.25553,1.967818,-1
18,F,0,1,2,3,1,6,2,2720,0,0.1362148,6.479334,1.159778,-1
18,F,0,1,2,4,2,8,4,4209,0,0.4065811,12.34335,1.872521,-1
18,F,0,1,2,5,2,7,3,5820,1,0.2885046,12.15853,1.32456,-1
18,F,0,1,2,6,1,8,4,3165,0,0.07200654,6.367713,0.618656,-1
18,F,0,1,2,7,2,6,2,1220,0,0.3119761,12.32406,1.426425,-1
18,F,0,1,2,8,1,5,1,2686,0,0.03532175,6.27998,0.3090104,-1
18,F,0,1,3,1,1,11,3,6077,1,0.01250005,6.243751,0.1083524,-1
18,F,0,1,3,2,1,9,1,2209,0,0.06979802,6.273683,0.6103771,-1
18,F,0,1,3,3,1,12,4,3376,0,0.1575554,6.363941,1.359843,-1
18,F,0,1,3,4,1,10,2,2476,0,9.125269E-08,6.469704,0,-1
18,F,0,1,3,5,2,9,1,1842,0,0.6407126,12.24719,2.962798,-1
18,F,0,1,3,6,2,10,2,1865,0,0.2037285,12.31586,0.9304113,-1
18,F,0,1,3,7,2,11,3,3531,0,1.016959,12.17911,4.665602,-1
18,F,0,1,3,8,2,12,4,2054,0,0.6372808,12.36092,2.921345,-1
18,F,0,1,4,1,1,13,1,1909,0,0.2515183,6.301569,2.19829,-1
18,F,0,1,4,2,2,14,2,7942,1,0.1609133,12.3237,0.7364823,-1
18,F,0,1,4,3,1,15,3,4320,0,0.4750159,6.292672,4.173402,-1
18,F,0,1,4,4,1,14,2,2920,0,0.05569371,6.488505,0.4743652,-1
18,F,0,1,4,5,1,16,4,5153,0,0.4964916,6.378563,4.254043,-1
18,F,0,1,4,6,2,15,3,5364,1,0.1830348,12.17003,0.8497278,-1
18,F,0,1,4,7,2,13,1,1453,0,0.6921949,12.34021,3.161803,-1
18,F,0,1,4,8,2,16,4,2798,0,0.1284444,12.42025,0.5831623,-1
18,F,0,1,5,1,2,18,2,1087,0,0.4097658,12.34715,1.848644,-1
18,F,0,1,5,2,1,19,3,3553,0,0.2437215,6.313115,2.133133,-1
18,F,0,1,5,3,2,20,4,1553,0,0.7902117,12.37336,3.571551,-1
18,F,0,1,5,4,2,17,1,1342,0,0.5817485,12.28452,2.668438,-1
18,F,0,1,5,5,1,18,2,4131,1,0.2109872,6.494265,1.765692,-1
18,F,0,1,5,6,2,19,3,2642,0,0.2178418,12.19241,0.998776,-1
18,F,0,1,5,7,1,20,4,4809,1,0.1623405,6.383022,1.40249,-1
18,F,0,1,5,8,1,17,1,1865,0,0.2015236,6.300646,1.747309,-1
18,F,0,1,6,1,1,23,3,3175,0,0.2267714,6.298915,1.988988,-1
18,F,0,1,6,2,1,22,2,2576,0,0.3202858,6.487381,2.681026,-1
18,F,0,1,6,3,1,21,1,2298,0,0.1323934,6.291305,1.156399,-1
18,F,0,1,6,4,2,22,2,1409,0,0.6851351,12.33039,3.096361,-1
18,F,0,1,6,5,2,23,3,2787,0,0.5897357,12.18978,2.701391,-1
18,F,0,1,6,6,1,24,4,3553,0,0.534857,6.376174,4.546097,-1
18,F,0,1,6,7,2,21,1,3531,1,0.627023,12.24492,2.860334,-1
18,F,0,1,6,8,2,24,4,1242,0,0.6421323,12.36654,2.903129,-1
18,F,0,1,7,1,2,25,1,1498,0,0.6053836,12.28564,2.752642,-1
18,F,0,1,7,2,2,26,2,1153,0,0.319872,12.34734,1.450639,-1
18,F,0,1,7,3,2,28,4,1031,0,1.04541,12.3647,4.730523,-1
18,F,0,1,7,4,1,25,1,2820,0,1.133589E-07,6.322021,0,-1
18,F,0,1,7,5,1,27,3,2964,0,0.4691617,6.288465,4.125735,-1
18,F,0,1,7,6,1,26,2,3775,1,0.07917356,6.499086,0.6720214,-1
18,F,0,1,7,7,1,28,4,5153,1,0.1226755,6.3678,1.058694,-1
18,F,0,1,7,8,2,27,3,3086,1,0.004779334,12.17158,0,-1
18,F,0,1,8,1,1,29,1,2164,0,1.217849E-07,6.307169,0,-1
18,F,0,1,8,2,1,31,3,2731,0,0.1317372,6.281483,1.15809,-1
18,F,0,1,8,3,1,32,4,3475,0,0.1647727,6.359576,1.410976,-1
18,F,0,1,8,4,2,31,3,3520,1,0.4917993,12.16783,2.251772,-1
18,F,0,1,8,5,2,32,4,1598,0,0.4454575,12.3588,2.014992,-1
18,F,0,1,8,6,2,30,2,1420,0,0.3562944,12.34208,1.607543,-1
18,F,0,1,8,7,2,29,1,1209,0,0.2691083,12.26955,1.22605,-1
18,F,0,1,8,8,1,30,2,2653,0,0.2413369,6.501284,2.019067,-1
18,F,0,1,9,1,1,33,1,1698,0,1.492872E-07,6.321352,0,-1
18,F,0,1,9,2,1,34,2,2364,0,0.05842227,6.497554,0.4929749,-1
18,F,0,1,9,3,1,35,3,5020,2,0.4221689,6.285652,3.711829,-1
18,F,0,1,9,4,1,36,4,4498,1,0.3869195,6.372955,3.351819,-1
18,F,0,1,9,5,2,35,3,3319,0,0.3309559,12.17181,1.524441,-1
18,F,0,1,9,6,2,36,4,1420,0,0.153829,12.36112,0.7027649,-1
18,F,0,1,9,7,2,33,1,1431,0,0.5879208,12.27738,2.690937,-1
18,F,0,1,9,8,2,34,2,1587,0,0.3718394,12.33687,1.687832,-1
18,F,0,1,10,1,2,39,3,3453,0,0.9536586,12.18708,4.371794,-1
18,F,0,1,10,2,2,38,2,1576,0,0.6152214,12.34682,2.804143,-1
18,F,0,1,10,3,1,39,3,4031,0,0.4361916,6.288982,3.835277,-1
18,F,0,1,10,4,2,40,4,2064,0,0.1329373,12.36013,0.6032831,-1
18,F,0,1,10,5,1,37,1,2342,0,6.728615E-08,6.302023,0,-1
18,F,0,1,10,6,1,40,4,3231,0,0.3763808,6.370073,3.257504,-1
18,F,0,1,10,7,2,37,1,1186,0,0.664371,12.27634,3.052104,-1
18,F,0,1,10,8,1,38,2,4042,0,0.2447285,6.510161,2.07999,-1
18,F,0,1,11,1,1,43,3,3931,0,0.3560039,6.285162,3.129815,-1
18,F,0,1,11,2,1,42,2,2053,0,0.4389562,6.499199,3.715098,-1
18,F,0,1,11,3,1,44,4,4553,1,0.09394661,6.375649,0.8047857,-1
18,F,0,1,11,4,1,41,1,2075,0,0.2366656,6.304475,2.051186,-1
18,F,0,1,11,5,2,42,2,1219,0,3.476726E-08,12.3338,0,-1
18,F,0,1,11,6,2,43,3,3254,0,0.3473966,12.17819,1.591639,-1
18,F,0,1,11,7,2,41,1,1120,0,0.6657133,12.27564,3.071477,-1
18,F,0,1,11,8,2,44,4,1231,0,0.6484304,12.35824,2.933649,-1
18,F,0,1,12,1,2,45,1,1609,0,0.03395339,12.27157,0.1557664,-1
18,F,0,1,12,2,1,47,3,5320,2,4.909069E-08,6.279209,0,-1
18,F,0,1,12,3,1,48,4,3164,0,0.407328,6.375745,3.495472,-1
18,F,0,1,12,4,2,46,2,1497,0,2.048194E-07,12.34562,0.01978234,-1
18,F,0,1,12,5,1,45,1,2598,0,7.356662E-08,6.307015,0,-1
18,F,0,1,12,6,1,46,2,1298,0,0.3597223,6.499913,3.017139,-1
18,F,0,1,12,7,2,47,3,2765,0,0.1289114,12.18848,0.5938025,-1
18,F,0,1,12,8,2,48,4,1354,0,0.4907492,12.37281,2.224664,-1
18,F,0,1,13,1,2,51,3,2965,0,0.5907882,12.21521,2.700087,-1
18,F,0,1,13,2,1,49,1,2020,0,0.0547672,6.328238,0.4739525,-1
18,F,0,1,13,3,2,52,4,1709,0,0.585672,12.39296,2.677446,-1
18,F,0,1,13,4,2,49,1,1487,0,0.245694,12.27827,1.131942,-1
18,F,0,1,13,5,2,50,2,953,0,0.7614064,12.35767,3.431366,-1
18,F,0,1,13,6,1,52,4,3808,1,0.3315387,6.378329,2.869285,-1
18,F,0,1,13,7,1,51,3,5853,2,0.4351167,6.293933,3.820698,-1
18,F,0,1,13,8,1,50,2,2087,0,0.03760647,6.517506,0.3177519,-1
18,F,0,1,14,1,2,56,4,2575,0,0.7745848,12.29202,3.523479,-1
18,F,0,1,14,2,2,55,3,3209,0,0.5620311,12.11971,2.589139,-1
18,F,0,1,14,3,2,54,2,987,0,0.3866989,12.23831,1.768572,-1
18,F,0,1,14,4,2,53,1,1398,0,0.1184201,12.17682,0.5471546,-1
18,F,0,1,14,5,1,56,4,3153,0,0.230783,6.380198,1.996158,-1
18,F,0,1,14,6,1,55,3,5509,2,0.4917973,6.23188,4.361343,-1
18,F,0,1,14,7,1,54,2,1842,0,0.123712,6.480814,1.042114,-1
18,F,0,1,14,8,1,53,1,1720,0,0.4402378,6.276853,3.835226,-1
18,F,0,1,15,1,2,60,4,1542,0,0.8120813,12.33549,3.681531,-1
18,F,0,1,15,2,1,58,2,2665,0,0.2066138,6.480902,1.732461,-1
18,F,0,1,15,3,2,59,3,3109,0,0.7679783,12.16247,3.529475,-1
18,F,0,1,15,4,2,58,2,1398,0,0.2276108,12.31666,1.039293,-1
18,F,0,1,15,5,2,57,1,1320,0,0.1607853,12.24353,0.7364823,-1
18,F,0,1,15,6,1,59,3,2664,0,0.2451984,6.277896,2.148856,-1
18,F,0,1,15,7,1,60,4,2898,0,0.4263303,6.367302,3.6974,-1
18,F,0,1,15,8,1,57,1,1998,0,0.1528959,6.234712,1.339691,-1
18,F,0,1,16,1,2,64,4,1476,0,0.1344949,12.32172,0.615167,-1
18,F,0,1,16,2,1,61,1,2609,0,0.466471,6.256757,4.076694,-1
18,F,0,1,16,3,1,62,2,2697,0,9.822025E-08,6.476588,0,-1
18,F,0,1,16,4,1,63,3,3720,1,0.5199435,6.266092,4.587957,-1
18,F,0,1,16,5,2,61,1,1298,0,0.5988655,12.24005,2.757473,-1
18,F,0,1,16,6,2,62,2,1098,0,0.7836165,12.30918,3.563648,-1
18,F,0,1,16,7,2,63,3,2676,0,0.5873374,12.15191,2.698491,-1
18,F,0,1,16,8,1,64,4,3654,0,0.421752,6.360034,3.639864,-1
18,F,0,1,17,1,3,66,2,1142,0,0.2508611,6.571524,2.082059,-1
18,F,0,1,17,2,4,68,4,2076,1,0.6134784,12.39905,2.760524,-1
18,F,0,1,17,3,3,65,1,1631,0,0.005186243,6.332026,0.04423466,-1
18,F,0,1,17,4,3,67,3,4176,0,0.4344147,6.356593,3.7846,-1
18,F,0,1,17,5,3,68,4,2576,0,0.2602113,6.441371,2.24088,-1
18,F,0,1,17,6,4,65,1,1131,0,0.1756559,12.31299,0.8023506,-1
18,F,0,1,17,7,4,67,3,2720,0,0.3343902,12.23772,1.530334,-1
18,F,0,1,17,8,4,66,2,931,0,0.1203372,12.40436,0.5471546,-1
18,F,0,1,18,1,4,69,1,1042,0,0.8104576,12.32176,3.679137,-1
18,F,0,1,18,2,3,72,4,2686,0,0.5189018,6.435351,4.454478,-1
18,F,0,1,18,3,3,71,3,3697,1,0.5134362,6.33737,4.464229,-1
18,F,0,1,18,4,3,69,1,1554,0,0.207,6.303329,1.793842,-1
18,F,0,1,18,5,3,70,2,1509,0,0.2733528,6.548722,2.335735,-1
18,F,0,1,18,6,4,72,4,1698,0,0.9266728,12.38206,4.163395,-1
18,F,0,1,18,7,4,71,3,2654,0,0.460539,12.21796,2.099284,-1
18,F,0,1,18,8,4,70,2,1153,0,0.2121895,12.39896,0.957362,-1
18,F,0,1,19,1,3,75,3,2753,0,0.3689105,6.340642,3.215402,-1
18,F,0,1,19,2,3,73,1,1442,0,0.1954475,6.349392,1.68957,-1
18,F,0,1,19,3,4,76,4,2198,0,0.4340475,12.38023,1.977739,-1
18,F,0,1,19,4,4,75,3,2464,0,0.5094041,12.23482,2.327761,-1
18,F,0,1,19,5,4,74,2,942,0,0.2717697,12.39573,1.237014,-1
18,F,0,1,19,6,3,76,4,2609,0,0.5001592,6.411871,4.232673,-1
18,F,0,1,19,7,4,73,1,2153,1,0.3998551,12.2849,1.83355,-1
18,F,0,1,19,8,3,74,2,2876,1,0.1101172,6.554763,0.9304113,-1
18,F,0,1,20,1,4,77,1,2342,0,0.8167995,12.29489,3.768527,-1
18,F,0,1,20,2,4,78,2,1198,0,0.4484324,12.38053,2.046506,-1
18,F,0,1,20,3,4,79,3,1920,0,0.4450895,12.21657,2.033554,-1
18,F,0,1,20,4,3,80,4,2420,0,0.4721465,6.428525,4.065535,-1
18,F,0,1,20,5,3,78,2,1453,0,0.4181978,6.566232,3.462945,-1
18,F,0,1,20,6,3,77,1,1809,0,0.429005,6.342002,3.712884,-1
18,F,0,1,20,7,3,79,3,2609,0,0.4573841,6.332913,3.992481,-1
18,F,0,1,20,8,4,80,4,1631,0,0.7390487,12.41045,3.330313,-1
18,F,0,1,20,1,1,79,3,3842,1,0.5340335,6.333575,4.665645,-1
18,F,0,1,20,2,2,80,4,1620,0,0.5998704,12.40645,2.700014,-1
18,F,0,1,20,3,1,77,1,2509,1,0.2712565,6.324486,2.344768,-1
18,F,0,1,20,4,2,79,3,3142,0,0.4395216,12.22389,2.004376,-1
18,F,0,1,20,5,2,78,2,998,0,0.1142433,12.38416,0.518133,-1
18,F,0,1,20,6,2,77,1,1231,0,0.262349,12.30306,1.201219,-1
18,F,0,1,20,7,1,78,2,1576,0,1.248742E-07,6.534266,0,-1
18,F,0,1,20,8,1,80,4,3142,0,0.3038225,6.416391,2.613818,-1
18,F,0,1,21,1,2,83,3,3976,0,0.5863081,12.27347,2.667631,-1
18,F,0,1,21,2,2,84,4,1754,0,0.5021273,12.46523,2.252206,-1
18,F,0,1,21,3,1,81,1,2642,1,0.5444129,6.371862,4.675375,-1
18,F,0,1,21,4,1,84,4,2931,0,0.3846783,6.445724,3.288905,-1
18,F,0,1,21,5,1,83,3,3842,0,0.5149332,6.365572,4.492483,-1
18,F,0,1,21,6,1,82,2,1931,0,0.1148218,6.59455,0.9569532,-1
18,F,0,1,21,7,2,81,1,1276,0,0.2392925,12.35771,1.087865,-1
18,F,0,1,21,8,2,82,2,1042,0,0.6641935,12.41898,2.980715,-1
18,F,0,1,22,1,1,87,3,6509,2,0.1654777,6.345557,1.440214,-1
18,F,0,1,22,2,1,86,2,1376,0,0.3918693,6.576274,3.240149,-1
18,F,0,1,22,3,1,85,1,1342,0,0.3500654,6.367674,3.004852,-1
18,F,0,1,22,4,2,86,2,1142,0,0.3887589,12.41378,1.743945,-1
18,F,0,1,22,5,2,88,4,1431,0,0.5297951,12.4403,2.38113,-1
18,F,0,1,22,6,2,85,1,1387,0,1.010292,12.35176,4.636162,-1
18,F,0,1,22,7,2,87,3,3387,0,0.8058138,12.26859,3.686952,-1
18,F,0,1,22,8,1,88,4,2687,0,0.08930767,6.43795,0.7628451,-1
18,F,0,1,23,1,1,90,2,2353,0,0.08719468,6.572337,0.7263159,-1
18,F,0,1,23,2,1,91,3,4887,2,0.3395022,6.35216,2.954063,-1
18,F,0,1,23,3,1,89,1,1320,0,0.5446478,6.383518,4.667072,-1
18,F,0,1,23,4,1,92,4,2231,0,0.1361437,6.438919,1.161296,-1
18,F,0,1,23,5,2,90,2,1186,0,0.4031324,12.43091,1.807211,-1
18,F,0,1,23,6,2,89,1,1287,0,0.8797541,12.34979,3.980347,-1
18,F,0,1,23,7,2,91,3,2875,0,0.5828663,12.26624,2.668878,-1
18,F,0,1,23,8,2,92,4,2120,0,0.3165809,12.44862,1.427522,-1
18,F,0,1,24,1,2,95,3,2987,1,0.9863241,12.26882,4.492439,-1
18,F,0,1,24,2,2,96,4,1209,0,0.4066474,12.44819,1.833016,-1
18,F,0,1,24,3,1,95,3,2576,0,0.3037244,6.353936,2.64101,-1
18,F,0,1,24,4,2,93,1,2542,0,0.6965552,12.35566,3.180877,-1
18,F,0,1,24,5,1,96,4,3920,0,0.1607172,6.445965,1.358691,-1
18,F,0,1,24,6,2,94,2,1331,0,0.3693872,12.42493,1.671287,-1
18,F,0,1,24,7,1,93,1,1265,0,0.2662607,6.374384,2.282676,-1
18,F,0,1,24,8,1,94,2,1265,0,0.0412984,6.577857,0.3443497,-1
18,F,0,1,25,1,1,97,1,2420,1,4.112893E-08,6.382662,0.01978234,-1
18,F,0,1,25,2,1,99,3,2342,0,0.5001308,6.382734,4.334088,-1
18,F,0,1,25,3,2,97,1,4742,2,0.3152585,12.22031,1.453873,-1
18,F,0,1,25,4,2,98,2,1076,0,0.007178043,12.41171,0.03426402,-1
18,F,0,1,25,5,2,99,3,2287,0,0.5296521,12.25851,2.40786,-1
18,F,0,1,25,6,2,100,4,1464,0,0.3570777,12.44468,1.605838,-1
18,F,0,1,25,7,1,98,2,2709,0,0.1654535,6.571403,1.372448,-1
18,F,0,1,25,8,1,100,4,3709,1,0.02674245,6.436585,0.2272819,-1
18,F,0,1,26,1,2,103,3,2709,0,2.63557E-07,12.25788,0,-1
18,F,0,1,26,2,1,104,4,2687,0,0.5153179,6.442995,4.374884,-1
18,F,0,1,26,3,1,101,1,1753,0,0.4570976,6.427467,3.891789,-1
18,F,0,1,26,4,2,102,2,964,0,0.2989824,12.47398,1.336327,-1
18,F,0,1,26,5,1,103,3,3364,0,0.371151,6.399414,3.204791,-1
18,F,0,1,26,6,2,101,1,1376,0,0.3743254,12.41669,1.696736,-1
18,F,0,1,26,7,2,104,4,1542,0,0.1231594,12.50597,0.5528469,-1
18,F,0,1,26,8,1,102,2,1276,0,0.4498446,6.620609,3.674451,-1
18,F,0,1,27,1,2,105,1,1364,0,0.07746422,12.40504,0.3505445,-1
18,F,0,1,27,2,1,108,4,3876,1,0.07508074,6.483202,0.6314908,-1
18,F,0,1,27,3,2,106,2,865,0,0.3314752,12.47491,1.480945,-1
18,F,0,1,27,4,1,107,3,2942,0,0.5211672,6.398884,4.503239,-1
18,F,0,1,27,5,1,105,1,1287,0,0.4386875,6.419718,3.73654,-1
18,F,0,1,27,6,2,107,3,2898,0,0.7214635,12.32892,3.275365,-1
18,F,0,1,27,7,1,106,2,1376,0,1.832398E-08,6.634453,0,-1
18,F,0,1,27,8,2,108,4,1387,0,0.5897004,12.50282,2.637524,-1
18,F,0,1,28,1,2,109,1,1242,0,0.9362222,12.4074,4.269392,-1
18,F,0,1,28,2,1,111,3,5398,2,0.1634611,6.372763,1.416512,-1
18,F,0,1,28,3,1,110,2,1231,0,0.5636417,6.621841,4.623596,-1
18,F,0,1,28,4,1,109,1,1131,0,0.2335687,6.40655,1.99292,-1
18,F,0,1,28,5,2,112,4,1397,0,0.4734985,12.49647,2.118679,-1
18,F,0,1,28,6,2,110,2,4275,0,0.308368,12.47361,1.378282,-1
18,F,0,1,28,7,2,111,3,4553,1,0.3106687,12.31579,1.408338,-1
18,F,0,1,28,8,1,112,4,6064,2,0.04624725,6.459836,0.392669,-1
18,F,0,1,29,1,2,115,3,2731,0,0.5973179,12.33316,2.705012,-1
18,F,0,1,29,2,2,116,4,1465,0,0.1710451,12.50287,0.7677034,-1
18,F,0,1,29,3,1,114,2,1087,0,0.1917093,6.609682,1.579667,-1
18,F,0,1,29,4,1,115,3,2731,0,0.2934284,6.437976,2.519327,-1
18,F,0,1,29,5,2,113,1,1298,0,0.70811,12.39989,3.1912,-1
18,F,0,1,29,6,1,116,4,2398,0,0.3514885,6.491723,2.9838,-1
18,F,0,1,29,7,2,114,2,920,0,0.4567156,12.49632,2.063458,-1
18,F,0,1,29,8,1,113,1,3009,1,2.719003E-08,6.41752,0,-1
18,F,0,1,30,1,1,120,4,3231,0,0.3605858,6.490312,3.067076,-1
18,F,0,1,30,2,2,118,2,1053,0,1.032722,12.49025,4.595891,-1
18,F,0,1,30,3,2,117,1,1465,0,1.015687,12.42354,4.575773,-1
18,F,0,1,30,4,2,119,3,3620,1,0.4730271,12.33968,2.15395,-1
18,F,0,1,30,5,1,118,2,2276,0,8.84696E-08,6.631538,0,-1
18,F,0,1,30,6,2,120,4,1431,0,0.2429997,12.5151,1.087685,-1
18,F,0,1,30,7,1,117,1,3876,1,6.912737E-08,6.419251,0.01978234,-1
18,F,0,1,30,8,1,119,3,3520,0,0.1249694,6.402847,1.077927,-1
18,F,0,1,31,1,1,122,2,1565,0,0.04668556,6.636938,0.386643,-1
18,F,0,1,31,2,1,123,3,2587,0,0.4408697,6.409384,3.802099,-1
18,F,0,1,31,3,1,121,1,1309,0,0.2552846,6.423043,2.172137,-1
18,F,0,1,31,4,2,124,4,1487,0,1.77882E-07,12.51035,0,-1
18,F,0,1,31,5,2,122,2,1209,0,0.0326913,12.47404,0.14537,-1
18,F,0,1,31,6,2,121,1,1098,0,0.3325637,12.40989,1.497894,-1
18,F,0,1,31,7,1,124,4,2442,0,0.4657364,6.494556,3.92371,-1
18,F,0,1,31,8,2,123,3,3643,1,0.9997144,12.33802,4.554018,-1
18,F,0,1,32,1,1,126,2,1031,0,0.07625481,6.602384,0.6327289,-1
18,F,0,1,32,2,2,125,1,1531,0,0.9246881,12.38557,4.215193,-1
18,F,0,1,32,3,1,128,4,3920,1,0.2129892,6.47589,1.810457,-1
18,F,0,1,32,4,2,126,2,976,0,0.4081947,12.45966,1.824348,-1
18,F,0,1,32,5,1,127,3,3187,0,0.3144284,6.387279,2.719806,-1
18,F,0,1,32,6,2,128,4,1642,0,0.5822662,12.48927,2.603839,-1
18,F,0,1,32,7,1,125,1,1331,0,0.3753702,6.405596,3.235251,-1
18,F,0,1,32,8,2,127,3,2687,0,1.025778,12.31314,4.699196,-1
18,F,0,1,33,1,1,130,2,5453,3,0.1540851,6.60098,1.273954,-1
18,F,0,1,33,2,1,131,3,3853,0,0.1947398,6.422009,1.676548,-1
18,F,0,1,33,3,1,132,4,2942,0,0.09065132,6.4832,0.7643827,-1
18,F,0,1,33,4,1,129,1,1342,0,0.3295577,6.375799,2.82674,-1
18,F,0,1,33,5,2,131,3,2665,0,0.2472701,12.29394,1.126222,-1
18,F,0,1,33,6,2,132,4,1298,0,0.5561174,12.47538,2.4901,-1
18,F,0,1,33,7,2,130,2,1576,0,0.7688642,12.43383,3.464302,-1
18,F,0,1,33,8,2,129,1,1709,0,0.02730554,12.38344,0.1235407,-1
18,F,0,1,34,1,2,134,2,1231,0,0.6965172,12.45378,3.11728,-1
18,F,0,1,34,2,2,135,3,2231,0,0.06392252,12.32065,0.2914124,-1
18,F,0,1,34,3,2,136,4,1309,0,9.671685E-08,12.50658,0,-1
18,F,0,1,34,4,1,133,1,1465,0,2.119729E-08,6.388972,0,-1
18,F,0,1,34,5,1,135,3,2131,0,0.5130413,6.42467,4.416723,-1
18,F,0,1,34,6,2,133,1,1609,0,5.9955E-08,12.3848,0,-1
18,F,0,1,34,7,1,136,4,4231,1,0.3400047,6.499805,2.888663,-1
18,F,0,1,34,8,1,134,2,4342,2,2.665897E-08,6.617315,0,-1
18,F,0,1,35,1,1,139,3,8076,2,0.2899104,6.345791,2.525457,-1
18,F,0,1,35,2,2,137,1,1442,0,0.3550288,12.40018,1.611191,-1
18,F,0,1,35,3,1,138,2,1220,0,0.05975253,6.622463,0.4945601,-1
18,F,0,1,35,4,1,140,4,4076,1,0.3362384,6.482771,2.814317,-1
18,F,0,1,35,5,1,137,1,1565,0,0.08830976,6.407842,0.7574393,-1
18,F,0,1,35,6,2,139,3,2353,0,0.6998993,12.33349,3.169842,-1
18,F,0,1,35,7,2,138,2,1187,0,0.3029796,12.46996,1.358403,-1
18,F,0,1,35,8,2,140,4,1520,0,0.7623181,12.50773,3.399897,-1
18,F,0,1,37,1,3,147,3,4009,0,0.1673706,6.403833,1.439806,-1
18,F,0,1,37,2,4,145,1,1576,0,0.2309192,12.3899,1.04324,-1
18,F,0,1,37,3,4,146,2,1076,0,0.7745327,12.46635,3.463454,-1
18,F,0,1,37,4,3,145,1,2276,0,0.2103018,6.403413,1.795587,-1
18,F,0,1,37,5,3,148,4,3353,0,0.5285532,6.490089,4.498757,-1
18,F,0,1,37,6,3,146,2,1387,0,0.5544462,6.63717,4.53678,-1
18,F,0,1,37,7,4,147,3,2342,0,0.555389,12.33167,2.515984,-1
18,F,0,1,37,8,4,148,4,1287,0,0.9186047,12.50692,4.105655,-1
18,F,0,1,38,1,3,149,1,2331,0,0.3114132,6.423506,2.667925,-1
18,F,0,1,38,2,4,151,3,9999,0,-1,-1,-1,-1
18,F,0,1,38,3,4,150,2,1242,0,1.007501,12.47857,4.519564,-1
18,F,0,1,38,4,3,151,3,2498,0,0.3300092,6.398511,2.830269,-1
18,F,0,1,38,5,4,152,4,1376,0,0.6932381,12.48565,3.093577,-1
18,F,0,1,38,6,4,149,1,1264,0,0.006342339,12.40625,0.02797646,-1
18,F,0,1,38,7,3,152,4,4820,1,0.4684433,6.492924,3.997431,-1
18,F,0,1,38,8,3,150,2,2865,1,0.383072,6.654517,3.150203,-1
18,F,0,1,39,1,3,153,1,4876,0,2.394621E-07,6.413507,0.01978234,-1
18,F,0,1,39,2,4,154,2,2142,1,0.704035,12.47631,3.167803,-1
18,F,0,1,39,3,3,156,4,4020,1,0.3851222,6.495656,3.273571,-1
18,F,0,1,39,4,4,155,3,3598,0,0.294672,12.32759,1.339545,-1
18,F,0,1,39,5,4,153,1,1309,0,0.369608,12.39795,1.688412,-1
18,F,0,1,39,6,3,154,2,3253,1,0.3966983,6.637189,3.275305,-1
18,F,0,1,39,7,3,155,3,5276,1,3.922602E-08,6.399847,0,-1
18,F,0,1,39,8,4,156,4,2187,0,0.5828708,12.50162,2.607144,-1
18,F,0,1,40,1,4,157,1,1476,0,0.2186057,12.37611,0.9932752,-1
18,F,0,1,40,2,3,158,2,1709,0,0.4208653,6.645154,3.470175,-1
18,F,0,1,40,3,4,159,3,2731,0,0.5558295,12.33054,2.518317,-1
18,F,0,1,40,4,3,157,1,4286,0,0.1473896,6.405628,1.257722,-1
18,F,0,1,40,5,3,159,3,4031,1,0.3694445,6.414328,3.190341,-1
18,F,0,1,40,6,3,160,4,2642,0,0.4255846,6.463204,3.654574,-1
18,F,0,1,40,7,4,158,2,1076,0,0.9428279,12.42812,4.245793,-1
18,F,0,1,40,8,4,160,4,1831,1,0.8685699,12.44276,3.890883,-1
18,F,0,1,41,1,2,161,1,1231,0,0.9720882,12.29568,4.41925,-1
18,F,0,1,41,2,1,162,2,1109,0,0.353228,6.531571,2.934449,-1
18,F,0,1,41,3,2,164,4,3975,2,0.6465095,12.38657,2.918462,-1
18,F,0,1,41,4,2,162,2,1598,0,0.6585397,12.35578,3.019993,-1
18,F,0,1,41,5,2,163,3,2365,0,0.1105907,12.20686,0.5089886,-1
18,F,0,1,41,6,1,161,1,2387,1,0.2691029,6.316424,2.327677,-1
18,F,0,1,41,7,1,163,3,2720,0,0.3541281,6.397083,3.060686,-1
18,F,0,1,41,8,1,164,4,2742,0,0.3475211,6.480639,2.939249,-1
18,F,0,1,42,1,2,166,2,1420,0,0.6645734,12.48654,2.965439,-1
18,F,0,1,42,2,2,167,3,1876,0,0.9635404,12.3322,4.371929,-1
18,F,0,1,42,3,1,165,1,1420,0,0.2695139,6.434765,2.28944,-1
18,F,0,1,42,4,1,166,2,1065,0,0.4137008,6.628923,3.405306,-1
18,F,0,1,42,5,1,168,4,2420,1,0.1231925,6.472699,1.046424,-1
18,F,0,1,42,6,2,165,1,1253,0,0.7059766,12.41493,3.177799,-1
18,F,0,1,42,7,1,167,3,2287,0,0.1687446,6.399704,1.456965,-1
18,F,0,1,42,8,2,168,4,1687,0,0.5464618,12.51489,2.439917,-1
18,F,0,1,43,1,2,171,3,3620,0,0.7318289,12.332,3.314994,-1
18,F,0,1,43,2,2,169,1,2509,1,0.3245311,12.37264,1.476047,-1
18,F,0,1,43,3,1,171,3,4431,1,0.06306449,6.377485,0.5457222,-1
18,F,0,1,43,4,2,170,2,1587,0,1.733351E-07,12.45812,0,-1
18,F,0,1,43,5,1,172,4,4775,1,0.2986721,6.47589,2.54599,-1
18,F,0,1,43,6,1,170,2,2031,0,1.503757E-07,6.583634,0,-1
18,F,0,1,43,7,1,169,1,1842,0,0.06226974,6.366928,0.5344914,-1
18,F,0,1,43,8,2,172,4,1042,0,0.6068474,12.44861,2.741526,-1
18,F,0,1,44,1,2,175,3,2453,0,0.6277294,12.27371,2.870581,-1
18,F,0,1,44,2,2,173,1,1120,0,0.6574951,12.36628,2.98983,-1
18,F,0,1,44,3,1,174,2,1098,0,0.3408403,6.580225,2.818279,-1
18,F,0,1,44,4,1,176,4,3576,1,0.3456055,6.439969,2.962335,-1
18,F,0,1,44,5,1,173,1,1331,0,1.127441E-07,6.386577,0,-1
18,F,0,1,44,6,1,175,3,3009,0,1.990657E-07,6.411346,0,-1
18,F,0,1,44,7,2,176,4,2053,0,0.492254,12.46209,2.207619,-1
18,F,0,1,44,8,2,174,2,1053,0,0.8712628,12.43086,3.900233,-1
18,F,0,1,45,1,1,177,1,2453,1,0.2197147,6.404027,1.87628,-1
18,F,0,1,45,2,2,179,3,3198,1,0.2453532,12.30477,1.1196,-1
18,F,0,1,45,3,1,180,4,2398,0,0.3316099,6.462848,2.810767,-1
18,F,0,1,45,4,1,179,3,4642,2,0.08004641,6.401298,0.690405,-1
18,F,0,1,45,5,1,178,2,1342,0,0.1344908,6.604655,1.111884,-1
18,F,0,1,45,6,2,177,1,1287,0,0.4078664,12.37601,1.855196,-1
18,F,0,1,45,7,2,178,2,1176,0,0.4797975,12.44921,2.178885,-1
18,F,0,1,45,8,2,180,4,1320,0,0.2146275,12.48369,0.9638805,-1
18,F,0,1,46,1,1,181,1,1898,0,0.1423814,6.374343,1.220932,-1
18,F,0,1,46,2,1,183,3,2231,0,0.3663642,6.402544,3.162298,-1
18,F,0,1,46,3,2,182,2,1076,0,0.4916235,12.4524,2.195885,-1
18,F,0,1,46,4,2,183,3,3120,1,0.79075,12.30806,3.615793,-1
18,F,0,1,46,5,1,182,2,1387,0,1.145929E-07,6.607428,0,-1
18,F,0,1,46,6,1,184,4,4276,1,0.1067051,6.472746,0.9013549,-1
18,F,0,1,46,7,2,181,1,1687,0,0.4818304,12.3677,2.19071,-1
18,F,0,1,46,8,2,184,4,1542,0,0.2442143,12.48103,1.10553,-1
18,F,0,1,47,1,2,187,3,3652,1,0.1189738,12.29145,0.5421248,-1
18,F,0,1,47,2,1,186,2,1398,0,0.4241329,6.605178,3.475024,-1
18,F,0,1,47,3,1,185,1,2853,1,0.1452238,6.365156,1.247097,-1
18,F,0,1,47,4,1,188,4,2809,0,0.1595396,6.484679,1.358259,-1
18,F,0,1,47,5,2,185,1,1431,0,0.5966944,12.38592,2.691591,-1
18,F,0,1,47,6,2,188,4,1564,0,0.2146869,12.49058,0.971967,-1
18,F,0,1,47,7,2,186,2,1587,0,0.5594858,12.43947,2.50288,-1
18,F,0,1,47,8,1,187,3,3476,0,0.3539623,6.402855,3.055117,-1
18,F,0,1,48,1,2,189,1,1298,0,0.5661315,12.36976,2.556807,-1
18,F,0,1,48,2,1,191,3,2798,0,0.2696151,6.402586,2.326668,-1
18,F,0,1,48,3,1,189,1,1531,0,0.4632462,6.37703,3.9736,-1
18,F,0,1,48,4,1,192,4,2964,0,0.09275924,6.48497,0.7870849,-1
18,F,0,1,48,5,1,190,2,1253,0,0.3345163,6.608295,2.754064,-1
18,F,0,1,48,6,2,192,4,2076,1,0.8192598,12.48287,3.67541,-1
18,F,0,1,48,7,2,190,2,1076,0,0.3745548,12.44245,1.676898,-1
18,F,0,1,48,8,2,191,3,2531,0,0.5140741,12.30246,2.333471,-1
18,F,0,1,49,1,1,193,1,3898,0,0.04866694,6.38428,0.4173099,-1
18,F,0,1,49,2,2,194,2,920,0,0.2201612,12.44076,0.9883377,-1
18,F,0,1,49,3,1,195,3,4176,2,0.3145661,6.388725,2.721173,-1
18,F,0,1,49,4,1,196,4,3165,0,0.1666793,6.48561,1.409588,-1
18,F,0,1,49,5,1,194,2,1664,0,0.001047435,6.610068,0,-1
18,F,0,1,49,6,2,196,4,9999,0,-1,-1,-1,-1
18,F,0,1,49,7,2,195,3,4331,1,0.6634923,12.30177,3.024074,-1
18,F,0,1,49,8,2,193,1,1298,0,0.8531768,12.37706,3.896616,-1
18,F,0,1,50,1,2,198,2,1131,0,0.9393818,12.44526,4.233598,-1
18,F,0,1,50,2,2,200,4,1254,0,0.001456349,12.4796,0,-1
18,F,0,1,50,3,1,199,3,2154,0,0.3280085,6.402497,2.83103,-1
18,F,0,1,50,4,2,197,1,998,0,0.1313297,12.37195,0.5951191,-1
18,F,0,1,50,5,1,200,4,2342,0,0.2420929,6.490024,2.059376,-1
18,F,0,1,50,6,2,199,3,2287,0,0.3393381,12.30925,1.545604,-1
18,F,0,1,50,7,1,197,1,6731,1,0.03241098,6.373802,0.2790645,-1
18,F,0,1,50,8,1,198,2,1209,0,0.3830987,6.601397,3.14641,-1
18,F,0,1,51,1,2,203,3,2220,0,0.5854642,12.30346,2.66249,-1
18,F,0,1,51,2,2,201,1,909,0,0.7689674,12.37692,3.508387,-1
18,F,0,1,51,3,1,204,4,2498,0,0.2539069,6.487547,2.156947,-1
18,F,0,1,51,4,2,202,2,942,0,0.2289407,12.43984,1.031165,-1
18,F,0,1,51,5,1,203,3,2320,0,0.2176956,6.402255,1.878678,-1
18,F,0,1,51,6,2,204,4,1431,0,0.4078991,12.48685,1.827349,-1
18,F,0,1,51,7,1,202,2,4687,0,0.03807949,6.608817,0.315279,-1
18,F,0,1,51,8,1,201,1,1353,0,0.4781365,6.371309,4.102028,-1
18,F,0,1,52,1,2,208,4,1097,0,0.2611769,12.48259,1.172197,-1
18,F,0,1,52,2,1,205,1,1253,0,0.5300958,6.367764,4.554533,-1
18,F,0,1,52,3,2,207,3,2420,0,0.9737676,12.30703,4.461069,-1
18,F,0,1,52,4,2,206,2,864,0,0.2984602,12.44409,1.339837,-1
18,F,0,1,52,5,2,205,1,1220,0,1.266976E-07,12.36715,0,-1
18,F,0,1,52,6,1,208,4,3176,1,0.3101085,6.495371,2.636188,-1
18,F,0,1,52,7,1,207,3,2353,0,0.06484821,6.403657,0.5595313,-1
18,F,0,1,52,8,1,206,2,1587,0,0.546267,6.609912,4.473915,-1
18,F,0,1,53,1,1,212,4,2520,0,0.3155584,6.487348,2.685767,-1
18,F,0,1,53,2,2,211,3,1964,0,0.4982253,12.30828,2.26719,-1
18,F,0,1,53,3,2,209,1,1020,0,0.9633793,12.37556,4.380253,-1
18,F,0,1,53,4,2,212,4,942,0,0.3993908,12.48519,1.789473,-1
18,F,0,1,53,5,2,210,2,742,0,0.1316151,12.44016,0.5924829,-1
18,F,0,1,53,6,1,209,1,1898,0,0.4949593,6.376734,4.243117,-1
18,F,0,1,53,7,1,211,3,2787,0,0.2253329,6.402143,1.945513,-1
18,F,0,1,53,8,1,210,2,1375,0,0.3563928,6.605536,2.926902,-1
18,F,0,1,54,1,2,213,1,1676,0,0.1591133,12.3641,0.7214502,-1
18,F,0,1,54,2,1,215,3,3176,0,0.2880833,6.405676,2.484986,-1
18,F,0,1,54,3,2,214,2,1242,0,0.7037765,12.4432,3.14728,-1
18,F,0,1,54,4,1,213,1,3531,1,1.022462E-07,6.365101,0,-1
18,F,0,1,54,5,2,216,4,4109,0,0.3044187,12.48546,1.365157,-1
18,F,0,1,54,6,2,215,3,2598,0,0.9028336,12.306,4.155862,-1
18,F,0,1,54,7,1,216,4,3031,0,0.1806416,6.490558,1.536333,-1
18,F,0,1,54,8,1,214,2,1287,0,0.05739506,6.612864,0.4760123,-1
18,F,0,1,55,1,1,219,3,2442,0,0.3816831,6.400379,3.295743,-1
18,F,0,1,55,2,1,220,4,3420,0,0.2530958,6.485871,2.15095,-1
18,F,0,1,55,3,1,218,2,1109,0,0.2343489,6.608006,1.934113,-1
18,F,0,1,55,4,2,219,3,3131,1,0.3212674,12.30445,1.466337,-1
18,F,0,1,55,5,2,220,4,1209,0,0.1701814,12.49135,0.7646385,-1
18,F,0,1,55,6,1,217,1,1642,0,0.2364929,6.37936,2.025164,-1
18,F,0,1,55,7,2,218,2,1097,0,0.9001474,12.43824,4.032355,-1
18,F,0,1,55,8,2,217,1,1698,0,0.6167103,12.36903,2.785021,-1
18,F,0,1,56,1,2,223,3,3042,1,0.2893358,12.30612,1.320417,-1
18,F,0,1,56,2,1,221,1,1231,0,0.3646652,6.387233,3.119854,-1
18,F,0,1,56,3,2,222,2,1365,0,0.08797649,12.44913,0.3966355,-1
18,F,0,1,56,4,2,224,4,1765,0,0.401758,12.48496,1.80005,-1
18,F,0,1,56,5,2,221,1,1087,0,0.2039119,12.37341,0.9259842,-1
18,F,0,1,56,6,1,224,4,3431,1,0.1035103,6.489366,0.8686311,-1
18,F,0,1,56,7,1,222,2,964,0,3.101175E-08,6.607474,0,-1
18,F,0,1,56,8,1,223,3,2176,0,0.1722876,6.39477,1.488458,-1
18,F,0,1,57,1,3,228,4,2553,0,0.5054204,6.492448,4.2469,-1
18,F,0,1,57,2,4,225,1,1453,0,0.2972771,12.35317,1.352195,-1
18,F,0,1,57,3,3,226,2,1364,0,6.80008E-08,6.607395,0,-1
18,F,0,1,57,4,3,225,1,1742,0,0.02978561,6.390405,0.2571706,-1
18,F,0,1,57,5,3,227,3,2387,0,0.4553489,6.408283,3.934724,-1
18,F,0,1,57,6,4,226,2,1042,0,0.6189991,12.45732,2.777067,-1
18,F,0,1,57,7,4,227,3,2098,0,0.866316,12.31116,3.971087,-1
18,F,0,1,57,8,4,228,4,1209,0,0.8157315,12.49487,3.652055,-1
18,F,0,1,58,1,3,230,2,1376,0,0.2601768,6.63157,2.149494,-1
18,F,0,1,58,2,4,232,4,6942,0,0.474232,12.48072,2.141375,-1
18,F,0,1,58,3,4,231,3,1931,0,0.4947023,12.30959,2.259321,-1
18,F,0,1,58,4,4,230,2,976,0,0.385798,12.46742,1.730653,-1
18,F,0,1,58,5,3,232,4,2720,0,0.4621733,6.476174,3.922911,-1
18,F,0,1,58,6,4,229,1,1941,0,0.5307322,12.37729,2.415327,-1
18,F,0,1,58,7,3,231,3,3131,1,0.17628,6.393581,1.524056,-1
18,F,0,1,58,8,3,229,1,1554,0,0.4692942,6.398651,4.026231,-1
18,F,0,1,59,1,3,234,2,1454,0,1.094681E-07,6.62639,0,-1
18,F,0,1,59,2,4,235,3,2509,0,0.4609943,12.31214,2.094337,-1
18,F,0,1,59,3,4,233,1,1042,0,1.683123E-07,12.36223,0.01978234,-1
18,F,0,1,59,4,4,236,4,2376,0,0.10517,12.48376,0.4743652,-1
18,F,0,1,59,5,3,235,3,3120,1,0.2304826,6.390469,1.985541,-1
18,F,0,1,59,6,4,234,2,1209,0,0.2151492,12.46101,0.9655032,-1
18,F,0,1,59,7,3,236,4,3087,0,0.3804644,6.483657,3.24033,-1
18,F,0,1,59,8,3,233,1,3076,0,0.3014503,6.396471,2.585886,-1
18,F,0,1,60,1,3,239,3,3153,0,0.09765147,6.399292,0.8430232,-1
18,F,0,1,60,2,4,237,1,1176,0,0.6405111,12.37596,2.918664,-1
18,F,0,1,60,3,4,239,3,1576,0,0.5419719,12.30972,2.473697,-1
18,F,0,1,60,4,3,238,2,1742,0,0.009156794,6.620816,0.07661668,-1
18,F,0,1,60,5,4,240,4,2998,0,0.4043634,12.4771,1.815207,-1
18,F,0,1,60,6,3,237,1,1865,0,0.3614144,6.392017,3.105577,-1
18,F,0,1,60,7,3,240,4,2609,0,0.1034112,6.485634,0.8751395,-1
18,F,0,1,60,8,4,238,2,1064,0,0.5879857,12.47053,2.625623,-1
18,F,0,1,61,1,2,244,4,1187,0,0.6788315,12.39088,3.057295,-1
18,F,0,1,61,2,2,241,1,1231,0,0.5941022,12.30728,2.706676,-1
18,F,0,1,61,3,2,243,3,2409,0,0.5683237,12.23491,2.60842,-1
18,F,0,1,61,4,1,241,1,1431,0,0.5186714,6.317587,4.489604,-1
18,F,0,1,61,5,1,242,2,1176,0,0.03621181,6.503507,0.3051875,-1
18,F,0,1,61,6,1,243,3,2476,0,0.1796364,6.35014,1.563479,-1
18,F,0,1,61,7,2,242,2,1220,0,0.602198,12.35999,2.714763,-1
18,F,0,1,61,8,1,244,4,2342,0,0.3088943,6.421113,2.652915,-1
18,F,0,1,62,1,2,245,1,1276,0,0.3310193,12.29543,1.50805,-1
18,F,0,1,62,2,2,248,4,1420,0,0.7256942,12.38393,3.276321,-1
18,F,0,1,62,3,2,247,3,2076,0,0.2149068,12.21903,0.9946532,-1
18,F,0,1,62,4,1,246,2,2998,0,0.2820841,6.505662,2.353266,-1
18,F,0,1,62,5,1,245,1,1220,0,0.1989982,6.292518,1.72839,-1
18,F,0,1,62,6,1,247,3,2198,0,0.3526974,6.312609,3.089462,-1
18,F,0,1,62,7,1,248,4,2320,0,0.3817129,6.401206,3.289798,-1
18,F,0,1,62,8,2,246,2,1042,0,0.5112725,12.33071,2.309951,-1
18,F,0,1,1,1,6,1,1,2730,0,10.79537,12.29011,61.44746,-1
18,F,0,1,1,2,8,2,2,7153,0,5.336234,12.3469,25.51229,-1
18,F,0,1,1,3,5,1,1,3642,0,0.3892033,6.272349,3.392172,-1
18,F,0,1,1,4,5,3,3,4709,0,5.497339,6.369601,59.59925,-1
18,F,0,1,1,5,5,2,2,3931,0,0.9270982,6.485687,7.812685,-1
18,F,0,1,1,6,7,1,1,2142,0,6.271618,6.335768,81.81628,-1
18,F,0,1,1,7,6,4,4,5076,0,0.6051929,12.35466,2.738668,-1
18,F,0,1,1,8,6,2,2,4276,0,2.52138,12.31402,11.48075,-1
18,F,0,1,1,9,5,4,4,4620,0,0.7358335,6.401784,6.357428,-1
18,F,0,1,1,10,8,3,3,4442,0,2.516237,12.198,11.72429,-1
18,F,0,1,1,11,7,2,2,5309,0,4.480193,6.512979,42.92873,-1
18,F,0,1,1,12,8,4,4,6342,0,0.4434709,12.35748,2.006231,-1
18,F,0,1,1,13,7,3,3,5376,0,5.464073,6.373689,59.0099,-1
18,F,0,1,1,14,7,4,4,5031,0,2.713847,6.42857,24.12753,-1
18,F,0,1,1,15,6,3,3,5120,0,4.887704,12.196,23.62588,-1
18,F,0,1,1,16,8,1,1,7920,0,6.876724,12.27135,34.08268,-1
18,F,0,1,2,1,6,3,3,7064,0,4.678046,12.2023,22.54283,-1
18,F,0,1,2,2,6,1,1,4864,0,1.249445,12.25145,5.703824,-1
18,F,0,1,2,3,5,3,3,4931,0,5.244913,6.351902,55.60656,-1
18,F,0,1,2,4,6,4,4,8864,0,4.420332,12.35179,20.96943,-1
18,F,0,1,2,5,8,1,1,6098,0,1.397466,12.25312,6.417807,-1
18,F,0,1,2,6,8,4,4,5731,0,5.461409,12.35102,26.24323,-1
18,F,0,1,2,7,7,2,2,3542,0,4.126268,6.507329,38.88058,-1
18,F,0,1,2,8,5,4,4,7153,0,2.408477,6.402046,21.25217,-1
18,F,0,1,2,9,5,1,1,3298,0,4.632325,6.28929,47.39346,-1
18,F,0,1,2,10,5,2,2,4353,0,2.683686,6.509089,23.32226,-1
18,F,0,1,2,11,7,1,1,4742,0,5.351489,6.35475,57.35891,-1
18,F,0,1,2,12,6,2,2,3376,0,4.58292,12.35859,21.76674,-1
18,F,0,1,2,13,8,3,3,3065,0,2.147262,12.21297,9.862466,-1
18,F,0,1,2,14,8,2,2,2198,0,0.5238101,12.37132,2.365709,-1
18,F,0,1,2,15,7,4,4,7775,0,6.019181,6.448599,68.97263,-1
18,F,0,1,2,16,7,3,3,2476,0,3.81933,6.331024,35.59895,-1
