Age, Gender, Awareness Type, Session, Block, Trial, Set, Pattern, Quadrant, Response Time, Num Mistakes, Distance From Target, Camera Distance From Target, Angle Error (Degrees), FC Response
19,M,0,1,1,1,1,2,2,1309,0,0.4429833,6.462448,3.731769,-1
19,M,0,1,1,2,2,3,3,2487,1,0.6810771,12.21007,3.117657,-1
19,M,0,1,1,3,2,1,1,5053,0,0.3914507,12.2055,1.803308,-1
19,M,0,1,1,4,2,2,2,1387,0,0.8800233,12.43564,4.030072,-1
19,M,0,1,1,5,2,4,4,2553,0,0.1733904,12.42729,0.7803435,-1
19,M,0,1,1,6,1,1,1,2431,1,0.05235764,6.19506,0.4618246,-1
19,M,0,1,1,7,1,3,3,2720,0,1.115028E-07,6.219015,0,-1
19,M,0,1,1,8,1,4,4,3498,0,0.4233567,6.518656,3.4888,-1
19,M,0,1,2,1,1,7,3,4264,1,0.4212234,6.216526,3.741463,-1
19,M,0,1,2,2,2,8,4,4476,1,0.1610064,12.42036,0.7249676,-1
19,M,0,1,2,3,1,5,1,1609,0,0.0492637,6.206615,0.4325065,-1
19,M,0,1,2,4,2,7,3,2476,0,0.5180106,12.21703,2.374545,-1
19,M,0,1,2,5,1,8,4,3298,1,0.3743508,6.531469,3.127688,-1
19,M,0,1,2,6,2,6,2,1820,0,0.5046539,12.4311,2.261139,-1
19,M,0,1,2,7,2,5,1,2853,0,0.2651071,12.20492,1.222533,-1
19,M,0,1,2,8,1,6,2,2009,0,0.1847554,6.47816,1.551795,-1
19,M,0,1,3,1,2,12,4,2764,0,0.845986,12.425,3.838696,-1
19,M,0,1,3,2,2,11,3,1742,0,0.6900634,12.21641,3.186965,-1
19,M,0,1,3,3,1,9,1,1631,0,3.0198E-08,6.217835,0,-1
19,M,0,1,3,4,1,10,2,2676,1,0.4821855,6.476819,4.054296,-1
19,M,0,1,3,5,1,12,4,3031,0,0.4035214,6.525015,3.375045,-1
19,M,0,1,3,6,2,10,2,1509,0,5.360244E-08,12.458,0,-1
19,M,0,1,3,7,1,11,3,8686,0,0.2380561,6.233309,2.076129,-1
19,M,0,1,3,8,2,9,1,2487,1,0.08635969,12.22159,0.3966355,-1
19,M,0,1,4,1,2,16,4,1787,0,0.2121267,12.43313,0.9598116,-1
19,M,0,1,4,2,2,14,2,1742,0,0.8160291,12.44329,3.65693,-1
19,M,0,1,4,3,2,13,1,2187,0,0.4476956,12.22006,2.072921,-1
19,M,0,1,4,4,1,15,3,3187,0,0.1531021,6.232769,1.330898,-1
19,M,0,1,4,5,1,14,2,2620,0,0.2897802,6.483354,2.432687,-1
19,M,0,1,4,6,1,16,4,2775,1,0.2177609,6.520009,1.821879,-1
19,M,0,1,4,7,2,15,3,1842,0,0.1674642,12.22224,0.7692311,-1
19,M,0,1,4,8,1,13,1,1398,0,5.28604E-08,6.208757,0,-1
19,M,0,1,5,1,2,20,4,2498,0,0.9459763,12.42804,4.228182,-1
19,M,0,1,5,2,2,19,3,2354,0,0.5190333,12.22185,2.371329,-1
19,M,0,1,5,3,2,17,1,6842,0,0.835606,12.1983,3.896064,-1
19,M,0,1,5,4,2,18,2,3164,1,0.2725674,12.43482,1.228601,-1
19,M,0,1,5,5,1,20,4,3953,0,0.2019537,6.543339,1.684234,-1
19,M,0,1,5,6,1,19,3,5142,0,0.1125448,6.235882,0.9803861,-1
19,M,0,1,5,7,1,18,2,1720,0,0.4902727,6.472919,4.1245,-1
19,M,0,1,5,8,1,17,1,1431,0,0.1166139,6.1936,1.021442,-1
19,M,0,1,6,1,2,24,4,6987,0,1.010286,12.43253,4.528916,-1
19,M,0,1,6,2,1,23,3,3076,0,0.06114715,6.231738,0.5355885,-1
19,M,0,1,6,3,1,21,1,1275,0,0.1156096,6.201446,1.011624,-1
19,M,0,1,6,4,1,22,2,1765,0,0.3280892,6.483834,2.754277,-1
19,M,0,1,6,5,1,24,4,2676,2,0.008824301,6.544074,0.07401875,-1
19,M,0,1,6,6,2,22,2,1276,0,0.05760007,12.44529,0.2601963,-1
19,M,0,1,6,7,2,23,3,1520,0,0.4899874,12.22421,2.241666,-1
19,M,0,1,6,8,2,21,1,3064,0,0.01599015,12.2015,0.07132626,-1
19,M,0,1,7,1,2,26,2,1153,0,0.6431241,12.44024,2.873239,-1
19,M,0,1,7,2,2,25,1,1976,0,0.4691444,12.20642,2.152041,-1
19,M,0,1,7,3,2,27,3,2431,0,0.4196803,12.22057,1.920302,-1
19,M,0,1,7,4,2,28,4,2220,0,0.1370949,12.442,0.6199199,-1
19,M,0,1,7,5,1,25,1,2253,1,9.536482E-08,6.189168,0,-1
19,M,0,1,7,6,1,27,3,8098,0,7.636974E-08,6.241188,0,-1
19,M,0,1,7,7,1,26,2,1597,0,0.5217301,6.480597,4.384722,-1
19,M,0,1,7,8,1,28,4,2187,0,0.5373828,6.541716,4.423901,-1
19,M,0,1,8,1,2,31,3,1276,0,0.6267126,12.23207,2.863685,-1
19,M,0,1,8,2,1,29,1,1498,0,0.360392,6.213676,3.162979,-1
19,M,0,1,8,3,1,30,2,2142,0,0.05949607,6.494432,0.4973219,-1
19,M,0,1,8,4,1,31,3,5953,0,1.026783E-07,6.231188,0,-1
19,M,0,1,8,5,1,32,4,2409,1,0.5521929,6.536784,4.613842,-1
19,M,0,1,8,6,2,30,2,1209,0,2.048832E-07,12.43852,0,-1
19,M,0,1,8,7,2,29,1,2787,2,0.5501314,12.20071,2.548756,-1
19,M,0,1,8,8,2,32,4,1731,0,0.4470941,12.43525,2.003204,-1
19,M,0,1,9,1,2,33,1,1487,0,0.5461116,12.20987,2.499593,-1
19,M,0,1,9,2,2,35,3,2887,0,0.332588,12.21502,1.533783,-1
19,M,0,1,9,3,1,34,2,1565,0,0.3381797,6.461853,2.847645,-1
19,M,0,1,9,4,2,36,4,4364,0,0.5711393,12.44158,2.556654,-1
19,M,0,1,9,5,1,33,1,1842,0,0.2305035,6.180409,2.011686,-1
19,M,0,1,9,6,1,36,4,2153,0,0.2356715,6.55479,1.96264,-1
19,M,0,1,9,7,1,35,3,3964,0,5.767013E-08,6.233529,0,-1
19,M,0,1,9,8,2,34,2,2076,0,0.8471072,12.43323,3.80992,-1
19,M,0,1,10,1,2,40,4,3331,1,0.5951067,12.43456,2.663225,-1
19,M,0,1,10,2,2,38,2,1753,0,0.1557777,12.42712,0.7019292,-1
19,M,0,1,10,3,1,39,3,2253,0,0.2009684,6.240699,1.751113,-1
19,M,0,1,10,4,2,37,1,1965,0,1.03262E-07,12.20106,0,-1
19,M,0,1,10,5,2,39,3,1342,0,0.3419995,12.21421,1.575698,-1
19,M,0,1,10,6,1,40,4,2953,1,0.0787465,6.553765,0.65342,-1
19,M,0,1,10,7,1,37,1,1287,0,0.4629698,6.17689,4.100595,-1
19,M,0,1,10,8,1,38,2,1631,0,0.3900302,6.457606,3.260087,-1
19,M,0,1,11,1,1,43,3,3976,0,0.1809435,6.218188,1.604984,-1
19,M,0,1,11,2,1,44,4,1487,0,0.4455287,6.549497,3.66757,-1
19,M,0,1,11,3,2,41,1,1642,0,0.4414086,12.19715,2.04306,-1
19,M,0,1,11,4,2,43,3,1709,0,0.2205482,12.21088,1.016833,-1
19,M,0,1,11,5,2,42,2,1220,0,0.8431967,12.43289,3.841347,-1
19,M,0,1,11,6,2,44,4,1353,0,0.5631752,12.43498,2.522355,-1
19,M,0,1,11,7,1,41,1,7364,1,0.3056248,6.187405,2.656455,-1
19,M,0,1,11,8,1,42,2,3364,0,0.4235438,6.458404,3.569851,-1
19,M,0,1,12,1,1,47,3,2887,0,1.349407E-07,6.232537,0,-1
19,M,0,1,12,2,2,48,4,1776,0,0.6101083,12.43803,2.741812,-1
19,M,0,1,12,3,1,45,1,2553,1,0.3266327,6.179482,2.839522,-1
19,M,0,1,12,4,1,48,4,3709,1,0.1697424,6.621176,1.388185,-1
19,M,0,1,12,5,1,46,2,2464,0,0.4875751,6.494037,4.087776,-1
19,M,0,1,12,6,2,47,3,1231,0,0.7719476,12.27522,3.574455,-1
19,M,0,1,12,7,2,45,1,2554,1,0.3854869,12.24095,1.771446,-1
19,M,0,1,12,8,2,46,2,1853,0,0.6332656,12.48174,2.853207,-1
19,M,0,1,13,1,2,49,1,3420,0,0.4573339,12.2617,2.114611,-1
19,M,0,1,13,2,2,51,3,1476,0,0.499944,12.28941,2.294478,-1
19,M,0,1,13,3,1,52,4,1320,0,0.4436504,6.632239,3.654681,-1
19,M,0,1,13,4,1,50,2,4076,2,0.02456676,6.514243,0.2065338,-1
19,M,0,1,13,5,1,51,3,2520,0,0.2875214,6.315722,2.453597,-1
19,M,0,1,13,6,1,49,1,1720,0,0.1447338,6.228305,1.276409,-1
19,M,0,1,13,7,2,52,4,4798,0,0.6016394,12.52096,2.675178,-1
19,M,0,1,13,8,2,50,2,2509,0,0.7157235,12.50116,3.257744,-1
19,M,0,1,14,1,2,53,1,1976,0,0.5258031,12.28315,2.415894,-1
19,M,0,1,14,2,1,55,3,2865,0,0.2785808,6.3094,2.404525,-1
19,M,0,1,14,3,1,56,4,2398,2,0.3127574,6.638688,2.572909,-1
19,M,0,1,14,4,1,54,2,3442,2,0.3310294,6.513149,2.745379,-1
19,M,0,1,14,5,2,56,4,2653,1,0.9582642,12.51854,4.267648,-1
19,M,0,1,14,6,2,55,3,1075,0,0.4540726,12.3041,2.063458,-1
19,M,0,1,14,7,1,53,1,2709,0,0.009477074,6.256589,0.07912937,-1
19,M,0,1,14,8,2,54,2,1053,0,0.3743793,12.50015,1.670467,-1
19,M,0,1,15,1,2,60,4,1953,0,0.8892927,12.52512,3.955621,-1
19,M,0,1,15,2,1,58,2,4931,0,0.4749193,6.524361,3.945559,-1
19,M,0,1,15,3,2,59,3,1509,0,0.4798961,12.30511,2.181668,-1
19,M,0,1,15,4,2,57,1,1064,0,0.4383481,12.29163,1.997726,-1
19,M,0,1,15,5,1,59,3,1887,0,0.4017397,6.320211,3.435472,-1
19,M,0,1,15,6,1,60,4,6565,8,0.5515529,6.634642,4.452014,-1
19,M,0,1,15,7,2,58,2,1287,0,0.138511,12.50466,0.6233823,-1
19,M,0,1,15,8,1,57,1,1887,0,0.04720756,6.238658,0.4135417,-1
19,M,0,1,16,1,1,64,4,1954,1,0.2250877,6.633918,1.852663,-1
19,M,0,1,16,2,2,63,3,2298,0,0.5547895,12.29682,2.541296,-1
19,M,0,1,16,3,2,62,2,1542,0,0.25009,12.50283,1.118026,-1
19,M,0,1,16,4,1,61,1,3187,0,0.3003004,6.235029,2.679565,-1
19,M,0,1,16,5,1,63,3,4664,0,0.1836266,6.32087,1.584368,-1
19,M,0,1,16,6,1,62,2,2053,0,0.06752404,6.528261,0.5630175,-1
19,M,0,1,16,7,2,64,4,2330,0,0.9710271,12.52717,4.320692,-1
19,M,0,1,16,8,2,61,1,1553,0,0.3129368,12.28462,1.42615,-1
19,M,0,1,17,1,4,68,4,1665,0,0.7805546,12.5381,3.472036,-1
19,M,0,1,17,2,3,65,1,4275,0,8.360483E-08,6.297599,0,-1
19,M,0,1,17,3,4,67,3,1608,0,0.7012467,12.32961,3.237187,-1
19,M,0,1,17,4,4,66,2,1453,1,0.6492944,12.49102,2.897932,-1
19,M,0,1,17,5,3,67,3,2054,0,0.1280388,6.314058,1.098427,-1
19,M,0,1,17,6,3,66,2,1442,0,0.4745272,6.523026,3.960717,-1
19,M,0,1,17,7,4,65,1,2776,0,0.1331378,12.27059,0.6097356,-1
19,M,0,1,17,8,3,68,4,2364,2,0.4520632,6.661774,3.686687,-1
19,M,0,1,18,1,4,70,2,4953,0,0.9780484,12.49737,4.39748,-1
19,M,0,1,18,2,3,72,4,3965,1,0.4319494,6.634431,3.542432,-1
19,M,0,1,18,3,4,69,1,2542,0,0.1185586,12.28118,0.5410409,-1
19,M,0,1,18,4,4,71,3,2976,0,0.3609486,12.3268,1.655994,-1
19,M,0,1,18,5,3,69,1,5254,0,0.2592656,6.261672,2.246986,-1
19,M,0,1,18,6,3,70,2,3398,3,0.4265397,6.522543,3.530861,-1
19,M,0,1,18,7,4,72,4,2131,1,0.9812835,12.50659,4.354512,-1
19,M,0,1,18,8,3,71,3,4342,0,0.3354003,6.312159,2.869217,-1
19,M,0,1,19,1,4,73,1,2087,0,1.323995E-07,12.27867,0,-1
19,M,0,1,19,2,4,74,2,2053,0,0.8901502,12.47943,3.980789,-1
19,M,0,1,19,3,4,75,3,4409,0,1.013443,12.3215,4.647219,-1
19,M,0,1,19,4,3,76,4,6664,1,0.5595416,6.671463,4.611422,-1
19,M,0,1,19,5,3,74,2,2753,0,0.3161684,6.523358,2.624803,-1
19,M,0,1,19,6,3,73,1,1698,0,0.4714126,6.250585,4.057579,-1
19,M,0,1,19,7,4,76,4,4320,2,1.054758,12.55924,4.686381,-1
19,M,0,1,19,8,3,75,3,1987,0,0.1825558,6.326807,1.570099,-1
19,M,0,1,20,1,4,78,2,1020,0,0.2004701,12.47345,0.8961296,-1
19,M,0,1,20,2,4,79,3,2476,0,0.4443613,12.34784,2.019842,-1
19,M,0,1,20,3,4,80,4,2209,2,0.01048921,12.5361,0.04423466,-1
19,M,0,1,20,4,3,79,3,2865,0,1.28761E-07,6.307186,0,-1
19,M,0,1,20,5,4,77,1,1375,0,9.818059E-08,12.28719,0,-1
19,M,0,1,20,6,3,80,4,2920,1,0.3248884,6.648779,2.682996,-1
19,M,0,1,20,7,3,77,1,3742,0,1.348206E-07,6.255366,0,-1
19,M,0,1,20,8,3,78,2,1642,0,0.5201811,6.52816,4.368433,-1
19,M,0,1,20,1,2,77,1,1876,0,0.6063901,12.27648,2.793442,-1
19,M,0,1,20,2,1,78,2,1720,0,0.4598517,6.527435,3.835634,-1
19,M,0,1,20,3,1,77,1,1553,0,8.5125E-08,6.251316,0,-1
19,M,0,1,20,4,2,78,2,1276,0,0.6546202,12.50632,2.921948,-1
19,M,0,1,20,5,1,79,3,1976,0,0.4006421,6.340003,3.442475,-1
19,M,0,1,20,6,2,80,4,3276,0,0.8296307,12.53507,3.712937,-1
19,M,0,1,20,7,2,79,3,1242,0,0.4279593,12.31159,1.946016,-1
19,M,0,1,20,8,1,80,4,1898,0,0.3934099,6.65223,3.230649,-1
19,M,0,1,21,1,2,81,1,1065,0,0.1025017,12.2963,0.4677188,-1
19,M,0,1,21,2,1,84,4,3909,1,0.5182861,6.645469,4.262137,-1
19,M,0,1,21,3,2,82,2,1298,0,0.6151486,12.51825,2.738668,-1
19,M,0,1,21,4,2,83,3,1887,0,0.3711732,12.31871,1.684699,-1
19,M,0,1,21,5,2,84,4,1987,1,0.7149023,12.54,3.176443,-1
19,M,0,1,21,6,1,83,3,2864,0,1.111979E-07,6.317234,0,-1
19,M,0,1,21,7,1,82,2,1576,0,0.5100664,6.49573,4.274801,-1
19,M,0,1,21,8,1,81,1,2576,0,0.02520734,6.222952,0.2211734,-1
19,M,0,1,22,1,1,88,4,2142,1,0.5192972,6.671141,4.24464,-1
19,M,0,1,22,2,1,87,3,2975,0,0.3245201,6.352013,2.783193,-1
19,M,0,1,22,3,2,86,2,5087,0,0.05806365,12.50182,0.2609472,-1
19,M,0,1,22,4,2,88,4,3853,0,0.7840757,12.54516,3.482903,-1
19,M,0,1,22,5,1,86,2,2353,0,0.232091,6.493035,1.944306,-1
19,M,0,1,22,6,1,85,1,1853,0,0.1233731,6.224854,1.075928,-1
19,M,0,1,22,7,2,87,3,2153,0,0.5834366,12.31542,2.653727,-1
19,M,0,1,22,8,2,85,1,2231,0,0.1659077,12.28088,0.7566639,-1
19,M,0,1,23,1,1,91,3,3776,0,0.1426626,6.357946,1.221252,-1
19,M,0,1,23,2,1,90,2,3009,1,0.3353599,6.486329,2.812647,-1
19,M,0,1,23,3,1,89,1,1420,0,0.2536871,6.219159,2.206289,-1
19,M,0,1,23,4,2,90,2,1264,0,0.4763553,12.48882,2.13799,-1
19,M,0,1,23,5,1,92,4,4987,0,0.3698118,6.687426,3.022131,-1
19,M,0,1,23,6,2,89,1,1809,0,0.2116268,12.27422,0.9685385,-1
19,M,0,1,23,7,2,91,3,1831,0,0.7062168,12.31332,3.233738,-1
19,M,0,1,23,8,2,92,4,3342,1,0.5843136,12.54715,2.59201,-1
19,M,0,1,24,1,1,94,2,2764,3,0.5312675,6.487371,4.457731,-1
19,M,0,1,24,2,2,95,3,2142,0,0.3602813,12.31143,1.645324,-1
19,M,0,1,24,3,2,93,1,1653,0,0.2835615,12.27151,1.304013,-1
19,M,0,1,24,4,2,96,4,1975,0,0.7662123,12.54566,3.405996,-1
19,M,0,1,24,5,2,94,2,1131,0,0.9785202,12.48754,4.370809,-1
19,M,0,1,24,6,1,96,4,4431,0,0.4463761,6.684549,3.650339,-1
19,M,0,1,24,7,1,93,1,2031,0,0.02837108,6.227002,0.2486604,-1
19,M,0,1,24,8,1,95,3,5475,0,0.09176402,6.352032,0.7863387,-1
19,M,0,1,25,1,2,97,1,1676,0,0.8707702,12.28866,3.974931,-1
19,M,0,1,25,2,1,100,4,4353,0,0.2857186,6.694048,2.332129,-1
19,M,0,1,25,3,1,97,1,1720,0,0.03774093,6.220726,0.3310224,-1
19,M,0,1,25,4,2,98,2,1520,0,0.2516622,12.4884,1.126396,-1
19,M,0,1,25,5,2,99,3,1753,0,0.2521907,12.32742,1.14603,-1
19,M,0,1,25,6,1,98,2,3364,3,0.04878217,6.492659,0.4083038,-1
19,M,0,1,25,7,1,99,3,2609,0,0.4386218,6.356206,3.722259,-1
19,M,0,1,25,8,2,100,4,2042,0,0.8992871,12.55646,3.991892,-1
19,M,0,1,26,1,1,102,2,4187,3,0.3557321,6.486844,2.98321,-1
19,M,0,1,26,2,1,101,1,4020,0,0.09298186,6.225904,0.8122882,-1
19,M,0,1,26,3,1,103,3,3276,0,0.07842307,6.351764,0.6720214,-1
19,M,0,1,26,4,1,104,4,1976,0,0.384298,6.688272,3.090855,-1
19,M,0,1,26,5,2,103,3,1154,0,0.8045419,12.31934,3.690668,-1
19,M,0,1,26,6,2,102,2,987,0,3.618809E-08,12.49513,0,-1
19,M,0,1,26,7,2,101,1,1165,0,0.9797549,12.28724,4.456984,-1
19,M,0,1,26,8,2,104,4,3376,0,0.8715692,12.55448,3.857372,-1
19,M,0,1,27,1,1,107,3,3742,0,0.0273179,6.349689,0.2349025,-1
19,M,0,1,27,2,2,105,1,1398,0,0.02605263,12.27952,0.1203313,-1
19,M,0,1,27,3,1,108,4,2653,2,0.185446,6.684087,1.502199,-1
19,M,0,1,27,4,1,106,2,2509,2,0.1309582,6.494845,1.090022,-1
19,M,0,1,27,5,2,107,3,1287,0,0.35611,12.32731,1.615073,-1
19,M,0,1,27,6,2,106,2,976,0,0.008912062,12.49589,0.03956468,-1
19,M,0,1,27,7,2,108,4,1920,0,0.7335516,12.56013,3.259246,-1
19,M,0,1,27,8,1,105,1,1387,0,0.4758326,6.227583,4.107944,-1
19,M,0,1,28,1,1,110,2,1587,0,0.4190441,6.491805,3.478796,-1
19,M,0,1,28,2,2,112,4,2731,1,0.7334243,12.56509,3.247753,-1
19,M,0,1,28,3,1,111,3,5153,0,9.762722E-08,6.363572,0,-1
19,M,0,1,28,4,1,109,1,7286,0,0.2493809,6.193274,2.172498,-1
19,M,0,1,28,5,1,112,4,3009,1,0.5083505,6.548048,4.238314,-1
19,M,0,1,28,6,2,110,2,3165,0,0.6650454,12.48778,3.018696,-1
19,M,0,1,28,7,2,109,1,9486,0,0.6898012,12.21334,3.205218,-1
19,M,0,1,28,8,2,111,3,1753,0,0.3463972,12.23414,1.583627,-1
19,M,0,1,29,1,1,114,2,1931,1,0.3127038,6.5011,2.614342,-1
19,M,0,1,29,2,2,116,4,2142,1,0.9695762,12.48713,4.315204,-1
19,M,0,1,29,3,1,115,3,3420,0,0.4118915,6.289153,3.628496,-1
19,M,0,1,29,4,1,113,1,2108,0,0.06348623,6.248709,0.556375,-1
19,M,0,1,29,5,1,116,4,3476,1,0.4925105,6.580008,4.069579,-1
19,M,0,1,29,6,2,113,1,1698,0,0.9470348,12.26306,4.4098,-1
19,M,0,1,29,7,2,114,2,1320,0,0.3101431,12.48218,1.394233,-1
19,M,0,1,29,8,2,115,3,2431,0,0.9030468,12.2778,4.191196,-1
19,M,0,1,30,1,1,120,4,2619,1,0.5455108,6.581995,4.527315,-1
19,M,0,1,30,2,1,118,2,1731,1,0.2258165,6.487268,1.890619,-1
19,M,0,1,30,3,2,120,4,3087,1,0.7089544,12.48752,3.158519,-1
19,M,0,1,30,4,2,119,3,3675,2,1.004466,12.26436,4.681112,-1
19,M,0,1,30,5,2,117,1,7597,2,0.4002462,12.25167,1.843344,-1
19,M,0,1,30,6,1,119,3,4187,0,0.2088019,6.298366,1.815961,-1
19,M,0,1,30,7,1,117,1,2409,1,0.3137196,6.229158,2.785653,-1
19,M,0,1,30,8,2,118,2,1331,0,0.2746754,12.4772,1.234004,-1
19,M,0,1,31,1,1,124,4,2086,0,0.542932,6.58761,4.502195,-1
19,M,0,1,31,2,1,122,2,1442,0,0.5055131,6.484796,4.200811,-1
19,M,0,1,31,3,2,123,3,1443,0,0.6791916,12.28242,3.131629,-1
19,M,0,1,31,4,2,121,1,1486,0,0.5040475,12.26603,2.323132,-1
19,M,0,1,31,5,2,124,4,5631,3,0.8836448,12.47164,3.938306,-1
19,M,0,1,31,6,1,121,1,1953,1,0.3806842,6.225163,3.394653,-1
19,M,0,1,31,7,1,123,3,5719,0,0.4131697,6.271628,3.668691,-1
19,M,0,1,31,8,2,122,2,2909,0,0.5363489,12.47282,2.412894,-1
19,M,0,1,32,1,2,125,1,1564,0,0.638017,12.25624,2.951345,-1
19,M,0,1,32,2,1,127,3,3909,0,1.701193E-07,6.28995,0.01978234,-1
19,M,0,1,32,3,1,126,2,3664,0,0.3594371,6.486297,3.015517,-1
19,M,0,1,32,4,2,128,4,2964,1,0.3247197,12.4837,1.455487,-1
19,M,0,1,32,5,2,126,2,1020,0,0.202541,12.45828,0.912574,-1
19,M,0,1,32,6,1,125,1,1142,0,0.001503768,6.240764,0,-1
19,M,0,1,32,7,1,128,4,1486,0,0.544136,6.571833,4.436325,-1
19,M,0,1,32,8,2,127,3,1831,0,0.4765311,12.27185,2.18579,-1
19,M,0,1,33,1,1,132,4,3919,2,0.234261,6.572354,1.924883,-1
19,M,0,1,33,2,1,129,1,1331,0,0.06414947,6.235639,0.5598809,-1
19,M,0,1,33,3,2,131,3,1565,0,0.4742295,12.26034,2.184895,-1
19,M,0,1,33,4,2,129,1,1620,0,0.9415794,12.2383,4.394717,-1
19,M,0,1,33,5,2,130,2,3342,0,0.9599646,12.45577,4.316429,-1
19,M,0,1,33,6,2,132,4,3320,0,0.8330411,12.47038,3.722049,-1
19,M,0,1,33,7,1,130,2,2176,1,0.2377545,6.474636,1.987511,-1
19,M,0,1,33,8,1,131,3,2464,0,0.2490882,6.279067,2.195172,-1
19,M,0,1,34,1,2,133,1,1820,0,0.7809988,12.23961,3.628874,-1
19,M,0,1,34,2,2,136,4,1676,0,0.2740675,12.4846,1.22589,-1
19,M,0,1,34,3,2,134,2,1120,0,0.6644072,12.47517,2.989437,-1
19,M,0,1,34,4,1,133,1,1620,0,0.3080728,6.231753,2.733517,-1
19,M,0,1,34,5,1,134,2,1576,0,0.3140355,6.482296,2.625325,-1
19,M,0,1,34,6,1,135,3,2209,0,0.02936675,6.300045,0.254109,-1
19,M,0,1,34,7,1,136,4,3120,0,0.5098331,6.587073,4.227719,-1
19,M,0,1,34,8,2,135,3,1842,0,0.6148743,12.27318,2.831237,-1
19,M,0,1,35,1,2,138,2,1142,0,6.705241E-08,12.4776,0.01978234,-1
19,M,0,1,35,2,2,140,4,1809,0,0.6197333,12.48416,2.763076,-1
19,M,0,1,35,3,2,139,3,1709,0,0.7555801,12.27637,3.498216,-1
19,M,0,1,35,4,1,140,4,3775,3,0.3103833,6.586357,2.550905,-1
19,M,0,1,35,5,1,138,2,1587,1,0.2650414,6.480579,2.213197,-1
19,M,0,1,35,6,1,137,1,1298,0,4.977798E-08,6.236992,0,-1
19,M,0,1,35,7,1,139,3,2142,0,0.06451915,6.30162,0.55778,-1
19,M,0,1,35,8,2,137,1,1153,0,0.9355157,12.25096,4.35694,-1
19,M,0,1,37,1,3,146,2,2131,1,0.3610035,6.488598,3.024657,-1
19,M,0,1,37,2,4,148,4,3975,0,0.2707304,12.50875,1.212085,-1
19,M,0,1,37,3,4,145,1,1476,1,0.4380891,12.26885,2.02052,-1
19,M,0,1,37,4,3,148,4,9999,8,-1,-1,-1,-1
19,M,0,1,37,5,3,145,1,2309,1,0.3748635,6.19522,3.306478,-1
19,M,0,1,37,6,3,147,3,9999,0,-1,-1,-1,-1
19,M,0,1,37,7,4,146,2,920,0,0.280226,12.43228,1.261295,-1
19,M,0,1,37,8,4,147,3,1843,1,0.4758426,12.25766,2.19071,-1
19,M,0,1,38,1,3,150,2,1365,0,0.4038808,6.491539,3.395921,-1
19,M,0,1,38,2,3,149,1,4631,0,0.1237312,6.23945,1.091098,-1
19,M,0,1,38,3,3,151,3,1942,0,0.04768876,6.276258,0.4154301,-1
19,M,0,1,38,4,4,149,1,4009,0,1.031524E-07,12.28828,0,-1
19,M,0,1,38,5,4,150,2,1176,0,0.9278834,12.46339,4.1961,-1
19,M,0,1,38,6,4,152,4,2176,1,0.04402457,12.49665,0.1978235,-1
19,M,0,1,38,7,4,151,3,2165,1,0.6126404,12.3041,2.830891,-1
19,M,0,1,38,8,3,152,4,4020,2,1.154442E-07,6.608657,0,-1
19,M,0,1,39,1,4,154,2,1320,0,0.7265512,12.44915,3.311685,-1
19,M,0,1,39,2,4,153,1,1831,0,0.4344035,12.2728,1.998314,-1
19,M,0,1,39,3,4,155,3,1331,0,0.7295597,12.33617,3.312512,-1
19,M,0,1,39,4,4,156,4,1676,0,0.8341238,12.48256,3.707237,-1
19,M,0,1,39,5,3,155,3,3931,0,0.3463008,6.337201,2.966693,-1
19,M,0,1,39,6,3,154,2,1320,0,0.4941714,6.543044,4.101264,-1
19,M,0,1,39,7,3,156,4,4131,2,0.3308585,6.595784,2.738383,-1
19,M,0,1,39,8,3,153,1,1431,0,0.4186159,6.263785,3.732031,-1
19,M,0,1,40,1,4,160,4,3098,0,0.6145241,12.49511,2.745094,-1
19,M,0,1,40,2,3,158,2,3998,1,0.1931672,6.542934,1.619792,-1
19,M,0,1,40,3,4,157,1,4531,0,0.7105563,12.26398,3.290036,-1
19,M,0,1,40,4,3,159,3,2876,0,0.2088023,6.304289,1.786846,-1
19,M,0,1,40,5,3,157,1,1253,0,0.3488582,6.252333,3.093957,-1
19,M,0,1,40,6,4,158,2,1031,0,0.6857511,12.45157,3.078734,-1
19,M,0,1,40,7,3,160,4,2075,0,0.5313479,6.607312,4.393112,-1
19,M,0,1,40,8,4,159,3,1598,0,0.5397559,12.34218,2.471639,-1
19,M,0,1,41,1,2,162,2,1131,0,0.1878045,12.56386,0.8444148,-1
19,M,0,1,41,2,1,161,1,1053,0,0.404131,6.239309,3.599891,-1
19,M,0,1,41,3,2,163,3,953,0,0.6063696,12.34904,2.764775,-1
19,M,0,1,41,4,2,164,4,1787,0,0.6112146,12.55771,2.711517,-1
19,M,0,1,41,5,2,161,1,1175,0,0.3750945,12.32903,1.705595,-1
19,M,0,1,41,6,1,163,3,2075,0,0.3766735,6.377291,3.21595,-1
19,M,0,1,41,7,1,162,2,2465,2,0.04918027,6.569611,0.4073442,-1
19,M,0,1,41,8,1,164,4,2909,1,0.4267021,6.679936,3.476319,-1
19,M,0,1,42,1,2,166,2,3398,0,0.7110963,12.56573,3.171879,-1
19,M,0,1,42,2,1,167,3,2064,0,0.4812319,6.359384,4.07285,-1
19,M,0,1,42,3,2,168,4,4264,0,0.5894814,12.59428,2.605717,-1
19,M,0,1,42,4,1,165,1,1464,0,1.109503E-07,6.325922,0,-1
19,M,0,1,42,5,1,166,2,1842,0,0.3518093,6.592517,2.901713,-1
19,M,0,1,42,6,1,168,4,2509,1,0.372423,6.675884,3.047032,-1
19,M,0,1,42,7,2,167,3,2331,0,0.7956661,12.29808,3.638088,-1
19,M,0,1,42,8,2,165,1,3776,0,0.6063169,12.25261,2.814664,-1
19,M,0,1,43,1,2,171,3,1220,0,0.382177,12.30324,1.736974,-1
19,M,0,1,43,2,1,169,1,1765,0,0.1175301,6.203746,1.029646,-1
19,M,0,1,43,3,1,172,4,1687,0,0.322281,6.672772,2.639527,-1
19,M,0,1,43,4,1,170,2,2398,1,0.07964699,6.485833,0.6673463,-1
19,M,0,1,43,5,2,172,4,2453,0,0.9572499,12.53667,4.240947,-1
19,M,0,1,43,6,1,171,3,2253,0,0.09132229,6.327969,0.7853427,-1
19,M,0,1,43,7,2,170,2,3331,0,0.4420804,12.47474,1.98761,-1
19,M,0,1,43,8,2,169,1,1653,0,4.439154E-08,12.2619,0,-1
19,M,0,1,44,1,2,174,2,4087,0,0.6610837,12.47182,2.999766,-1
19,M,0,1,44,2,2,175,3,1209,0,0.4843611,12.29304,2.216202,-1
19,M,0,1,44,3,1,173,1,1576,0,0.2532799,6.215019,2.199358,-1
19,M,0,1,44,4,1,175,3,3842,0,0.4505067,6.305723,3.945807,-1
19,M,0,1,44,5,2,173,1,1165,0,9.042345E-08,12.27492,0,-1
19,M,0,1,44,6,2,176,4,3020,1,0.6301228,12.5483,2.797784,-1
19,M,0,1,44,7,1,174,2,1987,1,0.501574,6.513136,4.14586,-1
19,M,0,1,44,8,1,176,4,3920,1,0.2946634,6.683598,2.409241,-1
19,M,0,1,45,1,1,177,1,1342,0,0.04466854,6.219848,0.393167,-1
19,M,0,1,45,2,1,179,3,3942,0,2.596119E-07,6.321778,0,-1
19,M,0,1,45,3,1,180,4,2965,1,0.1488229,6.680307,1.214987,-1
19,M,0,1,45,4,2,179,3,1631,0,0.3577034,12.29494,1.630629,-1
19,M,0,1,45,5,1,178,2,2687,1,0.3356994,6.512958,2.781575,-1
19,M,0,1,45,6,2,177,1,2976,0,0.4065779,12.26586,1.873462,-1
19,M,0,1,45,7,2,180,4,8309,1,0.2086799,12.50319,0.9329317,-1
19,M,0,1,45,8,2,178,2,953,0,0.7162472,12.44134,3.255399,-1
19,M,0,1,46,1,2,183,3,1342,1,0.6208277,12.29296,2.869694,-1
19,M,0,1,46,2,1,181,1,2787,3,0.1384959,6.177535,1.222373,-1
19,M,0,1,46,3,1,182,2,1431,0,0.1378203,6.446087,1.159778,-1
19,M,0,1,46,4,2,184,4,1998,0,0.5870386,12.50206,2.615614,-1
19,M,0,1,46,5,2,181,1,1687,1,0.8746749,12.24464,4.064041,-1
19,M,0,1,46,6,1,183,3,1631,0,0.007929308,6.373871,0.06852804,-1
19,M,0,1,46,7,2,182,2,1142,0,0.1508121,12.46059,0.6783969,-1
19,M,0,1,46,8,1,184,4,2664,2,0.09190299,6.684733,0.7444103,-1
19,M,0,1,47,1,1,186,2,1364,0,0.4758846,6.433104,3.98713,-1
19,M,0,1,47,2,1,187,3,1987,0,0.4822573,6.363885,4.212729,-1
19,M,0,1,47,3,2,188,4,3720,0,0.07714213,12.5316,0.3460502,-1
19,M,0,1,47,4,2,187,3,1231,0,0.8356257,12.30804,3.831701,-1
19,M,0,1,47,5,2,186,2,1398,0,0.3500561,12.46385,1.575946,-1
19,M,0,1,47,6,1,185,1,1820,0,0.02909704,6.20493,0.2564087,-1
19,M,0,1,47,7,1,188,4,1642,0,0.5458663,6.6693,4.475534,-1
19,M,0,1,47,8,2,185,1,1109,0,0.7114256,12.26184,3.294793,-1
19,M,0,1,48,1,2,191,3,1087,0,0.6176104,12.31894,2.840004,-1
19,M,0,1,48,2,2,189,1,2165,1,0.3739325,12.26347,1.71965,-1
19,M,0,1,48,3,2,192,4,3353,0,0.916164,12.52747,4.093999,-1
19,M,0,1,48,4,2,190,2,4265,0,0.9198742,12.46373,4.199366,-1
19,M,0,1,48,5,1,191,3,5165,1,0.1013888,6.345002,0.8782644,-1
19,M,0,1,48,6,1,192,4,2120,0,0.3396259,6.64621,2.785794,-1
19,M,0,1,48,7,1,189,1,1076,0,0.1832474,6.266326,1.5952,-1
19,M,0,1,48,8,1,190,2,2920,2,0.1222634,6.478998,1.024502,-1
19,M,0,1,49,1,1,195,3,1920,0,0.3096267,6.35455,2.709422,-1
19,M,0,1,49,2,2,196,4,2553,0,0.7054589,12.51718,3.140119,-1
19,M,0,1,49,3,2,194,2,1431,0,0.2796037,12.43047,1.256632,-1
19,M,0,1,49,4,1,193,1,1731,0,0.0912775,6.174383,0.8035691,-1
19,M,0,1,49,5,1,194,2,1853,0,0.4800721,6.40966,4.072561,-1
19,M,0,1,49,6,2,195,3,1198,0,0.6047009,12.30135,2.771281,-1
19,M,0,1,49,7,1,196,4,7442,3,0.479243,6.686017,3.942629,-1
19,M,0,1,49,8,2,193,1,1342,0,0.7840361,12.24834,3.641477,-1
19,M,0,1,50,1,1,199,3,3564,0,0.1376705,6.355215,1.191405,-1
19,M,0,1,50,2,2,197,1,1120,0,0.5032551,12.25075,2.322711,-1
19,M,0,1,50,3,1,198,2,2509,1,0.2209868,6.416569,1.863721,-1
19,M,0,1,50,4,2,200,4,7431,1,0.5334212,12.5096,2.377429,-1
19,M,0,1,50,5,2,198,2,1309,0,0.9075429,12.45052,4.088255,-1
19,M,0,1,50,6,1,197,1,2531,1,0.1231129,6.184462,1.088045,-1
19,M,0,1,50,7,1,200,4,2742,0,0.5117655,6.643325,4.132233,-1
19,M,0,1,50,8,2,199,3,2076,0,0.4939348,12.29754,2.264081,-1
19,M,0,1,51,1,1,202,2,2053,0,0.4814874,6.435782,4.069386,-1
19,M,0,1,51,2,1,203,3,2453,0,0.1805666,6.329043,1.573958,-1
19,M,0,1,51,3,1,201,1,1542,0,0.3501867,6.183099,3.139246,-1
19,M,0,1,51,4,2,203,3,1564,0,0.9410077,12.29203,4.36471,-1
19,M,0,1,51,5,2,201,1,1676,1,0.6602079,12.24071,3.051398,-1
19,M,0,1,51,6,1,204,4,2054,0,0.3733608,6.651673,3.029636,-1
19,M,0,1,51,7,2,202,2,1387,0,0.9645731,12.44535,4.346228,-1
19,M,0,1,51,8,2,204,4,1353,0,0.280405,12.5144,1.25117,-1
19,M,0,1,52,1,1,205,1,1776,0,0.2238345,6.19348,1.974371,-1
19,M,0,1,52,2,1,208,4,3819,3,0.3796124,6.655987,3.095349,-1
19,M,0,1,52,3,2,207,3,1231,0,0.2467183,12.3034,1.128306,-1
19,M,0,1,52,4,2,206,2,1176,0,0.06914253,12.45886,0.3109043,-1
19,M,0,1,52,5,1,207,3,7776,0,0.4493163,6.335745,3.862191,-1
19,M,0,1,52,6,1,206,2,1098,0,0.2673166,6.444899,2.242365,-1
19,M,0,1,52,7,2,208,4,2631,0,0.828206,12.50885,3.686102,-1
19,M,0,1,52,8,2,205,1,1509,0,0.6530359,12.24146,3.031122,-1
19,M,0,1,53,1,2,210,2,1231,0,0.2869484,12.45436,1.287704,-1
19,M,0,1,53,2,1,211,3,1764,0,0.1155017,6.346756,1.000538,-1
19,M,0,1,53,3,1,210,2,998,0,0.1611214,6.44627,1.358547,-1
19,M,0,1,53,4,1,209,1,1142,0,0.1799752,6.201571,1.595323,-1
19,M,0,1,53,5,2,212,4,3431,0,0.7696715,12.51097,3.464302,-1
19,M,0,1,53,6,2,209,1,6909,0,0.7081655,12.26757,3.232769,-1
19,M,0,1,53,7,1,212,4,3531,1,0.2956887,6.64682,2.453118,-1
19,M,0,1,53,8,2,211,3,1187,0,0.08832499,12.30611,0.4020255,-1
19,M,0,1,54,1,2,213,1,1520,0,0.8104816,12.24699,3.764888,-1
19,M,0,1,54,2,2,214,2,1564,1,0.3857325,12.46498,1.726351,-1
19,M,0,1,54,3,1,215,3,2231,0,0.2251393,6.346964,1.955747,-1
19,M,0,1,54,4,1,213,1,1542,0,8.062634E-08,6.206052,0,-1
19,M,0,1,54,5,1,214,2,1254,0,0.5247554,6.44127,4.432305,-1
19,M,0,1,54,6,2,216,4,3420,0,0.8759454,12.5131,3.957205,-1
19,M,0,1,54,7,2,215,3,1998,0,0.2892345,12.30725,1.322934,-1
19,M,0,1,54,8,1,216,4,1798,0,0.04372628,6.679977,0.3577275,-1
19,M,0,1,55,1,2,219,3,1787,0,0.364185,12.31169,1.667535,-1
19,M,0,1,55,2,2,217,1,1753,0,0.5368786,12.26432,2.476544,-1
19,M,0,1,55,3,2,220,4,1265,0,0.4579847,12.53196,2.035574,-1
19,M,0,1,55,4,2,218,2,1898,1,0.3476349,12.44479,1.574952,-1
19,M,0,1,55,5,1,217,1,3476,1,1.100663E-07,6.189986,0,-1
19,M,0,1,55,6,1,218,2,1387,0,0.02363409,6.448363,0.2007689,-1
19,M,0,1,55,7,1,220,4,1953,0,0.2615124,6.650341,2.148127,-1
19,M,0,1,55,8,1,219,3,2531,0,0.1275238,6.345613,1.105884,-1
19,M,0,1,56,1,2,221,1,1576,0,0.7790346,12.25165,3.616767,-1
19,M,0,1,56,2,1,222,2,1353,0,0.3969792,6.42448,3.359113,-1
19,M,0,1,56,3,1,224,4,2742,0,0.5469776,6.658432,4.482968,-1
19,M,0,1,56,4,1,223,3,2276,0,0.03232603,6.346725,0.2797648,-1
19,M,0,1,56,5,2,224,4,2131,0,0.2837754,12.5292,1.264704,-1
19,M,0,1,56,6,2,222,2,1131,0,0.5722576,12.4542,2.562237,-1
19,M,0,1,56,7,1,221,1,3176,0,0.2102638,6.211094,1.831949,-1
19,M,0,1,56,8,2,223,3,1542,0,0.3060068,12.30663,1.390861,-1
19,M,0,1,57,1,4,225,1,1109,0,0.004902625,12.29764,0.02797646,-1
19,M,0,1,57,2,4,227,3,1242,0,0.0376076,12.34846,0.1701742,-1
19,M,0,1,57,3,3,226,2,1842,0,0.1768415,6.47959,1.488721,-1
19,M,0,1,57,4,4,228,4,2076,0,0.9078654,12.48909,4.033229,-1
19,M,0,1,57,5,4,226,2,576,0,0.8117687,12.45472,3.634103,-1
19,M,0,1,57,6,3,225,1,4353,0,0.229753,6.19757,2.018097,-1
19,M,0,1,57,7,3,228,4,2820,1,0.5179089,6.650831,4.283452,-1
19,M,0,1,57,8,3,227,3,5887,0,0.2135939,6.280674,1.880031,-1
19,M,0,1,58,1,4,230,2,1054,0,0.4298659,12.31821,1.951741,-1
19,M,0,1,58,2,4,232,4,2342,0,0.842289,12.53548,3.750663,-1
19,M,0,1,58,3,4,229,1,1120,0,0.2890109,12.33252,1.316855,-1
19,M,0,1,58,4,4,231,3,2098,0,0.1883224,12.38188,0.8515682,-1
19,M,0,1,58,5,3,229,1,2965,0,2.56301E-08,6.280116,0,-1
19,M,0,1,58,6,3,232,4,3931,4,0.05774767,6.695137,0.4706381,-1
19,M,0,1,58,7,3,231,3,4309,0,3.713754E-08,6.378184,0,-1
19,M,0,1,58,8,3,230,2,842,0,0.3135702,6.525458,2.631803,-1
19,M,0,1,59,1,3,236,4,3742,1,0.1464863,6.710621,1.189925,-1
19,M,0,1,59,2,4,235,3,2242,0,0.03450108,12.38841,0.1582588,-1
19,M,0,1,59,3,4,233,1,787,0,0.080669,12.32685,0.3663747,-1
19,M,0,1,59,4,4,236,4,3053,0,0.06758996,12.54327,0.3019647,-1
19,M,0,1,59,5,4,234,2,698,0,0.3743343,12.47853,1.677248,-1
19,M,0,1,59,6,3,235,3,2020,0,0.2166387,6.36182,1.836536,-1
19,M,0,1,59,7,3,234,2,1076,0,0.2701145,6.514784,2.243935,-1
19,M,0,1,59,8,3,233,1,965,0,0.09060898,6.282278,0.7898148,-1
19,M,0,1,60,1,3,240,4,3398,0,0.298699,6.720385,2.446966,-1
19,M,0,1,60,2,3,238,2,787,0,0.2749433,6.519361,2.280961,-1
19,M,0,1,60,3,4,240,4,1187,0,0.6019537,12.59161,2.665062,-1
19,M,0,1,60,4,3,237,1,4053,0,0.05464793,6.303283,0.4764233,-1
19,M,0,1,60,5,3,239,3,3776,0,2.081755E-07,6.37141,0,-1
19,M,0,1,60,6,4,238,2,1331,1,2.291656E-08,12.50009,0,-1
19,M,0,1,60,7,4,237,1,4353,0,0.7022678,12.37197,3.187947,-1
19,M,0,1,60,8,4,239,3,1920,0,0.5107617,12.40501,2.328938,-1
19,M,0,1,61,1,1,242,2,1120,0,0.3224023,6.547462,2.674373,-1
19,M,0,1,61,2,2,241,1,1176,0,0.7075785,12.34637,3.210772,-1
19,M,0,1,61,3,2,244,4,1487,0,0.6393533,12.58032,2.831514,-1
19,M,0,1,61,4,1,241,1,2053,0,1.435604E-08,6.307805,0,-1
19,M,0,1,61,5,1,243,3,3320,1,0.3326555,6.370243,2.844481,-1
19,M,0,1,61,6,2,242,2,920,0,1.674874E-07,12.55608,0,-1
19,M,0,1,61,7,1,244,4,4953,2,0.4581605,6.681108,3.684242,-1
19,M,0,1,61,8,2,243,3,1464,0,0.9140122,12.33923,4.219094,-1
19,M,0,1,62,1,2,245,1,4953,0,0.09986552,12.28654,0.456712,-1
19,M,0,1,62,2,1,248,4,4498,0,0.3874956,6.733095,3.102866,-1
19,M,0,1,62,3,1,246,2,1009,0,0.2913666,6.449881,2.455192,-1
19,M,0,1,62,4,2,247,3,1275,0,0.2767161,12.35641,1.263001,-1
19,M,0,1,62,5,2,248,4,2620,0,0.03647098,12.58006,0.1631294,-1
19,M,0,1,62,6,2,246,2,1031,0,0.6923637,12.47844,3.114139,-1
19,M,0,1,62,7,1,245,1,1542,0,3.342047E-08,6.214669,0,-1
19,M,0,1,62,8,1,247,3,3164,0,8.337154E-08,6.42083,0,-1
19,M,0,1,1,1,7,3,3,4430,0,2.153809,6.436001,18.42196,-1
19,M,0,1,1,2,8,4,4,4231,0,7.127608,12.61555,34.05416,-1
19,M,0,1,1,3,6,2,2,4431,0,1.873746,12.44651,8.616801,-1
19,M,0,1,1,4,5,3,3,3065,0,0.7486588,6.450064,6.447619,-1
19,M,0,1,1,5,6,4,4,1053,0,1.703537,12.59615,7.555385,-1
19,M,0,1,1,6,6,1,1,2498,0,2.660946,12.25992,12.49744,-1
19,M,0,1,1,7,7,2,2,3964,0,5.176599,6.422689,53.7056,-1
19,M,0,1,1,8,5,4,4,2153,0,2.571613,6.793941,21.19013,-1
19,M,0,1,1,9,5,1,1,2142,0,2.88049,6.186604,27.74914,-1
19,M,0,1,1,10,8,2,2,2520,0,3.710425,12.42388,17.10482,-1
19,M,0,1,1,11,7,4,4,742,0,4.473572,6.812124,38.85352,-1
19,M,0,1,1,12,8,3,3,1564,0,1.546947,12.35641,7.148911,-1
19,M,0,1,1,13,5,2,2,2153,0,2.147498,6.386745,18.57977,-1
19,M,0,1,1,14,7,1,1,4276,0,3.620847,6.180755,35.86136,-1
19,M,0,1,1,15,6,3,3,898,0,2.205306,12.36434,10.06486,-1
19,M,0,1,1,16,8,1,1,1619,0,6.698923,12.27226,33.08337,-1
19,M,0,1,2,1,5,4,4,2453,0,4.124262,6.815624,35.3122,-1
19,M,0,1,2,2,5,3,3,976,0,2.511717,6.475898,21.65656,-1
19,M,0,1,2,3,8,2,2,1076,0,6.313446,12.45659,30.29246,-1
19,M,0,1,2,4,7,3,3,942,0,3.902438,6.479527,37.0328,-1
19,M,0,1,2,5,6,4,4,1076,0,3.752517,12.59383,16.86066,-1
19,M,0,1,2,6,5,2,2,2398,0,1.517279,6.375887,13.03081,-1
19,M,0,1,2,7,7,4,4,1987,0,5.5178,6.832749,53.85744,-1
19,M,0,1,2,8,6,3,3,2009,0,3.791349,12.36294,17.8587,-1
19,M,0,1,2,9,8,1,1,1254,0,2.321123,12.25767,10.86296,-1
19,M,0,1,2,10,6,2,2,1253,0,4.500062,12.43636,21.21369,-1
19,M,0,1,2,11,6,1,1,1164,0,3.605242,12.27641,17.00005,-1
19,M,0,1,2,12,8,3,3,776,0,1.225277,12.35504,5.558976,-1
19,M,0,1,2,13,7,2,2,1242,0,2.649362,6.396964,23.10972,-1
19,M,0,1,2,14,7,1,1,1220,0,3.123637,6.179393,30.36406,-1
19,M,0,1,2,15,8,4,4,1065,0,4.589445,12.61965,21.32603,-1
19,M,0,1,2,16,5,1,1,1009,0,3.068215,6.165062,29.84649,-1
