Age, Gender, Awareness Type, Session, Block, Trial, Set, Pattern, Quadrant, Response Time, Num Mistakes, Distance From Target, Camera Distance From Target, Angle Error (Degrees), FC Response
18,F,0,1,1,1,2,1,1,5531,1,0.8204122,12.31091,3.714782,-1
18,F,0,1,1,2,2,3,3,5220,0,0.3648384,12.19572,1.669412,-1
18,F,0,1,1,3,2,4,4,9999,2,-1,-1,-1,-1
18,F,0,1,1,4,1,2,2,3953,1,0.4240358,6.539744,3.54525,-1
18,F,0,1,1,5,1,4,4,4998,0,0.3248426,6.480209,2.704867,-1
18,F,0,1,1,6,2,2,2,2609,0,0.8353265,12.40962,3.756505,-1
18,F,0,1,1,7,1,3,3,3720,0,8.505458E-08,6.136347,0,-1
18,F,0,1,1,8,1,1,1,2209,0,0.1079891,6.271892,0.9437756,-1
18,F,0,1,2,1,1,8,4,9999,3,-1,-1,-1,-1
18,F,0,1,2,2,1,5,1,3209,0,0.08702338,6.268312,0.7610474,-1
18,F,0,1,2,3,2,6,2,2154,0,0.6648103,12.41652,2.985112,-1
18,F,0,1,2,4,2,7,3,9999,2,-1,-1,-1,-1
18,F,0,1,2,5,1,6,2,7364,3,0.05586238,6.526456,0.4689721,-1
18,F,0,1,2,6,2,5,1,2998,0,0.0336658,12.2854,0.1557664,-1
18,F,0,1,2,7,2,8,4,3364,0,0.2320014,12.36738,1.047358,-1
18,F,0,1,2,8,1,7,3,4876,0,0.1264955,6.131939,1.126917,-1
18,F,0,1,3,1,2,12,4,2965,0,0.5856023,12.36078,2.645971,-1
18,F,0,1,3,2,1,11,3,2898,0,0.1615358,6.152785,1.433814,-1
18,F,0,1,3,3,2,9,1,2509,0,0.5609292,12.27445,2.557266,-1
18,F,0,1,3,4,2,11,3,2787,0,0.3435669,12.20385,1.572466,-1
18,F,0,1,3,5,1,10,2,4420,1,0.3990842,6.521915,3.325313,-1
18,F,0,1,3,6,1,9,1,2698,0,0.4085321,6.236551,3.579984,-1
18,F,0,1,3,7,1,12,4,5764,1,1.29043E-07,6.509697,0,-1
18,F,0,1,3,8,2,10,2,1753,0,0.5234065,12.39193,2.365875,-1
18,F,0,1,4,1,2,16,4,4031,0,0.9443691,12.38375,4.310253,-1
18,F,0,1,4,2,2,14,2,1687,0,0.8461521,12.39135,3.868473,-1
18,F,0,1,4,3,1,13,1,4520,1,0.3088195,6.232695,2.707109,-1
18,F,0,1,4,4,1,14,2,3109,0,0.1496307,6.534274,1.248665,-1
18,F,0,1,4,5,1,16,4,3220,0,0.4867205,6.499485,4.081159,-1
18,F,0,1,4,6,2,15,3,2898,0,1.002373,12.20307,4.662746,-1
18,F,0,1,4,7,2,13,1,3531,1,9.777981E-08,12.27688,0,-1
18,F,0,1,4,8,1,15,3,3742,0,0.06172415,6.166094,0.5475121,-1
18,F,0,1,5,1,1,20,4,2531,0,0.3216771,6.5181,2.698926,-1
18,F,0,1,5,2,2,18,2,2087,0,0.3183285,12.40786,1.437494,-1
18,F,0,1,5,3,2,17,1,3875,1,0.237843,12.27543,1.085524,-1
18,F,0,1,5,4,1,19,3,3364,0,1.322329E-07,6.165105,0.01978234,-1
18,F,0,1,5,5,2,20,4,5464,0,0.3554287,12.43098,1.614103,-1
18,F,0,1,5,6,1,17,1,2731,0,0.3853948,6.295141,3.346792,-1
18,F,0,1,5,7,1,18,2,3242,0,0.2261244,6.571527,1.88076,-1
18,F,0,1,5,8,2,19,3,3564,0,0.02837338,12.25424,0.1297215,-1
18,F,0,1,6,1,2,21,1,2687,0,0.7359326,12.31888,3.337243,-1
18,F,0,1,6,2,1,24,4,3053,0,0.3955208,6.541997,3.272434,-1
18,F,0,1,6,3,2,23,3,3876,0,0.3740582,12.24941,1.721924,-1
18,F,0,1,6,4,1,22,2,2653,0,0.124983,6.566871,1.041738,-1
18,F,0,1,6,5,2,24,4,3453,0,0.08424725,12.41894,0.3820612,-1
18,F,0,1,6,6,2,22,2,2076,0,0.214195,12.4404,0.9707584,-1
18,F,0,1,6,7,1,23,3,2653,0,0.05347632,6.207181,0.4735395,-1
18,F,0,1,6,8,1,21,1,2009,0,0.1137373,6.289934,0.9915005,-1
18,F,0,1,7,1,1,26,2,3064,0,0.06035487,6.56845,0.5035778,-1
18,F,0,1,7,2,2,27,3,2842,0,0.1094689,12.24994,0.5039662,-1
18,F,0,1,7,3,1,25,1,3209,1,0.2965408,6.281835,2.574811,-1
18,F,0,1,7,4,2,26,2,1987,0,0.8846212,12.43791,3.969706,-1
18,F,0,1,7,5,1,28,4,5020,1,5.176768E-08,6.548902,0,-1
18,F,0,1,7,6,1,27,3,3242,0,0.08640248,6.214199,0.760533,-1
18,F,0,1,7,7,2,25,1,6253,0,0.8621886,12.32734,3.936367,-1
18,F,0,1,7,8,2,28,4,4231,0,2.924195E-07,12.43884,0,-1
18,F,0,1,8,1,2,31,3,4053,0,0.457398,12.26529,2.095084,-1
18,F,0,1,8,2,2,32,4,3364,0,9.468531E-08,12.4362,0,-1
18,F,0,1,8,3,2,30,2,2342,0,0.189493,12.44248,0.8538629,-1
18,F,0,1,8,4,1,29,1,2865,0,0.2055526,6.288313,1.787175,-1
18,F,0,1,8,5,1,32,4,5009,0,0.4680528,6.547403,3.859706,-1
18,F,0,1,8,6,1,30,2,2765,0,0.1605424,6.56676,1.335888,-1
18,F,0,1,8,7,2,29,1,2520,0,0.4225365,12.32664,1.916425,-1
18,F,0,1,8,8,1,31,3,2909,0,0.3536279,6.220663,3.103938,-1
18,F,0,1,9,1,2,33,1,2031,0,0.3586304,12.33576,1.634465,-1
18,F,0,1,9,2,1,36,4,3664,0,0.4172186,6.544063,3.46978,-1
18,F,0,1,9,3,1,34,2,4120,1,0.3364218,6.559969,2.799392,-1
18,F,0,1,9,4,2,35,3,2876,0,0.05798173,12.26256,0.2661444,-1
18,F,0,1,9,5,2,34,2,2164,0,0.6642345,12.42744,2.982094,-1
18,F,0,1,9,6,2,36,4,2687,0,0.6355772,12.42682,2.857115,-1
18,F,0,1,9,7,1,35,3,3120,0,0.158053,6.215381,1.38903,-1
18,F,0,1,9,8,1,33,1,1909,0,0.252269,6.279559,2.193834,-1
18,F,0,1,10,1,2,38,2,1820,0,0.4050128,12.43087,1.82467,-1
18,F,0,1,10,2,1,40,4,4131,1,0.4255458,6.543485,3.497544,-1
18,F,0,1,10,3,1,39,3,2720,0,1.836487E-07,6.207053,0,-1
18,F,0,1,10,4,2,37,1,1876,0,0.5466107,12.31383,2.502724,-1
18,F,0,1,10,5,2,40,4,3009,0,0.6962941,12.4314,3.135315,-1
18,F,0,1,10,6,2,39,3,3076,0,0.4189404,12.25897,1.906083,-1
18,F,0,1,10,7,1,37,1,2431,0,0.2957986,6.283942,2.572453,-1
18,F,0,1,10,8,1,38,2,2276,0,0.5125871,6.551345,4.279151,-1
18,F,0,1,11,1,1,43,3,3331,0,0.03235974,6.207139,0.2866737,-1
18,F,0,1,11,2,1,42,2,7653,2,0.5313575,6.539149,4.409444,-1
18,F,0,1,11,3,2,44,4,4198,0,0.7125981,12.42563,3.206073,-1
18,F,0,1,11,4,2,41,1,3009,0,0.2458522,12.30597,1.119426,-1
18,F,0,1,11,5,2,43,3,3598,0,0.2790685,12.24372,1.280083,-1
18,F,0,1,11,6,1,44,4,4498,1,0.5446842,6.543498,4.53151,-1
18,F,0,1,11,7,1,41,1,6164,0,0.08663516,6.268275,0.7641266,-1
18,F,0,1,11,8,2,42,2,2375,0,0.1716066,12.43284,0.774302,-1
18,F,0,1,12,1,1,47,3,3753,0,1.502213E-08,6.203882,0,-1
18,F,0,1,12,2,1,48,4,6498,1,0.436514,6.536749,3.590142,-1
18,F,0,1,12,3,2,46,2,1987,0,0.3335599,12.43424,1.500113,-1
18,F,0,1,12,4,2,48,4,4342,1,0.6045497,12.42999,2.722036,-1
18,F,0,1,12,5,1,46,2,2820,0,0.4817627,6.550527,4.0219,-1
18,F,0,1,12,6,1,45,1,5420,0,8.653885E-08,6.268026,0,-1
18,F,0,1,12,7,2,47,3,3520,0,0.2532596,12.25043,1.164661,-1
18,F,0,1,12,8,2,45,1,2520,0,0.4514302,12.30636,2.050423,-1
18,F,0,1,13,1,2,51,3,3698,0,0.4583312,12.25018,2.087504,-1
18,F,0,1,13,2,1,50,2,2276,0,0.2367854,6.59329,1.953444,-1
18,F,0,1,13,3,2,52,4,2953,0,1.840337E-07,12.45786,0,-1
18,F,0,1,13,4,2,49,1,1731,0,0.4944728,12.34016,2.251772,-1
18,F,0,1,13,5,1,51,3,3009,0,0.477789,6.231042,4.180904,-1
18,F,0,1,13,6,1,49,1,1875,0,0.2930403,6.298154,2.542913,-1
18,F,0,1,13,7,2,50,2,9999,0,-1,-1,-1,-1
18,F,0,1,13,8,1,52,4,4898,0,0.3712845,6.555975,3.096234,-1
18,F,0,1,14,1,2,53,1,3109,0,0.078486,12.3157,0.3588198,-1
18,F,0,1,14,2,2,56,4,3153,0,0.09998102,12.4341,0.4498048,-1
18,F,0,1,14,3,1,55,3,3276,0,0.328649,6.230431,2.877324,-1
18,F,0,1,14,4,1,54,2,2987,0,0.1843912,6.57171,1.539895,-1
18,F,0,1,14,5,1,53,1,2153,0,0.2041874,6.282846,1.782899,-1
18,F,0,1,14,6,2,55,3,2353,0,0.2509616,12.26231,1.144834,-1
18,F,0,1,14,7,2,54,2,2076,0,9.409385E-08,12.42496,0,-1
18,F,0,1,14,8,1,56,4,3609,0,0.284527,6.545332,2.386549,-1
18,F,0,1,15,1,2,58,2,1975,0,0.3314203,12.43378,1.509606,-1
18,F,0,1,15,2,1,57,1,1964,0,0.4951802,6.287536,4.31484,-1
18,F,0,1,15,3,1,58,2,1764,0,0.491124,6.558164,4.095577,-1
18,F,0,1,15,4,2,60,4,3520,0,0.2378814,12.42438,1.082455,-1
18,F,0,1,15,5,2,59,3,3675,0,0.04689594,12.25199,0.2148914,-1
18,F,0,1,15,6,2,57,1,5164,0,0.9713416,12.32461,4.485938,-1
18,F,0,1,15,7,1,60,4,3475,0,0.5344549,6.550067,4.422307,-1
18,F,0,1,15,8,1,59,3,2931,0,0.01094457,6.21911,0.09691329,-1
18,F,0,1,16,1,2,64,4,3075,0,0.3496993,12.4324,1.583009,-1
18,F,0,1,16,2,2,61,1,1953,0,8.802847E-08,12.33553,0,-1
18,F,0,1,16,3,1,64,4,2697,0,0.3292174,6.548267,2.707616,-1
18,F,0,1,16,4,1,63,3,3764,0,0.1028628,6.226183,0.9035233,-1
18,F,0,1,16,5,1,62,2,1931,0,0.4020335,6.565698,3.341113,-1
18,F,0,1,16,6,2,63,3,4320,0,0.9631326,12.25272,4.450211,-1
18,F,0,1,16,7,2,62,2,1820,0,0.3684536,12.43946,1.655876,-1
18,F,0,1,16,8,1,61,1,6909,0,0.2564825,6.292214,2.227477,-1
18,F,0,1,17,1,3,68,4,3753,0,0.09482692,6.61968,0.7903101,-1
18,F,0,1,17,2,4,66,2,1553,0,0.785676,12.48661,3.511678,-1
18,F,0,1,17,3,3,67,3,3420,0,0.1013414,6.242218,0.892629,-1
18,F,0,1,17,4,4,65,1,2831,0,0.168648,12.34708,0.7687222,-1
18,F,0,1,17,5,4,67,3,3265,0,3.617072E-08,12.30961,0,-1
18,F,0,1,17,6,3,66,2,2276,0,0.2293934,6.626914,1.88948,-1
18,F,0,1,17,7,3,65,1,2420,0,0.1734897,6.311441,1.509477,-1
18,F,0,1,17,8,4,68,4,3520,0,0.5574396,12.46657,2.497949,-1
18,F,0,1,18,1,4,71,3,2442,0,0.119776,12.31167,0.5457222,-1
18,F,0,1,18,2,4,72,4,3198,0,1.020343,12.45892,4.602876,-1
18,F,0,1,18,3,4,69,1,2064,0,0.4040792,12.38245,1.853719,-1
18,F,0,1,18,4,3,72,4,2798,0,0.3227478,6.587978,2.638934,-1
18,F,0,1,18,5,3,69,1,2242,0,0.1665076,6.308484,1.444826,-1
18,F,0,1,18,6,3,70,2,2253,0,0.0905266,6.621271,0.7517344,-1
18,F,0,1,18,7,3,71,3,2631,0,0.1069571,6.254096,0.9356545,-1
18,F,0,1,18,8,4,70,2,1820,0,0.3511698,12.48506,1.575822,-1
18,F,0,1,19,1,4,75,3,2153,0,0.04280558,12.2955,0.1968319,-1
18,F,0,1,19,2,4,76,4,2298,0,0.1373223,12.49233,0.6148488,-1
18,F,0,1,19,3,3,73,1,4776,0,0.2714547,6.307037,2.354264,-1
18,F,0,1,19,4,3,75,3,3609,0,0.1428023,6.261179,1.252577,-1
18,F,0,1,19,5,4,73,1,1953,0,0.4185621,12.35943,1.892172,-1
18,F,0,1,19,6,3,74,2,2487,0,0.005825786,6.61304,0.04423466,-1
18,F,0,1,19,7,3,76,4,2520,0,0.1900921,6.599682,1.559845,-1
18,F,0,1,19,8,4,74,2,3464,0,0.7716158,12.46658,3.445772,-1
18,F,0,1,20,1,3,80,4,2498,0,0.3405509,6.611212,2.788463,-1
18,F,0,1,20,2,4,79,3,3953,0,0.2330331,12.30535,1.065694,-1
18,F,0,1,20,3,4,78,2,1764,0,0.3085862,12.47255,1.384939,-1
18,F,0,1,20,4,3,77,1,2320,0,0.2394812,6.32206,2.070276,-1
18,F,0,1,20,5,3,78,2,4120,0,0.04625171,6.646406,0.382573,-1
18,F,0,1,20,6,4,77,1,2087,0,0.8580629,12.34971,3.899982,-1
18,F,0,1,20,7,3,79,3,3643,0,0.1459297,6.24384,1.269954,-1
18,F,0,1,20,8,4,80,4,2209,0,0.5041618,12.48647,2.259754,-1
18,F,0,1,20,1,2,79,3,2453,0,4.880036E-08,12.3022,0,-1
18,F,0,1,20,2,2,80,4,3809,0,0.1454549,12.48594,0.6540186,-1
18,F,0,1,20,3,1,78,2,2342,0,0.234627,6.614625,1.939569,-1
18,F,0,1,20,4,2,77,1,2142,0,0.5604802,12.35247,2.543298,-1
18,F,0,1,20,5,1,79,3,4620,0,2.049327E-07,6.244512,0,-1
18,F,0,1,20,6,1,77,1,2053,0,0.2738858,6.303159,2.417594,-1
18,F,0,1,20,7,1,80,4,2542,0,0.2382059,6.588178,1.954847,-1
18,F,0,1,20,8,2,78,2,1898,0,0.4378763,12.48224,1.964832,-1
18,F,0,1,21,1,1,83,3,2742,0,0.1134456,6.250412,0.9926839,-1
18,F,0,1,21,2,1,81,1,2242,0,0.3946312,6.32405,3.411911,-1
18,F,0,1,21,3,2,82,2,1665,0,0.5286114,12.48956,2.375864,-1
18,F,0,1,21,4,1,84,4,3264,0,0.4359703,6.591279,3.590742,-1
18,F,0,1,21,5,2,81,1,1909,0,2.855929E-08,12.35881,0,-1
18,F,0,1,21,6,2,84,4,2720,0,0.03828222,12.47229,0.1724585,-1
18,F,0,1,21,7,2,83,3,2220,0,0.05651075,12.29693,0.2586879,-1
18,F,0,1,21,8,1,82,2,3142,0,0.004897559,6.626687,0.03426402,-1
18,F,0,1,22,1,2,85,1,1920,0,0.6271803,12.36561,2.848126,-1
18,F,0,1,22,2,1,88,4,2687,0,0.03933765,6.601565,0.3256589,-1
18,F,0,1,22,3,2,86,2,2131,0,0.3589576,12.48548,1.606447,-1
18,F,0,1,22,4,1,85,1,2198,0,0.2784979,6.326438,2.406152,-1
18,F,0,1,22,5,1,87,3,2520,0,9.424215E-08,6.238154,0,-1
18,F,0,1,22,6,2,88,4,2387,0,0.1141948,12.48216,0.5112901,-1
18,F,0,1,22,7,1,86,2,1965,0,0.2148786,6.62011,1.781801,-1
18,F,0,1,22,8,2,87,3,2753,0,0.05200422,12.29599,0.2365626,-1
18,F,0,1,23,1,1,90,2,3609,0,0.3529336,6.602758,2.922886,-1
18,F,0,1,23,2,1,89,1,5564,0,4.28329E-08,6.316997,0,-1
18,F,0,1,23,3,2,91,3,3209,0,0.061353,12.30731,0.2797648,-1
18,F,0,1,23,4,1,92,4,3031,0,0.1310579,6.597878,1.083901,-1
18,F,0,1,23,5,1,91,3,2865,0,0.1739923,6.258353,1.519297,-1
18,F,0,1,23,6,2,92,4,2420,0,0.09835763,12.48489,0.4410186,-1
18,F,0,1,23,7,2,89,1,2987,0,0.2956388,12.37012,1.339399,-1
18,F,0,1,23,8,2,90,2,2097,0,0.5665188,12.50124,2.56674,-1
18,F,0,1,24,1,2,95,3,2420,0,2.277714E-07,12.30844,0,-1
18,F,0,1,24,2,1,93,1,2931,0,0.1671335,6.319378,1.449694,-1
18,F,0,1,24,3,1,96,4,2820,0,0.2231519,6.598465,1.843874,-1
18,F,0,1,24,4,2,93,1,1942,0,0.6539963,12.37125,2.95108,-1
18,F,0,1,24,5,1,94,2,2131,0,0.2879392,6.633989,2.383759,-1
18,F,0,1,24,6,1,95,3,2620,0,0.08840284,6.250134,0.7740492,-1
18,F,0,1,24,7,2,96,4,3053,0,0.03296966,12.48211,0.1480375,-1
18,F,0,1,24,8,2,94,2,2009,0,0.3377822,12.48736,1.524826,-1
18,F,0,1,25,1,1,100,4,1798,0,0.1771916,6.588333,1.457368,-1
18,F,0,1,25,2,1,98,2,2142,0,0.403746,6.61269,3.339355,-1
18,F,0,1,25,3,1,99,3,2531,0,0.0377443,6.249034,0.3310224,-1
18,F,0,1,25,4,2,100,4,2242,0,0.2892663,12.4721,1.29528,-1
18,F,0,1,25,5,2,97,1,2109,0,0.6587763,12.35886,2.974469,-1
18,F,0,1,25,6,2,99,3,2442,0,8.175707E-08,12.30308,0,-1
18,F,0,1,25,7,2,98,2,1876,0,0.219619,12.48616,0.9920924,-1
18,F,0,1,25,8,1,97,1,2353,0,0.4994783,6.322565,4.320827,-1
18,F,0,1,26,1,1,102,2,4642,0,0.03277574,6.615391,0.2719625,-1
18,F,0,1,26,2,2,103,3,1920,0,0.2398869,12.31146,1.090201,-1
18,F,0,1,26,3,2,104,4,2309,0,3.086582E-07,12.48648,0,-1
18,F,0,1,26,4,1,101,1,2609,0,0.1769642,6.323557,1.532124,-1
18,F,0,1,26,5,2,102,2,2331,0,0.5345191,12.50217,2.417189,-1
18,F,0,1,26,6,2,101,1,2042,0,0.9592968,12.36544,4.324996,-1
18,F,0,1,26,7,1,103,3,2509,0,0.01695831,6.251506,0.1480375,-1
18,F,0,1,26,8,1,104,4,2031,0,0.1752783,6.603076,1.451987,-1
18,F,0,1,27,1,2,105,1,1676,0,0.6907245,12.35551,3.151197,-1
18,F,0,1,27,2,2,108,4,1620,0,0.6649904,12.46721,2.981963,-1
18,F,0,1,27,3,1,106,2,2720,0,0.07250917,6.610492,0.6010084,-1
18,F,0,1,27,4,1,105,1,3265,0,0.1596579,6.327129,1.386069,-1
18,F,0,1,27,5,1,107,3,2320,0,0.1249123,6.259803,1.091636,-1
18,F,0,1,27,6,2,106,2,3053,0,0.1020781,12.49117,0.4601268,-1
18,F,0,1,27,7,2,107,3,2231,0,0.1451249,12.30319,0.6608641,-1
18,F,0,1,27,8,1,108,4,2576,0,0.4740342,6.606123,3.873987,-1
18,F,0,1,28,1,2,110,2,1942,0,0.6324087,12.50144,2.874057,-1
18,F,0,1,28,2,1,111,3,2520,0,0.303925,6.243854,2.693118,-1
18,F,0,1,28,3,1,109,1,3165,0,1.130864E-07,6.325207,0,-1
18,F,0,1,28,4,2,111,3,3276,0,0.4831279,12.31432,2.186686,-1
18,F,0,1,28,5,1,112,4,2764,0,0.07301717,6.611022,0.6074851,-1
18,F,0,1,28,6,1,110,2,2476,0,0.4566018,6.621453,3.772318,-1
18,F,0,1,28,7,2,109,1,5953,2,1.009509,12.35879,4.551393,-1
18,F,0,1,28,8,2,112,4,2754,0,0.6960997,12.48108,3.117783,-1
18,F,0,1,29,1,2,114,2,9999,2,-1,-1,-1,-1
18,F,0,1,29,2,2,116,4,3064,0,0.6307585,12.5248,2.81376,-1
18,F,0,1,29,3,2,115,3,6653,1,1.030726,12.30297,4.760986,-1
18,F,0,1,29,4,1,116,4,2042,0,0.5421385,6.626268,4.48004,-1
18,F,0,1,29,5,1,113,1,1787,0,0.003642787,6.356334,0.01978234,-1
18,F,0,1,29,6,1,115,3,2553,0,0.1834509,6.269409,1.616647,-1
18,F,0,1,29,7,1,114,2,2242,0,0.07780574,6.660003,0.6398023,-1
18,F,0,1,29,8,2,113,1,1776,0,0.05852335,12.39099,0.2654082,-1
18,F,0,1,30,1,1,118,2,2476,0,0.2607802,6.66076,2.150313,-1
18,F,0,1,30,2,2,119,3,1998,0,0.1557762,12.32941,0.7107937,-1
18,F,0,1,30,3,2,117,1,2365,0,0.4798884,12.38694,2.170966,-1
18,F,0,1,30,4,2,118,2,2031,0,0.7764861,12.52667,3.467014,-1
18,F,0,1,30,5,2,120,4,2731,0,0.1704985,12.51964,0.7625886,-1
18,F,0,1,30,6,1,119,3,1753,0,0.2342707,6.288674,2.025067,-1
18,F,0,1,30,7,1,120,4,1887,0,0.2075731,6.631691,1.712465,-1
18,F,0,1,30,8,1,117,1,1698,0,1.293261E-07,6.345591,0,-1
18,F,0,1,31,1,2,122,2,1342,0,0.9264302,12.51556,4.13247,-1
18,F,0,1,31,2,1,123,3,2520,0,0.08587414,6.31373,0.7420408,-1
18,F,0,1,31,3,1,121,1,2209,0,0.1029045,6.37208,0.8864697,-1
18,F,0,1,31,4,2,123,3,2187,0,0.4071978,12.25975,1.875445,-1
18,F,0,1,31,5,1,124,4,1909,0,0.3465115,6.593727,2.87024,-1
18,F,0,1,31,6,2,121,1,1798,0,0.2191087,12.33941,0.9950465,-1
18,F,0,1,31,7,1,122,2,2698,0,0.4251603,6.593612,3.524868,-1
18,F,0,1,31,8,2,124,4,1909,0,0.6981108,12.46443,3.130503,-1
18,F,0,1,32,1,2,126,2,2009,0,0.5421924,12.45889,2.430433,-1
18,F,0,1,32,2,2,128,4,4053,0,0.004412318,12.49675,0.01978234,-1
18,F,0,1,32,3,1,125,1,1853,0,1.253763E-07,6.307147,0,-1
18,F,0,1,32,4,1,128,4,3176,1,0.1182429,6.611374,0.971967,-1
18,F,0,1,32,5,2,127,3,1887,0,0.002883272,12.30183,0.01978234,-1
18,F,0,1,32,6,2,125,1,1787,0,0.2883782,12.35922,1.306861,-1
18,F,0,1,32,7,1,126,2,2298,0,0.0004084994,6.628552,0,-1
18,F,0,1,32,8,1,127,3,2964,0,7.261148E-08,6.258729,0,-1
18,F,0,1,33,1,1,129,1,2642,0,0.007941081,6.253007,0.06852804,-1
18,F,0,1,33,2,2,130,2,1487,0,0.2352796,12.46314,1.059802,-1
18,F,0,1,33,3,1,132,4,2187,0,0.2541887,6.630174,2.073393,-1
18,F,0,1,33,4,2,131,3,1798,0,0.3384835,12.28616,1.537352,-1
18,F,0,1,33,5,1,130,2,2209,0,0.5651017,6.615131,4.674285,-1
18,F,0,1,33,6,1,131,3,2065,0,0.1113183,6.225183,0.9729732,-1
18,F,0,1,33,7,2,129,1,2198,0,0.05471915,12.31813,0.249446,-1
18,F,0,1,33,8,2,132,4,2287,0,0.7037399,12.48093,3.1507,-1
18,F,0,1,34,1,2,133,1,2142,0,0.6847985,12.31131,3.134128,-1
18,F,0,1,34,2,2,134,2,1631,0,0.4484795,12.47733,2.023327,-1
18,F,0,1,34,3,2,135,3,2231,0,0.3450109,12.28917,1.56748,-1
18,F,0,1,34,4,2,136,4,2254,0,0.07358304,12.49019,0.3304307,-1
18,F,0,1,34,5,1,133,1,2165,0,3.603528E-08,6.256184,0,-1
18,F,0,1,34,6,1,135,3,2120,0,1.649715E-07,6.21599,0,-1
18,F,0,1,34,7,1,136,4,1876,0,0.3702756,6.643426,3.050884,-1
18,F,0,1,34,8,1,134,2,2776,0,0.3075838,6.619553,2.531109,-1
18,F,0,1,35,1,2,137,1,1876,0,0.6969269,12.31126,3.163721,-1
18,F,0,1,35,2,2,140,4,2909,0,0.01199179,12.48687,0.05233916,-1
18,F,0,1,35,3,1,139,3,3620,0,0.04101116,6.21795,0.3620769,-1
18,F,0,1,35,4,1,137,1,2187,0,0.05434455,6.253937,0.4776538,-1
18,F,0,1,35,5,2,138,2,9999,0,-1,-1,-1,-1
18,F,0,1,35,6,2,139,3,2009,0,0.09858442,12.27222,0.4502396,-1
18,F,0,1,35,7,1,138,2,2320,0,0.01569337,6.617059,0.1297215,-1
18,F,0,1,35,8,1,140,4,2376,0,0.06053218,6.63119,0.4973219,-1
18,F,0,1,37,1,3,146,2,2598,0,0.09176805,6.634432,0.7607903,-1
18,F,0,1,37,2,3,148,4,2631,0,0.3972175,6.622969,3.237489,-1
18,F,0,1,37,3,4,146,2,1642,0,0.08872693,12.47577,0.3995845,-1
18,F,0,1,37,4,3,145,1,2020,0,3.254986E-08,6.253619,0,-1
18,F,0,1,37,5,4,148,4,2642,0,3.040353E-07,12.48322,0,-1
18,F,0,1,37,6,4,147,3,2431,0,1.046195E-07,12.27829,0,-1
18,F,0,1,37,7,4,145,1,1931,0,0.4796088,12.30996,2.176008,-1
18,F,0,1,37,8,3,147,3,2009,0,7.283076E-08,6.218692,0,-1
18,F,0,1,38,1,3,152,4,3453,0,0.1108027,6.680034,0.9093519,-1
18,F,0,1,38,2,3,151,3,2631,0,9.635357E-08,6.207532,0,-1
18,F,0,1,38,3,4,149,1,1842,0,0.598288,12.31198,2.722036,-1
18,F,0,1,38,4,3,150,2,3131,0,0.01062379,6.644902,0.08622923,-1
18,F,0,1,38,5,4,152,4,2798,0,0.8684884,12.46489,3.894304,-1
18,F,0,1,38,6,4,150,2,2042,0,0.6278467,12.47427,2.835521,-1
18,F,0,1,38,7,3,149,1,4787,0,0.1964465,6.22845,1.74854,-1
18,F,0,1,38,8,4,151,3,2187,0,0.06476316,12.27345,0.2973941,-1
18,F,0,1,39,1,4,154,2,2131,0,0.9362468,12.48674,4.260023,-1
18,F,0,1,39,2,3,156,4,1942,0,0.1830023,6.621066,1.502199,-1
18,F,0,1,39,3,3,155,3,2087,0,0.303308,6.208664,2.659106,-1
18,F,0,1,39,4,4,153,1,2265,0,0.3688615,12.30013,1.685047,-1
18,F,0,1,39,5,4,155,3,3476,0,0.179397,12.31364,0.8151737,-1
18,F,0,1,39,6,4,156,4,2165,0,0.03331574,12.50412,0.1493534,-1
18,F,0,1,39,7,3,154,2,2298,0,1.5787E-08,6.615822,0,-1
18,F,0,1,39,8,3,153,1,2176,0,0.4002666,6.289255,3.451222,-1
18,F,0,1,40,1,3,158,2,2442,0,6.815259E-08,6.637582,0,-1
18,F,0,1,40,2,3,157,1,1765,0,0.3159605,6.309905,2.747659,-1
18,F,0,1,40,3,4,159,3,7609,1,0.136005,12.28988,0.6233823,-1
18,F,0,1,40,4,3,160,4,5198,0,1.338548E-07,6.648037,0,-1
18,F,0,1,40,5,3,159,3,2498,0,0.2253856,6.277621,1.961942,-1
18,F,0,1,40,6,4,157,1,1898,0,0.0732158,12.35601,0.3333784,-1
18,F,0,1,40,7,4,158,2,3187,1,0.1407223,12.51633,0.6339648,-1
18,F,0,1,40,8,4,160,4,4109,0,0.4381105,12.50904,1.956447,-1
18,F,0,1,41,1,2,161,1,2431,0,0.7553847,12.21763,3.44952,-1
18,F,0,1,41,2,1,163,3,2820,0,1.686644E-07,6.129042,0,-1
18,F,0,1,41,3,1,164,4,2154,0,0.1935568,6.465759,1.621965,-1
18,F,0,1,41,4,2,163,3,2287,0,0.05360558,12.16943,0.2462884,-1
18,F,0,1,41,5,1,161,1,1698,0,7.596508E-09,6.185603,0,-1
18,F,0,1,41,6,1,162,2,2776,0,0.228475,6.460135,1.92925,-1
18,F,0,1,41,7,2,164,4,2209,0,0.9362115,12.33348,4.259701,-1
18,F,0,1,41,8,2,162,2,1787,0,0.4241628,12.33263,1.92996,-1
18,F,0,1,42,1,1,167,3,2487,0,3.997616E-08,6.14411,0,-1
18,F,0,1,42,2,2,166,2,1742,0,9.076446E-08,12.33822,0,-1
18,F,0,1,42,3,2,167,3,1687,0,0.459666,12.17548,2.134692,-1
18,F,0,1,42,4,2,165,1,1787,0,0.5234932,12.22399,2.407453,-1
18,F,0,1,42,5,1,168,4,1887,0,0.02966794,6.489116,0.25101,-1
18,F,0,1,42,6,1,166,2,1865,0,0.151591,6.478442,1.283747,-1
18,F,0,1,42,7,1,165,1,2253,0,0.1880816,6.173173,1.667418,-1
18,F,0,1,42,8,2,168,4,2765,0,0.4058124,12.33671,1.850972,-1
18,F,0,1,43,1,1,169,1,2120,0,0.199549,6.171172,1.766579,-1
18,F,0,1,43,2,2,172,4,2642,0,0.2667189,12.34684,1.221252,-1
18,F,0,1,43,3,2,170,2,1820,0,0.1431803,12.33046,0.6540186,-1
18,F,0,1,43,4,1,171,3,3687,0,0.07275645,6.135914,0.6501176,-1
18,F,0,1,43,5,1,172,4,2731,0,0.3188557,6.471463,2.662343,-1
18,F,0,1,43,6,1,170,2,1831,0,0.05801516,6.464553,0.4913847,-1
18,F,0,1,43,7,2,169,1,1831,0,0.4504918,12.2133,2.0681,-1
18,F,0,1,43,8,2,171,3,2176,0,0.1964609,12.1708,0.912574,-1
18,F,0,1,44,1,1,176,4,2109,0,0.2561836,6.477297,2.140186,-1
18,F,0,1,44,2,1,175,3,2598,0,0.1206576,6.133391,1.081732,-1
18,F,0,1,44,3,1,174,2,2231,0,0.08150973,6.467745,0.6921035,-1
18,F,0,1,44,4,2,176,4,2131,0,0.5681611,12.35607,2.568341,-1
18,F,0,1,44,5,2,173,1,5142,3,0.3462057,12.21148,1.586096,-1
18,F,0,1,44,6,2,175,3,2676,0,0.2760539,12.17782,1.278401,-1
18,F,0,1,44,7,2,174,2,2109,0,0.6208922,12.34382,2.854579,-1
18,F,0,1,44,8,1,173,1,2520,0,0.3442511,6.184221,3.046775,-1
18,F,0,1,45,1,1,179,3,2098,0,3.021569E-08,6.11954,0,-1
18,F,0,1,45,2,1,178,2,2354,0,0.1164568,6.43845,0.9873473,-1
18,F,0,1,45,3,1,177,1,1787,0,0.3830919,6.168845,3.391826,-1
18,F,0,1,45,4,2,180,4,2897,0,0.7262675,12.32372,3.327902,-1
18,F,0,1,45,5,2,178,2,1531,0,0.5001539,12.31941,2.303503,-1
18,F,0,1,45,6,2,177,1,1909,0,0.8469964,12.20769,3.875604,-1
18,F,0,1,45,7,1,180,4,1753,0,0.01757037,6.470036,0.1493534,-1
18,F,0,1,45,8,2,179,3,3542,0,0.3441901,12.16737,1.57756,-1
18,F,0,1,46,1,2,182,2,1887,0,0.627987,12.32424,2.878412,-1
18,F,0,1,46,2,1,181,1,2275,0,6.173886E-08,6.167985,0,-1
18,F,0,1,46,3,2,183,3,2343,0,0.1732852,12.16395,0.8018627,-1
18,F,0,1,46,4,1,184,4,1876,0,1.541926E-07,6.477287,0,-1
18,F,0,1,46,5,1,183,3,2253,0,6.392069E-08,6.132475,0,-1
18,F,0,1,46,6,1,182,2,1709,0,4.338318E-08,6.458127,0.01978234,-1
18,F,0,1,46,7,2,181,1,1765,0,0.4987794,12.19893,2.285504,-1
18,F,0,1,46,8,2,184,4,2087,0,0.7715296,12.33608,3.539667,-1
18,F,0,1,47,1,2,187,3,2053,0,0.05878644,12.16411,0.2712421,-1
18,F,0,1,47,2,2,188,4,2720,0,0.4325128,12.34374,1.971197,-1
18,F,0,1,47,3,2,185,1,1898,0,0.3221701,12.20161,1.480416,-1
18,F,0,1,47,4,1,187,3,2642,0,0.01335382,6.128883,0.1186941,-1
18,F,0,1,47,5,2,186,2,1920,0,0.506016,12.32822,2.325321,-1
18,F,0,1,47,6,1,188,4,1787,0,0.02829032,6.480829,0.2390311,-1
18,F,0,1,47,7,1,186,2,2909,0,0.07308106,6.460688,0.6243232,-1
18,F,0,1,47,8,1,185,1,1909,0,0.1300113,6.171813,1.153009,-1
18,F,0,1,48,1,2,190,2,3642,1,0.5205687,12.32337,2.398657,-1
18,F,0,1,48,2,1,192,4,2398,0,0.07170194,6.476574,0.605226,-1
18,F,0,1,48,3,1,189,1,2042,0,0.127013,6.161927,1.128132,-1
18,F,0,1,48,4,2,191,3,2376,0,2.726459E-07,12.14828,0,-1
18,F,0,1,48,5,2,189,1,1909,0,0.1648308,12.19861,0.7576976,-1
18,F,0,1,48,6,1,190,2,2753,0,0.177487,6.463455,1.505972,-1
18,F,0,1,48,7,1,191,3,3219,0,0.03445165,6.12747,0.3083766,-1
18,F,0,1,48,8,2,192,4,2431,0,0.01990066,12.34587,0.09065409,-1
18,F,0,1,49,1,1,193,1,1764,0,0.2034508,6.198024,1.794387,-1
18,F,0,1,49,2,2,196,4,1542,0,0.01066583,12.36499,0.04845664,-1
18,F,0,1,49,3,2,194,2,1520,0,0.3484481,12.3505,1.580782,-1
18,F,0,1,49,4,1,196,4,1520,0,1.765951E-07,6.479551,0,-1
18,F,0,1,49,5,1,194,2,1531,0,0.2012235,6.469944,1.698811,-1
18,F,0,1,49,6,2,195,3,1620,0,0.1784445,12.17737,0.8277984,-1
18,F,0,1,49,7,2,193,1,1253,0,0.2647359,12.22808,1.21273,-1
18,F,0,1,49,8,1,195,3,2431,0,0.422567,6.157077,3.738688,-1
18,F,0,1,50,1,2,200,4,1698,0,0.4397652,12.35942,1.989578,-1
18,F,0,1,50,2,1,197,1,2098,0,0.2728517,6.192501,2.406233,-1
18,F,0,1,50,3,1,198,2,2976,0,0.1849155,6.46049,1.563229,-1
18,F,0,1,50,4,2,197,1,1576,0,0.9647479,12.21646,4.400329,-1
18,F,0,1,50,5,1,199,3,1587,0,0.1749528,6.141601,1.553938,-1
18,F,0,1,50,6,2,198,2,1553,0,1.708358E-07,12.33458,0,-1
18,F,0,1,50,7,1,200,4,1876,0,0.5057639,6.480083,4.261678,-1
18,F,0,1,50,8,2,199,3,1520,0,0.1311013,12.18365,0.6039315,-1
18,F,0,1,51,1,2,202,2,1587,0,0.254284,12.33154,1.155552,-1
18,F,0,1,51,2,2,204,4,1498,0,0.2836104,12.35316,1.298449,-1
18,F,0,1,51,3,2,203,3,1687,0,1.00555E-07,12.17452,0,-1
18,F,0,1,51,4,1,204,4,1731,0,0.4112426,6.488915,3.467127,-1
18,F,0,1,51,5,2,201,1,1964,0,0.1013535,12.21985,0.464781,-1
18,F,0,1,51,6,1,203,3,1653,0,0.08376537,6.140572,0.745461,-1
18,F,0,1,51,7,1,202,2,2342,0,2.530412E-07,6.470331,0,-1
18,F,0,1,51,8,1,201,1,2098,0,0.4009153,6.184593,3.53607,-1
18,F,0,1,52,1,1,208,4,2364,0,0.298671,6.491054,2.485222,-1
18,F,0,1,52,2,1,206,2,2553,0,0.1883848,6.468415,1.590655,-1
18,F,0,1,52,3,2,207,3,1631,0,0.1595984,12.17918,0.7354187,-1
18,F,0,1,52,4,2,206,2,1609,0,0.03996916,12.34009,0.1813082,-1
18,F,0,1,52,5,2,208,4,2020,0,0.6445435,12.36843,2.911075,-1
18,F,0,1,52,6,2,205,1,1553,0,0.8045671,12.23174,3.66789,-1
18,F,0,1,52,7,1,207,3,2409,0,0.3867498,6.161385,3.419649,-1
18,F,0,1,52,8,1,205,1,2931,1,0.1648366,6.187993,1.456428,-1
18,F,0,1,53,1,1,211,3,3131,1,0.3577317,6.260593,3.120168,-1
18,F,0,1,53,2,1,210,2,2265,0,0.09059697,6.668768,0.7501709,-1
18,F,0,1,53,3,2,212,4,1698,0,3.476113E-08,12.53249,0.01978234,-1
18,F,0,1,53,4,1,209,1,1720,0,0.4806109,6.307557,4.181419,-1
18,F,0,1,53,5,1,212,4,1553,0,3.613242E-08,6.685288,0,-1
18,F,0,1,53,6,2,211,3,1420,0,0.22154,12.32357,1.009688,-1
18,F,0,1,53,7,2,210,2,1754,0,0.6121831,12.50734,2.781504,-1
18,F,0,1,53,8,2,209,1,1698,0,0.7686617,12.35312,3.477839,-1
18,F,0,1,54,1,1,214,2,2642,0,0.2639816,6.65972,2.179873,-1
18,F,0,1,54,2,2,213,1,3965,2,0.1162845,12.34284,0.53008,-1
18,F,0,1,54,3,1,216,4,1576,0,1.472924E-07,6.666751,0.01978234,-1
18,F,0,1,54,4,2,214,2,1853,0,0.07882074,12.50735,0.3538778,-1
18,F,0,1,54,5,2,216,4,2254,0,0.2319701,12.53767,1.03571,-1
18,F,0,1,54,6,2,215,3,1765,0,0.6460537,12.33643,2.922283,-1
18,F,0,1,54,7,1,213,1,1887,0,0.4273006,6.298176,3.708134,-1
18,F,0,1,54,8,1,215,3,2365,0,0.1785239,6.276598,1.555448,-1
18,F,0,1,55,1,1,218,2,2231,0,0.1981249,6.675522,1.630629,-1
18,F,0,1,55,2,2,219,3,1787,0,0.6400611,12.33287,2.91987,-1
18,F,0,1,55,3,1,220,4,1987,0,7.064642E-08,6.68922,0,-1
18,F,0,1,55,4,2,217,1,1731,0,0.5995584,12.35995,2.710361,-1
18,F,0,1,55,5,2,220,4,2253,0,0.2568131,12.53089,1.145005,-1
18,F,0,1,55,6,1,219,3,2287,0,0.2090922,6.280801,1.819945,-1
18,F,0,1,55,7,2,218,2,1764,0,0.1563787,12.52624,0.7008132,-1
18,F,0,1,55,8,1,217,1,2020,0,0.1153655,6.299471,1.006971,-1
18,F,0,1,56,1,1,224,4,1676,0,8.867709E-08,6.682799,0,-1
18,F,0,1,56,2,2,222,2,1631,0,7.957396E-08,12.51713,0,-1
18,F,0,1,56,3,1,221,1,1542,0,0.1910643,6.293892,1.661422,-1
18,F,0,1,56,4,2,224,4,1987,0,0.004616784,12.5323,0,-1
18,F,0,1,56,5,1,223,3,3098,0,2.13762E-07,6.280554,0,-1
18,F,0,1,56,6,2,221,1,1620,0,0.1598411,12.35996,0.7287365,-1
18,F,0,1,56,7,2,223,3,1942,0,0.4284354,12.32782,1.953044,-1
18,F,0,1,56,8,1,222,2,1709,0,0.102145,6.667729,0.8386015,-1
18,F,0,1,57,1,4,227,3,2120,0,0.8227904,12.1667,3.769359,-1
18,F,0,1,57,2,4,225,1,2564,0,0.6460062,12.20602,2.999766,-1
18,F,0,1,57,3,4,228,4,1265,0,0.2990278,12.3591,1.353641,-1
18,F,0,1,57,4,4,226,2,1709,0,4.066977E-08,12.33072,0,-1
18,F,0,1,57,5,3,227,3,1865,0,0.07919788,6.142655,0.7044336,-1
18,F,0,1,57,6,3,226,2,1965,0,0.1702043,6.462044,1.444826,-1
18,F,0,1,57,7,3,225,1,1520,0,0.3475814,6.167507,3.067523,-1
18,F,0,1,57,8,3,228,4,1709,0,0.2828054,6.481167,2.381952,-1
18,F,0,1,58,1,3,230,2,1431,0,8.207407E-08,6.470101,0,-1
18,F,0,1,58,2,3,231,3,1431,0,0.08262899,6.155252,0.7346201,-1
18,F,0,1,58,3,3,229,1,1554,0,5.31146E-08,6.180974,0,-1
18,F,0,1,58,4,4,232,4,2142,0,0.5008906,12.34779,2.278986,-1
18,F,0,1,58,5,4,230,2,2098,0,0.01704773,12.3237,0.07401875,-1
18,F,0,1,58,6,4,231,3,1720,0,1.608153E-07,12.18746,0,-1
18,F,0,1,58,7,4,229,1,1565,0,1.803808E-07,12.20277,0,-1
18,F,0,1,58,8,3,232,4,2431,0,0.06990182,6.492515,0.5861744,-1
18,F,0,1,59,1,3,234,2,1731,0,0.3800843,6.454004,3.202529,-1
18,F,0,1,59,2,3,235,3,1765,0,0.3182061,6.170386,2.813899,-1
18,F,0,1,59,3,3,233,1,1231,0,0.0572639,6.17932,0.5082192,-1
18,F,0,1,59,4,4,236,4,1731,0,0.1707297,12.3742,0.7730374,-1
18,F,0,1,59,5,4,235,3,2631,0,0.4693106,12.1831,2.163289,-1
18,F,0,1,59,6,4,233,1,1565,0,0.2801405,12.217,1.2874,-1
18,F,0,1,59,7,4,234,2,3576,0,0.2206812,12.34321,1.002101,-1
18,F,0,1,59,8,3,236,4,2531,0,0.159633,6.500246,1.332074,-1
18,F,0,1,60,1,3,239,3,1865,0,0.06072142,6.155378,0.5388666,-1
18,F,0,1,60,2,4,238,2,1565,0,1.893894E-07,12.33869,0,-1
18,F,0,1,60,3,3,240,4,1531,0,0.06778581,6.491439,0.5685511,-1
18,F,0,1,60,4,3,238,2,1742,0,0.2890574,6.480118,2.430191,-1
18,F,0,1,60,5,3,237,1,1642,0,0.1086357,6.187345,0.9616448,-1
18,F,0,1,60,6,4,239,3,2620,0,0.6108083,12.19259,2.833311,-1
18,F,0,1,60,7,4,240,4,1642,0,0.1243535,12.38153,0.5612772,-1
18,F,0,1,60,8,4,237,1,1576,0,0.1871951,12.23734,0.8607104,-1
18,F,0,1,61,1,2,244,4,1720,0,0.9219915,12.33711,4.176404,-1
18,F,0,1,61,2,2,241,1,1298,0,0.04776704,12.2043,0.220287,-1
18,F,0,1,61,3,2,242,2,1353,0,0.1953978,12.32071,0.8888945,-1
18,F,0,1,61,4,1,243,3,1965,0,1.892946E-07,6.124928,0,-1
18,F,0,1,61,5,1,242,2,1765,0,1.376941E-07,6.453696,0,-1
18,F,0,1,61,6,1,244,4,1820,0,1.769622E-07,6.480406,0,-1
18,F,0,1,61,7,2,243,3,2120,0,0.1116268,12.15219,0.5154827,-1
18,F,0,1,61,8,1,241,1,1665,0,0.2812232,6.17933,2.491672,-1
18,F,0,1,62,1,2,248,4,1965,0,0.1412732,12.34799,0.6452838,-1
18,F,0,1,62,2,1,245,1,1531,0,0.0233863,6.175334,0.2093567,-1
18,F,0,1,62,3,2,247,3,1653,0,0.3555762,12.168,1.650312,-1
18,F,0,1,62,4,1,246,2,1554,0,0.1758765,6.462436,1.485694,-1
18,F,0,1,62,5,1,248,4,1442,0,0.4483457,6.471404,3.768579,-1
18,F,0,1,62,6,1,247,3,2042,0,0.09077333,6.127259,0.8182884,-1
18,F,0,1,62,7,2,245,1,1231,0,0.1547084,12.20394,0.7113441,-1
18,F,0,1,62,8,2,246,2,1520,0,0.1669268,12.32837,0.7631016,-1
18,F,0,1,1,1,7,1,1,9819,0,0.7035476,6.083054,6.266351,-1
18,F,0,1,1,2,7,2,2,19797,0,1.581401,6.479196,13.3968,-1
18,F,0,1,1,3,8,3,3,10642,0,2.641808,12.21471,12.26842,-1
18,F,0,1,1,4,8,1,1,6898,0,6.275455,12.25495,30.76388,-1
18,F,0,1,1,5,8,2,2,14031,0,0.1154012,12.39629,0.5245137,-1
18,F,0,1,1,6,8,4,4,12086,0,5.285906,12.43689,25.00069,-1
18,F,0,1,1,7,5,2,2,5209,0,5.884219,6.510898,64.65534,-1
18,F,0,1,1,8,7,4,4,10209,0,2.327223,6.565656,19.85861,-1
18,F,0,1,1,9,6,1,1,13698,0,0.8932782,12.2777,4.13891,-1
18,F,0,1,1,10,5,3,3,6164,0,2.391836,6.253576,21.64818,-1
18,F,0,1,1,11,6,2,2,4042,0,3.506796,12.39286,16.43749,-1
18,F,0,1,1,12,5,1,1,15497,0,3.365696,6.257848,32.53645,-1
18,F,0,1,1,13,6,3,3,4298,0,0.4435871,12.26011,2.046123,-1
18,F,0,1,1,14,5,4,4,7064,0,4.241036,6.570662,40.19944,-1
18,F,0,1,1,15,7,3,3,5087,0,1.534894,6.257296,13.56451,-1
18,F,0,1,1,16,6,4,4,4376,0,1.285374,12.45209,5.774754,-1
18,F,0,1,2,1,6,2,2,4042,0,3.18526,12.41196,14.74724,-1
18,F,0,1,2,2,7,4,4,5253,0,2.273284,6.591296,19.3029,-1
18,F,0,1,2,3,7,2,2,5120,0,2.265294,6.536408,19.21552,-1
18,F,0,1,2,4,8,4,4,5353,0,7.774456,12.48919,38.49853,-1
18,F,0,1,2,5,8,2,2,5620,0,3.472496,12.42564,16.14201,-1
18,F,0,1,2,6,8,3,3,4864,0,2.387383,12.24692,10.93785,-1
18,F,0,1,2,7,8,1,1,4853,0,0.1392122,12.29133,0.635814,-1
18,F,0,1,2,8,6,3,3,7387,0,0.35028,12.28272,1.592499,-1
18,F,0,1,2,9,6,4,4,3598,0,0.6869653,12.48057,3.075617,-1
18,F,0,1,2,10,5,1,1,4942,0,4.301438E-08,6.267909,0,-1
18,F,0,1,2,11,7,3,3,5531,0,3.193092,6.28125,30.21006,-1
18,F,0,1,2,12,6,1,1,3887,0,7.695548,12.32501,38.51484,-1
18,F,0,1,2,13,5,2,2,2653,0,0.6442308,6.586484,5.309285,-1
18,F,0,1,2,14,7,1,1,4464,0,1.428982,6.276141,12.45185,-1
18,F,0,1,2,15,5,4,4,3498,0,2.502493,6.609937,21.19736,-1
18,F,0,1,2,16,5,3,3,3809,0,0.1571307,6.254436,1.364153,-1
