Age, Gender, Awareness Type, Session, Block, Trial, Set, Pattern, Quadrant, Response Time, Num Mistakes, Distance From Target, Camera Distance From Target, Angle Error (Degrees), FC Response
18,M,0,1,1,1,2,4,4,5598,0,1.028914,12.38587,4.7352,-1
18,M,0,1,1,2,2,2,2,3320,0,0.3385381,12.40352,1.528031,-1
18,M,0,1,1,3,1,3,3,2075,0,7.073219E-08,6.208158,0,-1
18,M,0,1,1,4,2,1,1,3953,0,0.3883641,12.32228,1.771004,-1
18,M,0,1,1,5,1,4,4,1842,0,0.3970467,6.454318,3.30322,-1
18,M,0,1,1,6,1,1,1,2175,0,0.04362426,6.41178,0.3743001,-1
18,M,0,1,1,7,2,3,3,1542,0,0.8212427,12.19886,3.76416,-1
18,M,0,1,1,8,1,2,2,2931,0,0.2123085,6.486729,1.779823,-1
18,M,0,1,2,1,2,5,1,2098,0,0.5146056,12.32234,2.351269,-1
18,M,0,1,2,2,1,8,4,1798,0,0.3679255,6.452919,3.111623,-1
18,M,0,1,2,3,2,7,3,1842,0,0.8310497,12.19587,3.788582,-1
18,M,0,1,2,4,2,6,2,3087,1,0.8836184,12.39319,4.05415,-1
18,M,0,1,2,5,1,5,1,5598,2,0.220203,6.394829,1.882528,-1
18,M,0,1,2,6,1,7,3,2053,0,0.09086975,6.194104,0.7935224,-1
18,M,0,1,2,7,2,8,4,4342,2,1.008531,12.36977,4.529002,-1
18,M,0,1,2,8,1,6,2,5153,3,0.01649259,6.467865,0.1398823,-1
18,M,0,1,3,1,1,11,3,2409,1,0.3609401,6.200343,3.167308,-1
18,M,0,1,3,2,2,10,2,3531,1,0.2301466,12.38445,1.038352,-1
18,M,0,1,3,3,1,9,1,2953,0,1.27012E-07,6.391925,0,-1
18,M,0,1,3,4,1,10,2,3564,1,0.09210322,6.468862,0.7758168,-1
18,M,0,1,3,5,1,12,4,3164,2,0.1360616,6.451275,1.136772,-1
18,M,0,1,3,6,2,11,3,2542,0,0.8901702,12.18991,4.055696,-1
18,M,0,1,3,7,2,9,1,1908,0,0.03784962,12.30818,0.1724585,-1
18,M,0,1,3,8,2,12,4,2832,1,0.3644971,12.36505,1.639963,-1
18,M,0,1,4,1,2,14,2,2254,0,0.5865571,12.38132,2.63975,-1
18,M,0,1,4,2,2,13,1,2109,0,0.1538303,12.30473,0.7033216,-1
18,M,0,1,4,3,2,16,4,5898,0,0.307094,12.36266,1.385645,-1
18,M,0,1,4,4,1,15,3,2887,0,0.4904319,6.190009,4.264572,-1
18,M,0,1,4,5,1,16,4,3976,4,0.1877289,6.451097,1.571968,-1
18,M,0,1,4,6,2,15,3,1598,0,0.1421607,12.18401,0.6555129,-1
18,M,0,1,4,7,1,13,1,2054,0,0.4384839,6.385646,3.792508,-1
18,M,0,1,4,8,1,14,2,2576,1,0.07078715,6.470169,0.5964329,-1
18,M,0,1,5,1,1,20,4,1764,0,0.04946012,6.45969,0.4177785,-1
18,M,0,1,5,2,2,18,2,1987,1,0.6772687,12.40023,3.045426,-1
18,M,0,1,5,3,1,19,3,3942,0,0.371444,6.201462,3.21388,-1
18,M,0,1,5,4,1,17,1,2142,0,0.2589286,6.397038,2.20549,-1
18,M,0,1,5,5,1,18,2,1887,0,0.4832765,6.471651,4.051058,-1
18,M,0,1,5,6,2,19,3,1153,0,0.9580785,12.20989,4.356805,-1
18,M,0,1,5,7,2,20,4,2576,0,0.8287795,12.36105,3.723101,-1
18,M,0,1,5,8,2,17,1,1520,0,0.192186,12.31964,0.8753631,-1
18,M,0,1,6,1,1,24,4,2976,2,0.09376986,6.458021,0.7870849,-1
18,M,0,1,6,2,2,21,1,1576,0,2.027786E-07,12.31416,0,-1
18,M,0,1,6,3,2,22,2,1276,0,0.06632381,12.38985,0.2993615,-1
18,M,0,1,6,4,1,21,1,1898,1,0.1563236,6.397878,1.328249,-1
18,M,0,1,6,5,1,23,3,4031,0,0.4658837,6.198245,4.052315,-1
18,M,0,1,6,6,2,24,4,1898,0,0.9476818,12.36837,4.255653,-1
18,M,0,1,6,7,2,23,3,1453,0,0.4125452,12.19756,1.884917,-1
18,M,0,1,6,8,1,22,2,2342,0,0.3415272,6.47392,2.865872,-1
18,M,0,1,7,1,2,28,4,1431,0,0.4850491,12.36537,2.180052,-1
18,M,0,1,7,2,2,27,3,1365,0,0.8440268,12.19377,3.850004,-1
18,M,0,1,7,3,2,26,2,1231,0,4.896921E-08,12.39477,0,-1
18,M,0,1,7,4,1,25,1,2187,1,0.4585639,6.394692,3.901739,-1
18,M,0,1,7,5,1,27,3,2642,0,0.4098359,6.201848,3.570455,-1
18,M,0,1,7,6,2,25,1,1287,0,0.3023233,12.30983,1.378708,-1
18,M,0,1,7,7,1,26,2,1687,0,0.3884004,6.487666,3.214732,-1
18,M,0,1,7,8,1,28,4,2853,1,0.4842274,6.438073,4.110279,-1
18,M,0,1,8,1,2,29,1,4076,0,5.662809E-08,12.31247,0,-1
18,M,0,1,8,2,2,32,4,4698,0,0.3971996,12.36643,1.79144,-1
18,M,0,1,8,3,2,31,3,1676,0,0.8294985,12.18503,3.780925,-1
18,M,0,1,8,4,2,30,2,2743,1,0.9514765,12.38291,4.267006,-1
18,M,0,1,8,5,1,31,3,3153,2,0.3248334,6.18888,2.902455,-1
18,M,0,1,8,6,1,29,1,3298,2,0.5355302,6.372846,4.571876,-1
18,M,0,1,8,7,1,30,2,1665,0,0.2833054,6.46095,2.383184,-1
18,M,0,1,8,8,1,32,4,2687,0,0.2592208,6.43666,2.196687,-1
18,M,0,1,9,1,2,34,2,1320,0,0.7068759,12.38082,3.1794,-1
18,M,0,1,9,2,2,35,3,1997,1,0.7432094,12.18909,3.392345,-1
18,M,0,1,9,3,1,36,4,3442,1,0.4596071,6.440051,3.900233,-1
18,M,0,1,9,4,1,33,1,2697,0,0.4894198,6.389738,4.166921,-1
18,M,0,1,9,5,1,35,3,3353,2,0.4365227,6.189413,3.784808,-1
18,M,0,1,9,6,2,36,4,1520,0,0.3823116,12.35213,1.723855,-1
18,M,0,1,9,7,1,34,2,1976,0,0.05440835,6.465052,0.4571402,-1
18,M,0,1,9,8,2,33,1,2442,0,0.5821946,12.28937,2.692973,-1
18,M,0,1,10,1,1,39,3,1853,0,0.3538603,6.176786,3.072942,-1
18,M,0,1,10,2,1,40,4,1998,0,0.4658523,6.447908,3.873532,-1
18,M,0,1,10,3,2,38,2,1298,0,0.9351553,12.38945,4.191524,-1
18,M,0,1,10,4,1,37,1,2565,0,0.4909391,6.399674,4.173684,-1
18,M,0,1,10,5,1,38,2,2465,1,4.707289E-08,6.467192,0,-1
18,M,0,1,10,6,2,39,3,2753,2,1.450963E-07,12.18877,0,-1
18,M,0,1,10,7,2,40,4,2487,0,0.03146674,12.38604,0.1440177,-1
18,M,0,1,10,8,2,37,1,1465,0,0.7081711,12.28864,3.276918,-1
18,M,0,1,11,1,2,42,2,1398,0,0.6425529,12.39938,2.886562,-1
18,M,0,1,11,2,1,43,3,4831,2,0.5261356,6.146106,4.7809,-1
18,M,0,1,11,3,2,44,4,6409,0,0.3606021,12.38867,1.643896,-1
18,M,0,1,11,4,2,41,1,1720,0,0.5749691,12.30013,2.651661,-1
18,M,0,1,11,5,2,43,3,1320,0,0.3912475,12.20779,1.787065,-1
18,M,0,1,11,6,1,44,4,3309,0,0.4843397,6.472853,4.090745,-1
18,M,0,1,11,7,1,41,1,2031,0,0.4645591,6.376056,4.013419,-1
18,M,0,1,11,8,1,42,2,4431,3,0.092723,6.468015,0.776825,-1
18,M,0,1,12,1,1,48,4,2831,1,0.4439092,6.442443,3.765408,-1
18,M,0,1,12,2,2,47,3,1442,0,0.837392,12.19802,3.816391,-1
18,M,0,1,12,3,2,46,2,1064,0,0.4127512,12.39052,1.866135,-1
18,M,0,1,12,4,2,48,4,1698,0,0.2278138,12.36313,1.037409,-1
18,M,0,1,12,5,1,47,3,2131,0,0.1446414,6.192899,1.259898,-1
18,M,0,1,12,6,1,45,1,2619,0,0.1178248,6.379695,1.012591,-1
18,M,0,1,12,7,1,46,2,3187,1,0.3154742,6.460835,2.646119,-1
18,M,0,1,12,8,2,45,1,1242,0,0.5500626,12.31354,2.508895,-1
18,M,0,1,13,1,2,51,3,1220,0,0.2795812,12.18857,1.288008,-1
18,M,0,1,13,2,2,49,1,1220,0,0.2883995,12.31208,1.314178,-1
18,M,0,1,13,3,1,52,4,3675,1,1.281461E-07,6.453873,0,-1
18,M,0,1,13,4,2,50,2,1131,0,0.1866632,12.3834,0.8451096,-1
18,M,0,1,13,5,1,51,3,1698,0,0.08490383,6.200897,0.7462481,-1
18,M,0,1,13,6,2,52,4,1431,0,0.1246643,12.33216,0.5675176,-1
18,M,0,1,13,7,1,50,2,3609,0,0.2167685,6.454161,1.826064,-1
18,M,0,1,13,8,1,49,1,3064,2,0.2949818,6.360713,2.550829,-1
18,M,0,1,14,1,2,56,4,1631,0,0.4680762,12.34501,2.109978,-1
18,M,0,1,14,2,1,54,2,2164,0,0.02312148,6.464269,0.1948336,-1
18,M,0,1,14,3,2,53,1,1620,0,0.6211095,12.26874,2.878752,-1
18,M,0,1,14,4,1,55,3,2609,0,0.1036138,6.174314,0.906766,-1
18,M,0,1,14,5,1,53,1,5364,0,2.792605E-07,6.398397,0.01978234,-1
18,M,0,1,14,6,1,56,4,2842,0,0.01285807,6.425619,0.1101434,-1
18,M,0,1,14,7,2,55,3,1342,0,0.9562234,12.15527,4.377659,-1
18,M,0,1,14,8,2,54,2,1242,0,0.262155,12.37636,1.190912,-1
18,M,0,1,15,1,1,60,4,3453,1,8.735879E-08,6.437345,0,-1
18,M,0,1,15,2,2,57,1,1309,0,0.3120429,12.29184,1.431355,-1
18,M,0,1,15,3,2,59,3,1398,0,0.7954341,12.16034,3.634588,-1
18,M,0,1,15,4,1,58,2,3542,0,0.4488213,6.463525,3.802409,-1
18,M,0,1,15,5,1,59,3,2276,0,0.2334451,6.160773,2.031629,-1
18,M,0,1,15,6,1,57,1,3409,1,0.2589687,6.383072,2.206023,-1
18,M,0,1,15,7,2,60,4,1820,0,0.7683684,12.354,3.511344,-1
18,M,0,1,15,8,2,58,2,1087,0,0.2898103,12.37389,1.319973,-1
18,M,0,1,16,1,1,61,1,2553,0,5.458545E-08,6.377453,0,-1
18,M,0,1,16,2,1,62,2,4076,0,0.2252037,6.475264,1.867812,-1
18,M,0,1,16,3,2,63,3,1387,0,0.6829873,12.15727,3.125559,-1
18,M,0,1,16,4,2,64,4,1520,0,0.636609,12.35621,2.865872,-1
18,M,0,1,16,5,2,62,2,1187,0,0.05076852,12.37659,0.2289973,-1
18,M,0,1,16,6,1,63,3,3698,0,0.386207,6.162923,3.412714,-1
18,M,0,1,16,7,1,64,4,1709,0,0.1278673,6.420961,1.080465,-1
18,M,0,1,16,8,2,61,1,1564,1,0.5889767,12.28234,2.690064,-1
18,M,0,1,17,1,3,68,4,1887,0,0.5131049,6.512364,4.308072,-1
18,M,0,1,17,2,3,67,3,3454,0,0.07146863,6.25901,0.6218109,-1
18,M,0,1,17,3,4,65,1,1087,0,0.03275818,12.36263,0.1480375,-1
18,M,0,1,17,4,4,68,4,3631,3,0.2186573,12.48149,0.9801866,-1
18,M,0,1,17,5,3,66,2,3242,0,0.0225639,6.531312,0.1887116,-1
18,M,0,1,17,6,4,67,3,4976,0,7.628179E-08,12.26545,0.01978234,-1
18,M,0,1,17,7,3,65,1,3542,1,0.4430574,6.431499,3.808841,-1
18,M,0,1,17,8,4,66,2,1320,0,0.1791324,12.45343,0.8030819,-1
18,M,0,1,18,1,4,72,4,1398,0,5.076368E-08,12.44913,0,-1
18,M,0,1,18,2,4,70,2,1720,0,0.08535524,12.45347,0.382573,-1
18,M,0,1,18,3,4,71,3,2420,0,6.675909E-08,12.24142,0,-1
18,M,0,1,18,4,3,70,2,2553,1,1.352806E-07,6.526797,0,-1
18,M,0,1,18,5,3,69,1,2664,0,0.1133076,6.455001,0.9594038,-1
18,M,0,1,18,6,3,71,3,2576,0,0.06898335,6.273024,0.598071,-1
18,M,0,1,18,7,3,72,4,3320,2,0.2482637,6.53359,2.059186,-1
18,M,0,1,18,8,4,69,1,3009,2,0.423382,12.35946,1.938358,-1
18,M,0,1,19,1,4,74,2,1420,0,0.4887798,12.45898,2.213639,-1
18,M,0,1,19,2,4,73,1,1631,0,0.088175,12.3671,0.4000739,-1
18,M,0,1,19,3,4,76,4,1576,0,0.5080954,12.4591,2.287559,-1
18,M,0,1,19,4,3,73,1,4376,0,0.1799062,6.441191,1.511938,-1
18,M,0,1,19,5,3,75,3,2542,0,0.007626805,6.260385,0.0656106,-1
18,M,0,1,19,6,3,76,4,3087,0,0.4958498,6.531632,4.129483,-1
18,M,0,1,19,7,3,74,2,3020,1,0.4115777,6.506898,3.447533,-1
18,M,0,1,19,8,4,75,3,5020,1,1.044907,12.25551,4.871581,-1
18,M,0,1,20,1,4,77,1,1865,0,0.1241701,12.37728,0.5640592,-1
18,M,0,1,20,2,3,79,3,2387,0,0.2140006,6.268663,1.854985,-1
18,M,0,1,20,3,3,77,1,2720,0,0.1607536,6.433773,1.371593,-1
18,M,0,1,20,4,3,80,4,3631,0,0.3705228,6.526016,3.103434,-1
18,M,0,1,20,5,3,78,2,2998,1,0.102525,6.519016,0.8561515,-1
18,M,0,1,20,6,4,80,4,2154,0,0.3175581,12.44409,1.441301,-1
18,M,0,1,20,7,4,78,2,1220,0,0.3435517,12.44179,1.547502,-1
18,M,0,1,20,8,4,79,3,1642,0,0.06925378,12.23273,0.3171355,-1
18,M,0,1,20,1,1,78,2,3365,0,0.0005609251,6.524876,0,-1
18,M,0,1,20,2,1,77,1,1665,0,0.512219,6.449453,4.320601,-1
18,M,0,1,20,3,2,78,2,1276,0,0.4251468,12.46807,1.920404,-1
18,M,0,1,20,4,1,79,3,3742,1,0.04281252,6.274556,0.3722032,-1
18,M,0,1,20,5,1,80,4,3065,0,0.09961431,6.529241,0.8277984,-1
18,M,0,1,20,6,2,79,3,1431,0,0.1279435,12.26474,0.583833,-1
18,M,0,1,20,7,2,80,4,1720,0,0.4743736,12.46082,2.15867,-1
18,M,0,1,20,8,2,77,1,2142,0,0.2089865,12.38186,0.9470872,-1
18,M,0,1,21,1,2,83,3,1442,0,0.1162236,12.26412,0.5319225,-1
18,M,0,1,21,2,2,81,1,1442,0,0.4650711,12.38446,2.1071,-1
18,M,0,1,21,3,2,82,2,1487,0,0.5267406,12.48705,2.382445,-1
18,M,0,1,21,4,1,84,4,2842,0,0.1060747,6.526191,0.884702,-1
18,M,0,1,21,5,1,81,1,2520,1,0.1424328,6.445024,1.201382,-1
18,M,0,1,21,6,2,84,4,2465,0,1.527296E-07,12.45952,0,-1
18,M,0,1,21,7,1,83,3,3109,0,0.05150938,6.264311,0.4493696,-1
18,M,0,1,21,8,1,82,2,3331,2,0.3155397,6.533016,2.681901,-1
18,M,0,1,22,1,2,85,1,1231,0,0.05378317,12.37255,0.2430897,-1
18,M,0,1,22,2,1,88,4,2076,0,0.06606925,6.538267,0.5489398,-1
18,M,0,1,22,3,2,86,2,1331,0,0.501748,12.46841,2.270986,-1
18,M,0,1,22,4,1,87,3,1753,0,0.2430391,6.25295,2.140826,-1
18,M,0,1,22,5,2,88,4,2043,0,0.1077014,12.46513,0.4833549,-1
18,M,0,1,22,6,1,86,2,2509,1,0.4258975,6.52875,3.535738,-1
18,M,0,1,22,7,2,87,3,1553,0,2.703416E-08,12.2646,0,-1
18,M,0,1,22,8,1,85,1,3009,1,0.02665659,6.438749,0.2272819,-1
18,M,0,1,23,1,1,90,2,2709,0,0.1130702,6.529734,0.9435682,-1
18,M,0,1,23,2,1,92,4,2964,0,1.796749E-08,6.532896,0,-1
18,M,0,1,23,3,2,90,2,731,0,1.532624E-07,12.46468,0,-1
18,M,0,1,23,4,2,91,3,965,0,0.5209515,12.26778,2.407291,-1
18,M,0,1,23,5,2,89,1,787,0,0.3196014,12.38843,1.454815,-1
18,M,0,1,23,6,1,91,3,2376,0,0.4653095,6.279941,4.041136,-1
18,M,0,1,23,7,1,89,1,3964,2,2.047035E-07,6.443079,0,-1
18,M,0,1,23,8,2,92,4,1042,0,0.211378,12.45904,0.9559301,-1
18,M,0,1,24,1,1,94,2,1842,0,0.09107288,6.529481,0.7602757,-1
18,M,0,1,24,2,2,93,1,954,0,1.828761E-08,12.37956,0,-1
18,M,0,1,24,3,2,95,3,953,0,0.5231237,12.27795,2.381624,-1
18,M,0,1,24,4,2,96,4,1609,0,0.1786512,12.46158,0.8062432,-1
18,M,0,1,24,5,2,94,2,731,0,0.6180642,12.46412,2.779392,-1
18,M,0,1,24,6,1,96,4,1953,0,0.1917824,6.527422,1.588562,-1
18,M,0,1,24,7,1,93,1,1487,0,0.05083576,6.445646,0.4325065,-1
18,M,0,1,24,8,1,95,3,1953,0,0.2365703,6.276109,2.054142,-1
18,M,0,1,25,1,2,98,2,787,0,0.5676111,12.46805,2.530103,-1
18,M,0,1,25,2,1,100,4,2642,0,2.014253E-07,6.530416,0,-1
18,M,0,1,25,3,2,97,1,975,0,0.1011408,12.3816,0.4584226,-1
18,M,0,1,25,4,2,99,3,1176,0,0.754197,12.26876,3.425084,-1
18,M,0,1,25,5,2,100,4,1531,0,0.02152637,12.46358,0.09691329,-1
18,M,0,1,25,6,1,99,3,1598,0,0.4095133,6.278228,3.555397,-1
18,M,0,1,25,7,1,97,1,2042,0,0.4340719,6.446834,3.662815,-1
18,M,0,1,25,8,1,98,2,1875,0,0.1974439,6.527516,1.634225,-1
18,M,0,1,26,1,1,101,1,1753,0,0.3018146,6.439304,2.54891,-1
18,M,0,1,26,2,2,102,2,942,0,5.563891E-08,12.4646,0,-1
18,M,0,1,26,3,1,104,4,2709,0,0.073068,6.528865,0.6084505,-1
18,M,0,1,26,4,1,103,3,1531,0,0.1957644,6.277451,1.699387,-1
18,M,0,1,26,5,2,101,1,3642,1,0.201752,12.38522,0.917919,-1
18,M,0,1,26,6,1,102,2,3631,2,0.3231647,6.533885,2.743167,-1
18,M,0,1,26,7,2,103,3,887,0,0.8732486,12.27554,3.950767,-1
18,M,0,1,26,8,2,104,4,1231,0,0.8541896,12.46227,3.808789,-1
18,M,0,1,27,1,2,105,1,1209,1,0.1687271,12.38016,0.7677034,-1
18,M,0,1,27,2,2,107,3,954,0,0.8974744,12.27636,4.059508,-1
18,M,0,1,27,3,2,106,2,854,0,0.5045906,12.48179,2.290722,-1
18,M,0,1,27,4,1,108,4,2387,0,0.5489771,6.544964,4.722109,-1
18,M,0,1,27,5,1,106,2,1820,0,1.84429E-07,6.526518,0,-1
18,M,0,1,27,6,2,108,4,1264,0,0.09469049,12.45807,0.4261257,-1
18,M,0,1,27,7,1,105,1,2565,1,0.312093,6.438805,2.635742,-1
18,M,0,1,27,8,1,107,3,1931,0,0.2876471,6.287757,2.472351,-1
18,M,0,1,28,1,2,109,1,998,0,0.1714965,12.38491,0.7790887,-1
18,M,0,1,28,2,2,111,3,1198,0,0.02847105,12.27338,0.1297215,-1
18,M,0,1,28,3,2,112,4,1465,0,0.1510058,12.47577,0.6801254,-1
18,M,0,1,28,4,2,110,2,876,0,0.4160078,12.47418,1.885644,-1
18,M,0,1,28,5,1,112,4,2298,0,1.860681E-07,6.537539,0,-1
18,M,0,1,28,6,1,111,3,1676,0,0.1485482,6.273233,1.277788,-1
18,M,0,1,28,7,1,110,2,2609,1,1.448345E-07,6.530951,0,-1
18,M,0,1,28,8,1,109,1,2254,1,0.1659747,6.43254,1.416236,-1
18,M,0,1,29,1,1,114,2,1909,0,0.4260085,6.481237,3.674717,-1
18,M,0,1,29,2,1,116,4,2331,0,0.1250739,6.425333,1.054248,-1
18,M,0,1,29,3,2,114,2,1031,0,0.4783721,12.37864,2.188028,-1
18,M,0,1,29,4,2,113,1,1709,0,0.6884536,12.28867,3.153557,-1
18,M,0,1,29,5,1,115,3,3431,1,0.2829907,6.179258,2.472905,-1
18,M,0,1,29,6,1,113,1,1798,0,0.1976598,6.392386,1.701459,-1
18,M,0,1,29,7,2,116,4,1587,0,0.3609138,12.35874,1.650194,-1
18,M,0,1,29,8,2,115,3,1220,0,1.002189,12.17898,4.599555,-1
18,M,0,1,30,1,2,120,4,2709,2,0.008732551,12.36763,0.03956468,-1
18,M,0,1,30,2,1,118,2,2142,1,1.85026E-07,6.466013,0,-1
18,M,0,1,30,3,2,119,3,1509,1,0.6759045,12.17279,3.086735,-1
18,M,0,1,30,4,1,117,1,2342,0,0.08473164,6.388581,0.7209076,-1
18,M,0,1,30,5,2,118,2,1176,0,3.929718E-08,12.39461,0,-1
18,M,0,1,30,6,2,117,1,1598,0,0.1577943,12.29497,0.7222635,-1
18,M,0,1,30,7,1,119,3,2520,0,0.2741138,6.164505,2.451921,-1
18,M,0,1,30,8,1,120,4,2020,0,0.3452471,6.447729,2.919736,-1
18,M,0,1,31,1,2,122,2,1254,0,0.4980982,12.39089,2.240793,-1
18,M,0,1,31,2,1,124,4,2287,0,0.5003435,6.436682,4.248284,-1
18,M,0,1,31,3,1,121,1,2131,0,0.2134285,6.385453,1.835364,-1
18,M,0,1,31,4,2,123,3,1498,0,0.4241419,12.16959,1.943098,-1
18,M,0,1,31,5,2,124,4,1998,0,0.3193091,12.36958,1.439535,-1
18,M,0,1,31,6,1,122,2,2376,0,0.3021722,6.482161,2.525225,-1
18,M,0,1,31,7,2,121,1,1609,0,0.3656168,12.29369,1.673393,-1
18,M,0,1,31,8,1,123,3,2509,0,0.4177539,6.173206,3.651787,-1
18,M,0,1,32,1,1,128,4,2320,0,0.2327528,6.439019,1.974173,-1
18,M,0,1,32,2,2,127,3,1709,0,0.0609736,12.17195,0.2804634,-1
18,M,0,1,32,3,1,126,2,2631,1,0.03482303,6.470621,0.2940859,-1
18,M,0,1,32,4,2,128,4,2131,0,0.1941543,12.35789,0.8775957,-1
18,M,0,1,32,5,1,125,1,1820,0,0.1905864,6.394674,1.620396,-1
18,M,0,1,32,6,1,127,3,1598,0,0.3326526,6.170028,2.90441,-1
18,M,0,1,32,7,2,126,2,1198,0,0.2667736,12.39021,1.202359,-1
18,M,0,1,32,8,2,125,1,1209,0,0.5443045,12.29684,2.48207,-1
18,M,0,1,33,1,1,131,3,1798,0,0.3502854,6.249904,3.009278,-1
18,M,0,1,33,2,1,130,2,1976,0,0.3976035,6.447248,3.340878,-1
18,M,0,1,33,3,2,132,4,1865,0,0.2078172,12.40464,0.9354453,-1
18,M,0,1,33,4,2,129,1,1787,0,0.3649313,12.32345,1.663658,-1
18,M,0,1,33,5,1,132,4,4187,0,0.3648987,6.502202,3.067778,-1
18,M,0,1,33,6,2,131,3,1220,0,0.7740946,12.22956,3.531527,-1
18,M,0,1,33,7,2,130,2,1165,0,0.2243708,12.40498,1.020675,-1
18,M,0,1,33,8,1,129,1,1909,0,0.008954081,6.364309,0.07661668,-1
18,M,0,1,34,1,2,136,4,2065,0,1.168107E-07,12.4009,0,-1
18,M,0,1,34,2,2,133,1,1687,0,0.753213,12.32951,3.42914,-1
18,M,0,1,34,3,1,135,3,1976,0,0.1551135,6.244375,1.342026,-1
18,M,0,1,34,4,1,134,2,1853,0,0.3620879,6.452796,3.048895,-1
18,M,0,1,34,5,1,136,4,2309,0,1.340114E-07,6.493459,0.01978234,-1
18,M,0,1,34,6,2,134,2,1065,0,0.5908135,12.39538,2.66631,-1
18,M,0,1,34,7,1,133,1,1865,0,0.06802625,6.375531,0.5808088,-1
18,M,0,1,34,8,2,135,3,1076,0,0.815387,12.22009,3.709032,-1
18,M,0,1,35,1,1,140,4,2298,0,0.324356,6.493471,2.729863,-1
18,M,0,1,35,2,2,138,2,1342,0,0.08663974,12.40492,0.3901695,-1
18,M,0,1,35,3,2,139,3,1798,1,0.6771048,12.2306,3.085594,-1
18,M,0,1,35,4,1,137,1,3442,2,0.4576395,6.364808,3.97158,-1
18,M,0,1,35,5,1,139,3,1831,0,0.07561608,6.240117,0.6629335,-1
18,M,0,1,35,6,2,140,4,1420,0,0.5241486,12.41628,2.397269,-1
18,M,0,1,35,7,1,138,2,2553,0,0.2480623,6.466413,2.113685,-1
18,M,0,1,35,8,2,137,1,1487,0,0.7833415,12.31938,3.622339,-1
18,M,0,1,37,1,4,146,2,1087,0,0.1111716,12.3999,0.5008504,-1
18,M,0,1,37,2,3,148,4,2587,0,0.3908069,6.493273,3.2895,-1
18,M,0,1,37,3,3,147,3,3042,1,0.05322518,6.236127,0.4639383,-1
18,M,0,1,37,4,3,145,1,1365,0,0.3372129,6.388348,2.881743,-1
18,M,0,1,37,5,4,148,4,5176,0,0.1952491,12.39714,0.8858072,-1
18,M,0,1,37,6,3,146,2,4631,2,0.1551935,6.386964,1.333102,-1
18,M,0,1,37,7,4,147,3,1642,0,0.5365598,12.14824,2.461243,-1
18,M,0,1,37,8,4,145,1,1287,0,0.8505805,12.21012,3.959234,-1
18,M,0,1,38,1,4,151,3,1476,0,0.5180349,12.11567,2.399636,-1
18,M,0,1,38,2,4,150,2,1709,0,0.7325416,12.30333,3.315584,-1
18,M,0,1,38,3,4,152,4,2531,0,0.936533,12.32207,4.221043,-1
18,M,0,1,38,4,3,151,3,2298,0,0.1414565,6.217616,1.239384,-1
18,M,0,1,38,5,4,149,1,1397,0,0.2950501,12.22879,1.358691,-1
18,M,0,1,38,6,3,150,2,2298,0,0.4182625,6.368448,3.55793,-1
18,M,0,1,38,7,3,152,4,3109,2,0.3730459,6.485421,3.1912,-1
18,M,0,1,38,8,3,149,1,2476,0,0.2297773,6.305825,1.983075,-1
18,M,0,1,39,1,4,154,2,1565,0,0.2758175,12.32983,1.258966,-1
18,M,0,1,39,2,4,156,4,2031,0,9.469662E-08,12.36217,0,-1
18,M,0,1,39,3,3,153,1,2965,0,0.1405858,6.310888,1.20496,-1
18,M,0,1,39,4,4,155,3,1598,0,0.5596015,12.14439,2.586643,-1
18,M,0,1,39,5,3,156,4,1898,0,0.3140914,6.495222,2.638489,-1
18,M,0,1,39,6,3,155,3,2443,0,0.4771835,6.217828,4.174153,-1
18,M,0,1,39,7,4,153,1,1876,0,0.4166688,12.27439,1.903823,-1
18,M,0,1,39,8,3,154,2,3442,0,0.2050094,6.40799,1.739001,-1
18,M,0,1,40,1,3,159,3,2542,0,0.106789,6.228123,0.9358636,-1
18,M,0,1,40,2,4,157,1,1676,0,1.019424,12.24172,4.752049,-1
18,M,0,1,40,3,4,160,4,1431,0,0.296561,12.37482,1.333835,-1
18,M,0,1,40,4,3,157,1,2798,0,7.2477E-08,6.339822,0,-1
18,M,0,1,40,5,3,160,4,2642,1,0.05719619,6.496923,0.4776538,-1
18,M,0,1,40,6,4,158,2,1765,0,0.7370625,12.3664,3.317237,-1
18,M,0,1,40,7,4,159,3,1509,0,0.5971957,12.17429,2.729791,-1
18,M,0,1,40,8,3,158,2,2309,0,0.003066302,6.404516,0.01978234,-1
18,M,0,1,41,1,1,161,1,2165,0,0.2668392,6.496037,2.263043,-1
18,M,0,1,41,2,2,162,2,1009,0,0.8950642,12.47955,4.057868,-1
18,M,0,1,41,3,1,164,4,2253,0,0.2378974,6.523234,1.981891,-1
18,M,0,1,41,4,2,163,3,1209,0,0.8369469,12.27498,3.790391,-1
18,M,0,1,41,5,2,161,1,1743,1,0.7276473,12.41078,3.316588,-1
18,M,0,1,41,6,1,163,3,2953,0,0.4291952,6.257984,3.705969,-1
18,M,0,1,41,7,1,162,2,2665,0,0.03093273,6.555796,0.2571706,-1
18,M,0,1,41,8,2,164,4,1276,0,0.4248587,12.44742,1.901149,-1
18,M,0,1,42,1,2,166,2,1120,0,0.7723535,12.48439,3.499391,-1
18,M,0,1,42,2,1,167,3,1853,0,0.4336331,6.246635,3.737798,-1
18,M,0,1,42,3,1,166,2,2298,0,2.086311E-07,6.573863,0,-1
18,M,0,1,42,4,2,165,1,1742,1,0.8234744,12.40653,3.741045,-1
18,M,0,1,42,5,2,168,4,2187,0,0.4569755,12.47419,2.049659,-1
18,M,0,1,42,6,2,167,3,1654,0,0.5110196,12.25482,2.357753,-1
18,M,0,1,42,7,1,168,4,2987,0,0.2313556,6.521514,1.921627,-1
18,M,0,1,42,8,1,165,1,1676,0,0.1407733,6.473835,1.182502,-1
18,M,0,1,43,1,2,171,3,1420,0,0.5364678,12.26886,2.434376,-1
18,M,0,1,43,2,2,170,2,1142,0,0.6645651,12.51055,3.013244,-1
18,M,0,1,43,3,2,172,4,2598,0,0.3950718,12.46504,1.76669,-1
18,M,0,1,43,4,1,171,3,1998,0,0.2005413,6.234098,1.768793,-1
18,M,0,1,43,5,1,172,4,2087,0,0.1402177,6.524324,1.158934,-1
18,M,0,1,43,6,2,169,1,3565,0,0.6349143,12.39675,2.903533,-1
18,M,0,1,43,7,1,170,2,1964,0,0.1559057,6.559148,1.295129,-1
18,M,0,1,43,8,1,169,1,1731,0,0.1437699,6.47489,1.222854,-1
18,M,0,1,44,1,2,175,3,1176,0,0.9545951,12.27625,4.330743,-1
18,M,0,1,44,2,2,176,4,1920,0,0.2948229,12.46924,1.321898,-1
18,M,0,1,44,3,1,175,3,1998,0,0.03664663,6.250378,0.3195939,-1
18,M,0,1,44,4,1,174,2,2753,0,0.05497894,6.576344,0.4579955,-1
18,M,0,1,44,5,2,173,1,1520,1,1.020957,12.40915,4.680735,-1
18,M,0,1,44,6,2,174,2,1420,1,0.1707157,12.50788,0.7677034,-1
18,M,0,1,44,7,1,176,4,2298,0,0.1547781,6.517728,1.296941,-1
18,M,0,1,44,8,1,173,1,1909,0,0.5360563,6.330492,4.687384,-1
18,M,0,1,45,1,1,180,4,2520,0,7.171885E-08,6.561265,0,-1
18,M,0,1,45,2,2,178,2,842,0,0.4356444,12.50508,1.938964,-1
18,M,0,1,45,3,2,180,4,1587,0,2.000329E-07,12.49455,0.01978234,-1
18,M,0,1,45,4,1,178,2,2742,0,0.2158291,6.56446,1.766468,-1
18,M,0,1,45,5,1,179,3,1876,0,0.3130997,6.307638,2.682923,-1
18,M,0,1,45,6,2,177,1,1587,0,0.6372417,12.40776,2.923355,-1
18,M,0,1,45,7,2,179,3,1287,0,0.9775752,12.29516,4.482793,-1
18,M,0,1,45,8,1,177,1,2042,0,0.1910048,6.464735,1.606203,-1
18,M,0,1,46,1,2,182,2,1020,0,0.4154407,12.51388,1.850338,-1
18,M,0,1,46,2,1,181,1,2109,0,0.4250823,6.467414,3.628496,-1
18,M,0,1,46,3,1,183,3,2053,0,0.2088961,6.304415,1.780482,-1
18,M,0,1,46,4,1,184,4,2553,1,0.1205474,6.561961,0.9962258,-1
18,M,0,1,46,5,2,181,1,1365,0,0.8485665,12.43559,3.830832,-1
18,M,0,1,46,6,2,183,3,1409,0,0.4196296,12.31158,1.901149,-1
18,M,0,1,46,7,1,182,2,1598,0,0.1767666,6.578419,1.463265,-1
18,M,0,1,46,8,2,184,4,1765,0,0.6536529,12.49418,2.908182,-1
18,M,0,1,47,1,1,187,3,2620,0,0.2753124,6.296119,2.385319,-1
18,M,0,1,47,2,2,186,2,987,0,2.103656E-07,12.51466,0.01978234,-1
18,M,0,1,47,3,1,188,4,2509,0,0.4965242,6.555027,4.060473,-1
18,M,0,1,47,4,2,185,1,1109,0,0.9017168,12.44153,4.06953,-1
18,M,0,1,47,5,2,188,4,1487,0,1.012083E-07,12.49996,0,-1
18,M,0,1,47,6,1,186,2,2154,0,0.4228366,6.568197,3.490708,-1
18,M,0,1,47,7,1,185,1,1442,0,0.3207165,6.469762,2.717358,-1
18,M,0,1,47,8,2,187,3,2287,2,0.8275347,12.31213,3.827253,-1
18,M,0,1,48,1,1,192,4,1653,0,0.205864,6.562879,1.711665,-1
18,M,0,1,48,2,1,191,3,3820,2,0.1937864,6.30477,1.675146,-1
18,M,0,1,48,3,2,190,2,954,0,0.7699076,12.52121,3.424512,-1
18,M,0,1,48,4,2,191,3,965,0,0.9411325,12.32391,4.242471,-1
18,M,0,1,48,5,1,189,1,1842,0,0.1107458,6.499663,0.9346082,-1
18,M,0,1,48,6,2,192,4,2643,1,0.248042,12.50571,1.106238,-1
18,M,0,1,48,7,1,190,2,2698,0,0.202576,6.582708,1.655167,-1
18,M,0,1,48,8,2,189,1,1087,0,0.4125014,12.43526,1.874506,-1
18,M,0,1,49,1,1,196,4,2120,0,0.3828963,6.563498,3.188561,-1
18,M,0,1,49,2,2,194,2,987,0,0.8131822,12.52988,3.673811,-1
18,M,0,1,49,3,2,193,1,998,0,0.2957429,12.44173,1.334129,-1
18,M,0,1,49,4,1,195,3,2420,2,0.4204028,6.314095,3.630599,-1
18,M,0,1,49,5,1,193,1,1320,0,5.242617E-08,6.515926,0,-1
18,M,0,1,49,6,2,195,3,1065,0,0.7811376,12.31283,3.570071,-1
18,M,0,1,49,7,1,194,2,1642,0,0.4280249,6.581634,3.527089,-1
18,M,0,1,49,8,2,196,4,1831,0,0.3994405,12.50031,1.780262,-1
18,M,0,1,50,1,1,199,3,2042,0,0.4392061,6.289567,3.749305,-1
18,M,0,1,50,2,1,198,2,1998,2,0.4113405,6.578569,3.396325,-1
18,M,0,1,50,3,1,197,1,3842,3,0.3082546,6.469851,2.622042,-1
18,M,0,1,50,4,2,198,2,1020,0,0.2906607,12.50869,1.297695,-1
18,M,0,1,50,5,2,197,1,1031,0,0.1598612,12.42763,0.7241574,-1
18,M,0,1,50,6,2,200,4,1665,0,0.8959221,12.49821,3.982314,-1
18,M,0,1,50,7,2,199,3,1409,0,0.583779,12.29438,2.680003,-1
18,M,0,1,50,8,1,200,4,2165,0,0.5209461,6.558608,4.342892,-1
18,M,0,1,51,1,1,202,2,2042,0,0.3737859,6.577435,3.081594,-1
18,M,0,1,51,2,2,201,1,1320,0,0.747049,12.41785,3.427084,-1
18,M,0,1,51,3,2,204,4,1987,0,0.9699622,12.4972,4.312343,-1
18,M,0,1,51,4,2,203,3,1442,0,0.9334388,12.30594,4.30416,-1
18,M,0,1,51,5,2,202,2,1131,0,0.434986,12.51818,1.933404,-1
18,M,0,1,51,6,1,201,1,3242,0,0.1595143,6.507943,1.333248,-1
18,M,0,1,51,7,1,204,4,2776,1,0.2385796,6.559179,1.987511,-1
18,M,0,1,51,8,1,203,3,2031,0,0.2699612,6.295782,2.304777,-1
18,M,0,1,52,1,1,206,2,1731,0,0.4659805,6.579649,3.841602,-1
18,M,0,1,52,2,1,208,4,3076,2,0.2832461,6.557432,2.34059,-1
18,M,0,1,52,3,2,207,3,1598,0,0.3716632,12.30813,1.692001,-1
18,M,0,1,52,4,2,205,1,1498,0,0.3112412,12.43544,1.411114,-1
18,M,0,1,52,5,2,208,4,2264,0,0.5708122,12.50505,2.543221,-1
18,M,0,1,52,6,1,207,3,2031,0,0.5283003,6.300115,4.517657,-1
18,M,0,1,52,7,2,206,2,1498,0,0.7970183,12.51955,3.54547,-1
18,M,0,1,52,8,1,205,1,2742,0,0.4353767,6.497983,3.646098,-1
18,M,0,1,53,1,2,210,2,920,0,1.001082E-07,12.51355,0,-1
18,M,0,1,53,2,2,211,3,1165,0,0.5749208,12.32441,2.612469,-1
18,M,0,1,53,3,1,210,2,1764,0,0.3942064,6.564812,3.260507,-1
18,M,0,1,53,4,2,209,1,1009,0,0.06878577,12.42321,0.3109043,-1
18,M,0,1,53,5,2,212,4,2220,1,0.3504218,12.4931,1.561099,-1
18,M,0,1,53,6,1,211,3,1542,0,0.1036198,6.300856,0.9011378,-1
18,M,0,1,53,7,1,209,1,4187,3,0.3991834,6.277565,3.456098,-1
18,M,0,1,53,8,1,212,4,2342,0,1.078638E-07,6.432084,0,-1
18,M,0,1,54,1,1,213,1,2287,0,0.2900032,6.296386,2.531727,-1
18,M,0,1,54,2,2,215,3,1153,0,0.6609372,12.10473,3.092565,-1
18,M,0,1,54,3,2,213,1,1187,0,0.856597,12.21192,4.001055,-1
18,M,0,1,54,4,2,214,2,920,0,0.1669195,12.31694,0.7574393,-1
18,M,0,1,54,5,1,216,4,1998,0,0.3328324,6.434579,2.827224,-1
18,M,0,1,54,6,1,214,2,2587,0,0.02945289,6.390949,0.2502292,-1
18,M,0,1,54,7,2,216,4,1654,0,0.359219,12.3153,1.623774,-1
18,M,0,1,54,8,1,215,3,2209,0,0.08174016,6.14707,0.7225344,-1
18,M,0,1,55,1,2,217,1,1654,1,0.3166626,12.2242,1.453738,-1
18,M,0,1,55,2,2,220,4,1576,0,0.3648501,12.3312,1.669881,-1
18,M,0,1,55,3,1,218,2,2031,0,0.3305521,6.408048,2.794773,-1
18,M,0,1,55,4,1,219,3,2253,0,0.1598369,6.140783,1.399277,-1
18,M,0,1,55,5,1,217,1,2265,0,0.1131417,6.310557,0.9763861,-1
18,M,0,1,55,6,1,220,4,1742,0,0.488925,6.430611,4.157417,-1
18,M,0,1,55,7,2,219,3,1398,0,0.2651019,12.11655,1.221413,-1
18,M,0,1,55,8,2,218,2,1264,0,0.198659,12.3318,0.8996165,-1
18,M,0,1,56,1,1,223,3,1642,0,0.3049608,6.132812,2.679565,-1
18,M,0,1,56,2,2,224,4,2631,0,0.209389,12.32617,0.948326,-1
18,M,0,1,56,3,1,222,2,1753,0,0.4785242,6.404275,4.049849,-1
18,M,0,1,56,4,2,221,1,1220,0,0.000792463,12.22792,0,-1
18,M,0,1,56,5,2,222,2,1087,0,0.7645739,12.32741,3.45196,-1
18,M,0,1,56,6,1,221,1,3176,1,0.07838433,6.308416,0.6801254,-1
18,M,0,1,56,7,1,224,4,1698,0,0.5467377,6.43212,4.648862,-1
18,M,0,1,56,8,2,223,3,3131,0,0.4773846,12.11307,2.233444,-1
18,M,0,1,57,1,3,225,1,1953,0,1.79039E-07,6.344166,0,-1
18,M,0,1,57,2,4,228,4,1865,0,2.667422E-07,12.34011,0.01978234,-1
18,M,0,1,57,3,3,227,3,2165,0,1.589988E-07,6.167611,0,-1
18,M,0,1,57,4,4,225,1,1342,0,0.9366319,12.24878,4.357928,-1
18,M,0,1,57,5,3,226,2,2009,0,0.3280786,6.419379,2.795474,-1
18,M,0,1,57,6,4,227,3,3009,1,0.105445,12.14074,0.4873863,-1
18,M,0,1,57,7,3,228,4,2198,0,0.3843445,6.45512,3.237792,-1
18,M,0,1,57,8,4,226,2,954,0,0.7541518,12.34533,3.402257,-1
18,M,0,1,58,1,4,231,3,1565,0,0.235361,12.149,1.090201,-1
18,M,0,1,58,2,4,229,1,1453,0,0.2609476,12.26886,1.201545,-1
18,M,0,1,58,3,4,232,4,1487,0,0.3134348,12.35367,1.4143,-1
18,M,0,1,58,4,3,230,2,1987,0,0.4077748,6.424699,3.457514,-1
18,M,0,1,58,5,3,229,1,4354,0,0.3193053,6.357989,2.774529,-1
18,M,0,1,58,6,4,230,2,1163,0,0.3836888,12.36056,1.72873,-1
18,M,0,1,58,7,3,232,4,2231,0,1.685221E-07,6.45503,0,-1
18,M,0,1,58,8,3,231,3,2042,0,0.2131186,6.176385,1.869907,-1
18,M,0,1,59,1,3,233,1,1220,0,0.07756564,6.356421,0.6702721,-1
18,M,0,1,59,2,4,234,2,942,0,0.7352001,12.34018,3.321661,-1
18,M,0,1,59,3,3,235,3,2065,0,0.2410495,6.162493,2.111832,-1
18,M,0,1,59,4,4,233,1,1042,0,0.4536968,12.25599,2.09387,-1
18,M,0,1,59,5,4,236,4,1187,0,0.2324087,12.33944,1.060356,-1
18,M,0,1,59,6,4,235,3,1087,0,0.3244593,12.1438,1.495017,-1
18,M,0,1,59,7,3,234,2,2920,0,0.2472181,6.431985,2.129184,-1
18,M,0,1,59,8,3,236,4,2965,1,0.4592822,6.44577,3.889172,-1
18,M,0,1,60,1,4,238,2,2542,0,0.6369518,12.36318,2.867169,-1
18,M,0,1,60,2,4,240,4,1953,0,0.4715551,12.34918,2.140735,-1
18,M,0,1,60,3,3,237,1,1565,0,0.1218158,6.328739,1.045676,-1
18,M,0,1,60,4,4,239,3,1031,0,0.3111022,12.15144,1.428755,-1
18,M,0,1,60,5,3,240,4,2053,0,0.5217084,6.476283,4.383337,-1
18,M,0,1,60,6,3,239,3,4909,0,0.0312248,6.189027,0.2755364,-1
18,M,0,1,60,7,4,237,1,854,0,0.0176775,12.24614,0.08156469,-1
18,M,0,1,60,8,3,238,2,2031,0,0.08254628,6.448566,0.6943616,-1
18,M,0,1,61,1,2,241,1,998,0,0.3100947,12.26873,1.424915,-1
18,M,0,1,61,2,2,243,3,942,0,0.3320003,12.16,1.535569,-1
18,M,0,1,61,3,2,244,4,1165,0,0.6616392,12.36338,3.048124,-1
18,M,0,1,61,4,1,241,1,1665,0,0.542548,6.330623,4.718333,-1
18,M,0,1,61,5,1,243,3,1198,0,5.861122E-08,6.185461,0,-1
18,M,0,1,61,6,1,242,2,2331,0,0.2843863,6.432103,2.400614,-1
18,M,0,1,61,7,1,244,4,2620,0,0.09106464,6.471052,0.7692311,-1
18,M,0,1,61,8,2,242,2,620,0,0.4084137,12.35863,1.843238,-1
18,M,0,1,62,1,1,245,1,1665,0,0.009590589,6.335303,0.08392937,-1
18,M,0,1,62,2,1,246,2,1109,0,0.02287847,6.428169,0.1928145,-1
18,M,0,1,62,3,2,245,1,886,0,0.3145653,12.25898,1.449694,-1
18,M,0,1,62,4,1,247,3,1820,0,0.3968673,6.196163,3.461475,-1
18,M,0,1,62,5,1,248,4,1353,0,3.157236E-07,6.463382,0,-1
18,M,0,1,62,6,2,246,2,687,0,0.4748134,12.35678,2.142014,-1
18,M,0,1,62,7,2,248,4,1031,0,0.3288592,12.3528,1.503111,-1
18,M,0,1,62,8,2,247,3,1020,0,0.28481,12.16396,1.314029,-1
18,M,0,1,1,1,7,1,1,5819,0,5.086822,6.516729,51.25723,-1
18,M,0,1,1,2,5,2,2,3142,0,0.5081876,6.560024,4.203561,-1
18,M,0,1,1,3,5,1,1,3831,0,1.205223,6.487608,10.30194,-1
18,M,0,1,1,4,5,4,4,3709,0,1.622432,6.570464,13.62086,-1
18,M,0,1,1,5,5,3,3,1598,0,5.081989,6.364993,52.98026,-1
18,M,0,1,1,6,6,1,1,3509,0,2.755758,12.44763,12.76005,-1
18,M,0,1,1,7,6,2,2,5787,0,4.631557,12.5124,21.54003,-1
18,M,0,1,1,8,6,3,3,2098,0,3.474659,12.33622,16.35948,-1
18,M,0,1,1,9,6,4,4,2864,0,10.07261,12.52132,53.55591,-1
18,M,0,1,1,10,7,2,2,6053,0,6.308146,6.599016,72.92521,-1
18,M,0,1,1,11,7,4,4,2887,0,5.032596,6.603754,49.648,-1
18,M,0,1,1,12,8,2,2,6920,0,7.784107,12.52536,38.4234,-1
18,M,0,1,1,13,8,1,1,4709,0,6.30736,12.44619,30.37075,-1
18,M,0,1,1,14,8,3,3,5098,0,8.390507,12.34622,42.81249,-1
18,M,0,1,1,15,8,4,4,6053,0,8.995585,12.52683,45.8983,-1
18,M,0,1,1,16,7,3,3,7031,0,5.287506,6.365978,56.1592,-1
18,M,0,1,2,1,7,3,3,3553,0,5.080481,6.358167,53.03931,-1
18,M,0,1,2,2,8,1,1,6420,0,3.622779,12.43055,16.94428,-1
18,M,0,1,2,3,6,2,2,1620,0,3.16252,12.50793,14.52393,-1
18,M,0,1,2,4,8,4,4,5287,0,10.01398,12.52253,53.09924,-1
18,M,0,1,2,5,5,3,3,3265,0,4.565379,6.382038,45.67174,-1
18,M,0,1,2,6,6,4,4,9898,0,2.439576,12.50593,10.89685,-1
18,M,0,1,2,7,5,2,2,1553,0,0.4112125,6.496707,3.428512,-1
18,M,0,1,2,8,6,3,3,3409,0,8.641247,12.36877,43.92327,-1
18,M,0,1,2,9,5,4,4,2431,0,3.201172,6.618728,27.48898,-1
18,M,0,1,2,10,7,2,2,6676,0,0.6051491,6.50091,5.074315,-1
18,M,0,1,2,11,7,1,1,1731,0,6.112778,6.493081,70.2384,-1
18,M,0,1,2,12,8,3,3,5076,0,2.338759,12.35531,10.8324,-1
18,M,0,1,2,13,5,1,1,6842,0,2.113473,6.374465,18.31655,-1
18,M,0,1,2,14,8,2,2,1887,0,10.40931,12.4087,57.02119,-1
18,M,0,1,2,15,7,4,4,2009,0,1.282173,6.483105,10.81532,-1
18,M,0,1,2,16,6,1,1,2009,0,6.188512,12.31574,30.0877,-1
