Age, Gender, Awareness Type, Session, Block, Trial, Set, Pattern, Quadrant, Response Time, Num Mistakes, Distance From Target, Camera Distance From Target, Angle Error (Degrees), FC Response
19,F,0,1,1,1,1,2,2,1653,0,0.4256526,6.370855,3.653127,-1
19,F,0,1,1,2,1,1,1,1387,0,0.246149,6.076064,2.211339,-1
19,F,0,1,1,3,1,3,3,1564,0,0.04893586,6.089712,0.4419051,-1
19,F,0,1,1,4,2,4,4,9999,4,-1,-1,-1,-1
19,F,0,1,1,5,2,3,3,9999,5,-1,-1,-1,-1
19,F,0,1,1,6,2,2,2,5175,4,0.6395503,12.25174,2.926032,-1
19,F,0,1,1,7,2,1,1,6298,0,0.7568278,12.18721,3.536458,-1
19,F,0,1,1,8,1,4,4,4387,0,0.3133351,6.452824,2.618083,-1
19,F,0,1,2,1,2,6,2,5320,4,0.3760309,12.3391,1.700769,-1
19,F,0,1,2,2,2,8,4,2842,0,0.1435535,12.31352,0.6561096,-1
19,F,0,1,2,3,1,6,2,2054,0,0.3866636,6.39069,3.344978,-1
19,F,0,1,2,4,2,7,3,4820,2,0.685877,12.16895,3.18635,-1
19,F,0,1,2,5,1,5,1,3053,1,3.541272E-08,6.115085,0.01978234,-1
19,F,0,1,2,6,1,7,3,2298,1,0.3515377,6.112392,3.224401,-1
19,F,0,1,2,7,1,8,4,3087,0,0.3998197,6.488564,3.375857,-1
19,F,0,1,2,8,2,5,1,6198,0,0.566512,12.19054,2.62025,-1
19,F,0,1,3,1,2,12,4,2276,0,0.7260242,12.29179,3.290215,-1
19,F,0,1,3,2,2,10,2,2142,0,0.8731198,12.27604,3.975769,-1
19,F,0,1,3,3,1,9,1,1631,0,0.1040033,6.091468,0.9437756,-1
19,F,0,1,3,4,1,11,3,2420,1,0.2669082,6.097402,2.416785,-1
19,F,0,1,3,5,1,12,4,5364,2,0.1223563,6.473767,1.03363,-1
19,F,0,1,3,6,1,10,2,2520,0,0.48067,6.340124,4.151713,-1
19,F,0,1,3,7,2,9,1,2187,0,0.122519,12.21622,0.5647526,-1
19,F,0,1,3,8,2,11,3,1665,0,0.8954694,12.11215,4.211753,-1
19,F,0,1,4,1,1,13,1,1965,0,0.03065492,6.097345,0.276953,-1
19,F,0,1,4,2,1,14,2,3720,1,2.036642E-07,6.36904,0,-1
19,F,0,1,4,3,2,15,3,1798,0,0.8595389,12.08111,4.057289,-1
19,F,0,1,4,4,2,13,1,4952,0,0.4374158,12.18688,2.025067,-1
19,F,0,1,4,5,1,16,4,4609,1,0.5229579,6.466096,4.432615,-1
19,F,0,1,4,6,2,14,2,2142,0,0.7930886,12.25876,3.616659,-1
19,F,0,1,4,7,2,16,4,1887,0,0.7034187,12.27716,3.209674,-1
19,F,0,1,4,8,1,15,3,1787,0,0.3461923,6.098508,3.080578,-1
19,F,0,1,5,1,1,17,1,2565,0,0.1325649,6.110221,1.201708,-1
19,F,0,1,5,2,2,20,4,5842,1,0.7335796,12.3037,3.328726,-1
19,F,0,1,5,3,2,18,2,9999,5,-1,-1,-1,-1
19,F,0,1,5,4,2,19,3,9999,8,-1,-1,-1,-1
19,F,0,1,5,5,1,20,4,2620,0,0.06669895,6.497582,0.5619739,-1
19,F,0,1,5,6,1,19,3,2098,0,0.0366412,6.119493,0.329838,-1
19,F,0,1,5,7,2,17,1,4875,0,0.3637562,12.19004,1.690728,-1
19,F,0,1,5,8,1,18,2,1976,0,0.4981154,6.383249,4.282034,-1
19,F,0,1,6,1,2,23,3,2075,0,0.2755912,12.11412,1.283442,-1
19,F,0,1,6,2,1,24,4,4220,2,0.02689933,6.497513,0.2264194,-1
19,F,0,1,6,3,1,21,1,2231,0,0.3684359,6.096655,3.339648,-1
19,F,0,1,6,4,1,22,2,4176,1,0.09959637,6.383388,0.8515682,-1
19,F,0,1,6,5,1,23,3,1698,0,0.3836629,6.112858,3.499503,-1
19,F,0,1,6,6,2,24,4,7087,0,1.036746,12.30286,4.772821,-1
19,F,0,1,6,7,2,21,1,1420,0,0.2459861,12.20537,1.139695,-1
19,F,0,1,6,8,2,22,2,1242,0,0.2247052,12.28763,1.025648,-1
19,F,0,1,7,1,1,28,4,3031,2,0.002072084,6.489827,0,-1
19,F,0,1,7,2,1,25,1,1309,0,1.28468E-07,6.105348,0,-1
19,F,0,1,7,3,2,26,2,1431,0,0.5673492,12.28987,2.587475,-1
19,F,0,1,7,4,2,28,4,7209,5,0.9060086,12.28902,4.192832,-1
19,F,0,1,7,5,2,25,1,3765,2,0.2014811,12.17879,0.9346082,-1
19,F,0,1,7,6,1,27,3,1620,0,3.812165E-08,6.106622,0,-1
19,F,0,1,7,7,1,26,2,2453,1,0.2196615,6.380319,1.882632,-1
19,F,0,1,7,8,2,27,3,1653,0,1.023213,12.10037,4.79812,-1
19,F,0,1,8,1,1,32,4,5009,1,0.4960617,6.479092,4.1961,-1
19,F,0,1,8,2,2,29,1,4365,0,0.8438646,12.18734,3.905552,-1
19,F,0,1,8,3,1,30,2,4753,3,0.4307503,6.366259,3.690243,-1
19,F,0,1,8,4,2,32,4,5064,1,0.8251253,12.28454,3.735807,-1
19,F,0,1,8,5,1,31,3,2476,1,0.473,6.10076,4.199319,-1
19,F,0,1,8,6,2,30,2,2187,0,1.019694,12.27543,4.712974,-1
19,F,0,1,8,7,1,29,1,1931,0,0.0639025,6.094386,0.5757331,-1
19,F,0,1,8,8,2,31,3,6131,3,0.6981134,12.09538,3.214672,-1
19,F,0,1,9,1,1,36,4,9999,2,-1,-1,-1,-1
19,F,0,1,9,2,1,33,1,3498,1,8.247718E-08,6.148435,0,-1
19,F,0,1,9,3,2,34,2,1554,0,0.2620257,12.35037,1.184817,-1
19,F,0,1,9,4,1,35,3,1776,0,0.05866076,6.191391,0.5222706,-1
19,F,0,1,9,5,1,34,2,3009,2,0.1859305,6.427239,1.586219,-1
19,F,0,1,9,6,2,35,3,2398,0,0.8826594,12.18376,4.12317,-1
19,F,0,1,9,7,2,33,1,6387,4,1.099589E-07,12.2628,0,-1
19,F,0,1,9,8,2,36,4,2531,0,1.094172E-07,12.38691,0,-1
19,F,0,1,10,1,1,38,2,4031,2,4.740712E-08,6.428919,0,-1
19,F,0,1,10,2,2,39,3,2631,0,0.6778486,12.1813,3.16533,-1
19,F,0,1,10,3,1,40,4,5987,4,0.1989364,6.554929,1.657176,-1
19,F,0,1,10,4,2,38,2,7642,3,0.04467407,12.35129,0.2036718,-1
19,F,0,1,10,5,1,39,3,2376,0,0.1869644,6.175314,1.680279,-1
19,F,0,1,10,6,1,37,1,2076,0,0.1478886,6.143157,1.334422,-1
19,F,0,1,10,7,2,40,4,2531,0,0.7586181,12.36712,3.413575,-1
19,F,0,1,10,8,2,37,1,1909,0,1.019963,12.25303,4.743591,-1
19,F,0,1,11,1,2,42,2,4898,3,0.5569196,12.32602,2.526542,-1
19,F,0,1,11,2,1,43,3,3142,1,0.349931,6.166357,3.177306,-1
19,F,0,1,11,3,2,44,4,6409,1,0.8107531,12.36638,3.661158,-1
19,F,0,1,11,4,1,41,1,5387,0,1.584219E-07,6.151448,0,-1
19,F,0,1,11,5,1,42,2,4953,2,0.4344844,6.410892,3.722049,-1
19,F,0,1,11,6,2,41,1,2920,2,0.8600183,12.2445,4.001202,-1
19,F,0,1,11,7,1,44,4,1876,0,0.5197212,6.545493,4.344696,-1
19,F,0,1,11,8,2,43,3,5776,0,0.7620022,12.17618,3.567437,-1
19,F,0,1,12,1,2,45,1,3564,1,0.9969875,12.24633,4.639077,-1
19,F,0,1,12,2,2,47,3,1731,0,0.1922324,12.16498,0.8906538,-1
19,F,0,1,12,3,1,48,4,5365,4,0.1430554,6.544451,1.192226,-1
19,F,0,1,12,4,1,45,1,2498,0,0.03665893,6.140547,0.3292442,-1
19,F,0,1,12,5,2,46,2,1720,0,0.7214205,12.32882,3.281217,-1
19,F,0,1,12,6,2,48,4,2553,0,1.043303,12.35789,4.695401,-1
19,F,0,1,12,7,1,46,2,3309,1,0.1516798,6.415026,1.296337,-1
19,F,0,1,12,8,1,47,3,2387,0,3.268314E-08,6.171252,0.01978234,-1
19,F,0,1,13,1,1,49,1,2888,0,0.0420728,6.15486,0.3774237,-1
19,F,0,1,13,2,2,51,3,1520,0,0.7200231,12.16703,3.356314,-1
19,F,0,1,13,3,1,52,4,4331,1,7.628401E-08,6.546545,0,-1
19,F,0,1,13,4,2,50,2,3942,2,1.693852E-07,12.32146,0,-1
19,F,0,1,13,5,2,52,4,2131,0,0.2096616,12.36663,0.9481196,-1
19,F,0,1,13,6,2,49,1,2920,1,0.4097743,12.24607,1.896098,-1
19,F,0,1,13,7,1,50,2,2031,0,0.1377235,6.422366,1.161464,-1
19,F,0,1,13,8,1,51,3,1776,0,0.1229554,6.172832,1.088585,-1
19,F,0,1,14,1,2,56,4,1909,0,0.1970802,12.3666,0.8915322,-1
19,F,0,1,14,2,1,55,3,1543,0,0.3366183,6.170565,2.967353,-1
19,F,0,1,14,3,2,54,2,1576,0,0.5279053,12.33975,2.425596,-1
19,F,0,1,14,4,1,53,1,2020,0,7.262694E-08,6.15309,0,-1
19,F,0,1,14,5,1,56,4,4031,2,1.683002E-07,6.555357,0,-1
19,F,0,1,14,6,2,55,3,3653,2,0.5551041,12.18017,2.541142,-1
19,F,0,1,14,7,2,53,1,2231,0,0.8224583,12.25459,3.823106,-1
19,F,0,1,14,8,1,54,2,2998,1,0.02652742,6.426623,0.2255535,-1
19,F,0,1,15,1,2,60,4,2220,1,0.4329102,12.36479,1.969409,-1
19,F,0,1,15,2,1,57,1,2387,0,0.2284912,6.157032,2.075563,-1
19,F,0,1,15,3,1,60,4,2865,0,0.4152344,6.557115,3.471134,-1
19,F,0,1,15,4,2,58,2,1542,0,1.017536,12.34109,4.678683,-1
19,F,0,1,15,5,2,59,3,1553,0,0.7609659,12.16928,3.558205,-1
19,F,0,1,15,6,1,58,2,2564,1,3.261962E-07,6.424532,0,-1
19,F,0,1,15,7,1,59,3,1842,0,0.3381806,6.17447,3.065416,-1
19,F,0,1,15,8,2,57,1,3465,0,0.05247207,12.26381,0.2414744,-1
19,F,0,1,16,1,1,63,3,1931,0,0.1511621,6.182645,1.343483,-1
19,F,0,1,16,2,2,64,4,5142,0,0.9266393,12.38404,4.179545,-1
19,F,0,1,16,3,2,61,1,2765,2,0.7619548,12.26687,3.521144,-1
19,F,0,1,16,4,2,62,2,1798,0,1.010779,12.3528,4.638697,-1
19,F,0,1,16,5,2,63,3,2065,0,1.519387E-07,12.17416,0,-1
19,F,0,1,16,6,1,61,1,1476,0,0.0932001,6.159395,0.8313365,-1
19,F,0,1,16,7,1,62,2,3253,0,0.4772784,6.432789,4.071214,-1
19,F,0,1,16,8,1,64,4,3587,2,0.04864805,6.559153,0.4059006,-1
19,F,0,1,17,1,3,65,1,1531,0,1.518426E-08,6.158362,0,-1
19,F,0,1,17,2,3,67,3,1287,0,0.2660513,6.17995,2.359413,-1
19,F,0,1,17,3,4,68,4,2642,0,0.552792,12.38277,2.492143,-1
19,F,0,1,17,4,4,67,3,1498,0,0.9116949,12.19489,4.248422,-1
19,F,0,1,17,5,3,68,4,7876,1,0.3837866,6.582199,3.186412,-1
19,F,0,1,17,6,4,66,2,1176,0,0.7677428,12.36378,3.484083,-1
19,F,0,1,17,7,4,65,1,1253,0,0.04862648,12.29669,0.2229358,-1
19,F,0,1,17,8,3,66,2,5153,3,1.024711E-07,6.43959,0,-1
19,F,0,1,18,1,4,72,4,2109,0,0.3455275,12.40437,1.556706,-1
19,F,0,1,18,2,3,71,3,1831,0,0.221615,6.212449,1.948529,-1
19,F,0,1,18,3,3,69,1,1642,0,1.963851E-07,6.157712,0,-1
19,F,0,1,18,4,4,71,3,2887,0,0.6874738,12.19861,3.17786,-1
19,F,0,1,18,5,3,70,2,2387,0,0.5437774,6.449606,4.654421,-1
19,F,0,1,18,6,4,69,1,1220,0,0.3941439,12.28666,1.818331,-1
19,F,0,1,18,7,3,72,4,3342,2,9.710053E-08,6.585445,0,-1
19,F,0,1,18,8,4,70,2,5387,3,0.1354836,12.37494,0.6177064,-1
19,F,0,1,19,1,4,75,3,1576,0,1.049892,12.26604,4.842298,-1
19,F,0,1,19,2,4,74,2,1253,0,1.031236,12.40105,4.679814,-1
19,F,0,1,19,3,3,73,1,1898,0,0.08924405,6.191651,0.7917944,-1
19,F,0,1,19,4,3,74,2,4587,1,1.593027E-07,6.442326,0,-1
19,F,0,1,19,5,4,73,1,1409,0,0.2255414,12.30263,1.036088,-1
19,F,0,1,19,6,4,76,4,3165,1,1.092065E-07,12.43299,0,-1
19,F,0,1,19,7,3,75,3,1776,0,0.5111032,6.223005,4.457247,-1
19,F,0,1,19,8,3,76,4,4331,3,0.04183947,6.597474,0.3488659,-1
19,F,0,1,20,1,4,77,1,2698,1,7.918637E-08,12.30517,0.01978234,-1
19,F,0,1,20,2,4,78,2,1965,0,0.3538753,12.39555,1.6158,-1
19,F,0,1,20,3,4,80,4,1176,0,0.9330933,12.42539,4.180014,-1
19,F,0,1,20,4,3,79,3,4231,0,0.0835236,6.236978,0.7348864,-1
19,F,0,1,20,5,3,80,4,3642,2,0.3387057,6.616599,2.790778,-1
19,F,0,1,20,6,4,79,3,2720,1,0.1550512,12.21941,0.7149112,-1
19,F,0,1,20,7,3,78,2,2787,0,0.3957029,6.451499,3.38333,-1
19,F,0,1,20,8,3,77,1,1820,0,0.3285458,6.191159,2.898743,-1
19,F,0,1,20,1,1,79,3,1942,0,0.1500606,6.216325,1.319824,-1
19,F,0,1,20,2,2,80,4,1698,0,0.5499784,12.42895,2.470451,-1
19,F,0,1,20,3,1,77,1,1598,0,0.2754703,6.199234,2.435501,-1
19,F,0,1,20,4,1,78,2,2153,0,0.02607222,6.472417,0.220287,-1
19,F,0,1,20,5,1,80,4,2620,1,0.1780214,6.6066,1.468471,-1
19,F,0,1,20,6,2,77,1,1665,0,0.8801653,12.30314,4.07607,-1
19,F,0,1,20,7,2,78,2,1620,0,0.2497925,12.3922,1.136083,-1
19,F,0,1,20,8,2,79,3,1498,0,0.7848114,12.22276,3.647924,-1
19,F,0,1,21,1,1,82,2,1709,0,0.1336392,6.468074,1.127264,-1
19,F,0,1,21,2,2,81,1,1687,0,0.440017,12.31011,2.027772,-1
19,F,0,1,21,3,2,84,4,1642,0,0.7249018,12.42959,3.256843,-1
19,F,0,1,21,4,2,82,2,1264,0,0.6984445,12.38598,3.161865,-1
19,F,0,1,21,5,2,83,3,1553,0,0.6342688,12.22841,2.911545,-1
19,F,0,1,21,6,1,81,1,1531,0,3.984566E-08,6.194729,0,-1
19,F,0,1,21,7,1,83,3,1642,0,0.2194836,6.228897,1.92183,-1
19,F,0,1,21,8,1,84,4,5053,1,0.3812602,6.610683,3.16205,-1
19,F,0,1,22,1,2,86,2,3131,1,0.4731022,12.38678,2.131848,-1
19,F,0,1,22,2,2,85,1,2365,1,0.6626197,12.30894,3.066118,-1
19,F,0,1,22,3,1,88,4,3898,1,0.2660945,6.618008,2.203892,-1
19,F,0,1,22,4,1,86,2,1965,0,0.2946277,6.461366,2.500924,-1
19,F,0,1,22,5,2,87,3,9999,9,-1,-1,-1,-1
19,F,0,1,22,6,1,85,1,2964,0,0.1473504,6.190091,1.319973,-1
19,F,0,1,22,7,2,88,4,1742,0,0.596849,12.43041,2.682266,-1
19,F,0,1,22,8,1,87,3,1565,0,0.3406415,6.223379,3.010579,-1
19,F,0,1,23,1,2,92,4,1920,0,0.236266,12.43815,1.060541,-1
19,F,0,1,23,2,1,91,3,1365,0,0.4219366,6.227521,3.723364,-1
19,F,0,1,23,3,1,90,2,1931,0,0.4676836,6.473279,3.96467,-1
19,F,0,1,23,4,2,89,1,1442,0,0.8110545,12.30803,3.754263,-1
19,F,0,1,23,5,1,92,4,2876,1,0.1262033,6.618751,1.04155,-1
19,F,0,1,23,6,2,90,2,2531,1,0.1118142,12.39319,0.5055169,-1
19,F,0,1,23,7,1,89,1,2254,0,0.08071734,6.198857,0.719005,-1
19,F,0,1,23,8,2,91,3,1587,0,0.5030271,12.2373,2.295246,-1
19,F,0,1,24,1,1,94,2,1853,1,1.259685E-07,6.466432,0,-1
19,F,0,1,24,2,1,96,4,3198,0,0.4893756,6.601222,4.065727,-1
19,F,0,1,24,3,2,95,3,1353,0,0.8224424,12.21667,3.796533,-1
19,F,0,1,24,4,2,93,1,4520,0,0.8521904,12.31087,3.946105,-1
19,F,0,1,24,5,2,94,2,1376,0,0.3884745,12.38505,1.758473,-1
19,F,0,1,24,6,1,93,1,2942,0,0.2054106,6.208375,1.814775,-1
19,F,0,1,24,7,1,95,3,1242,0,2.547874E-08,6.22307,0,-1
19,F,0,1,24,8,2,96,4,1253,0,0.8970721,12.42567,4.032792,-1
19,F,0,1,25,1,2,97,1,1642,0,0.2200318,12.30701,1.009688,-1
19,F,0,1,25,2,2,100,4,2253,1,0.2536881,12.42551,1.139695,-1
19,F,0,1,25,3,2,99,3,1398,0,1.032757,12.21757,4.78299,-1
19,F,0,1,25,4,1,98,2,2808,2,0.3669428,6.463884,3.116087,-1
19,F,0,1,25,5,1,99,3,1231,0,0.06440453,6.231823,0.5661368,-1
19,F,0,1,25,6,1,100,4,3609,1,0.299959,6.609735,2.484513,-1
19,F,0,1,25,7,1,97,1,1698,0,0.07008629,6.194263,0.6252628,-1
19,F,0,1,25,8,2,98,2,3453,0,0.316561,12.38742,1.446721,-1
19,F,0,1,26,1,1,103,3,1586,0,0.2417216,6.220568,2.116924,-1
19,F,0,1,26,2,2,104,4,2587,0,0.9706443,12.42691,4.363678,-1
19,F,0,1,26,3,2,103,3,2876,2,0.5633027,12.21415,2.571616,-1
19,F,0,1,26,4,1,102,2,1331,0,0.2711329,6.469333,2.29874,-1
19,F,0,1,26,5,1,104,4,3431,2,0.1275769,6.600087,1.059248,-1
19,F,0,1,26,6,2,101,1,1931,1,0.4539463,12.29789,2.091251,-1
19,F,0,1,26,7,2,102,2,1487,0,1.009125,12.39592,4.600449,-1
19,F,0,1,26,8,1,101,1,2676,1,3.674836E-08,6.192157,0,-1
19,F,0,1,27,1,1,108,4,3264,1,0.4636706,6.607815,3.847969,-1
19,F,0,1,27,2,2,105,1,1354,0,0.8856775,12.30127,4.102362,-1
19,F,0,1,27,3,1,106,2,2365,1,4.640281E-08,6.476576,0,-1
19,F,0,1,27,4,2,108,4,2620,0,0.7944782,12.42575,3.570893,-1
19,F,0,1,27,5,2,106,2,1642,0,0.233077,12.39571,1.05462,-1
19,F,0,1,27,6,2,107,3,1998,0,0.5831399,12.2212,2.660578,-1
19,F,0,1,27,7,1,105,1,2331,0,1.664054E-07,6.19584,0,-1
19,F,0,1,27,8,1,107,3,1809,0,7.234537E-08,6.219558,0,-1
19,F,0,1,28,1,1,110,2,1931,1,0.2198932,6.477041,1.858148,-1
19,F,0,1,28,2,2,111,3,1942,0,0.7566675,12.21406,3.514354,-1
19,F,0,1,28,3,2,110,2,1231,0,0.2041298,12.4038,0.9299906,-1
19,F,0,1,28,4,1,111,3,1931,0,0.01792805,6.222618,0.1557664,-1
19,F,0,1,28,5,2,112,4,6408,0,0.5733963,12.42864,2.575799,-1
19,F,0,1,28,6,2,109,1,1331,0,0.41188,12.17365,1.918161,-1
19,F,0,1,28,7,1,112,4,3376,1,0.5494015,6.596662,4.568275,-1
19,F,0,1,28,8,1,109,1,1653,1,0.09713716,6.200106,0.8681804,-1
19,F,0,1,29,1,2,114,2,1398,0,0.8237941,12.39986,3.726676,-1
19,F,0,1,29,2,1,116,4,2353,1,0.5528293,6.598415,4.595592,-1
19,F,0,1,29,3,2,113,1,3265,2,0.995832,12.30921,4.575644,-1
19,F,0,1,29,4,1,114,2,1676,0,0.3571663,6.483373,3.010189,-1
19,F,0,1,29,5,2,116,4,1787,0,0.348804,12.42204,1.567355,-1
19,F,0,1,29,6,1,115,3,1964,0,0.2932558,6.218447,2.566206,-1
19,F,0,1,29,7,1,113,1,2331,0,8.851292E-08,6.1904,0,-1
19,F,0,1,29,8,2,115,3,2942,2,0.8964905,12.21713,4.091655,-1
19,F,0,1,30,1,2,120,4,1776,0,0.6098924,12.42591,2.740383,-1
19,F,0,1,30,2,2,118,2,2920,2,0.6009812,12.39207,2.738597,-1
19,F,0,1,30,3,1,119,3,1898,0,0.1336841,6.208728,1.191405,-1
19,F,0,1,30,4,1,120,4,3509,1,0.4167049,6.610007,3.456607,-1
19,F,0,1,30,5,2,119,3,9598,5,1.022653,12.1327,4.68705,-1
19,F,0,1,30,6,1,117,1,1820,0,1.036207E-07,6.103939,0,-1
19,F,0,1,30,7,1,118,2,2120,0,0.1415568,6.378269,1.216436,-1
19,F,0,1,30,8,2,117,1,1676,0,0.9827198,12.1989,4.590304,-1
19,F,0,1,31,1,1,123,3,1398,0,0.3866287,6.120798,3.526922,-1
19,F,0,1,31,2,1,121,1,1753,0,0.3214154,6.0934,2.925229,-1
19,F,0,1,31,3,1,124,4,4031,1,0.4330094,6.512676,3.644165,-1
19,F,0,1,31,4,1,122,2,1764,0,0.4437911,6.370862,3.821262,-1
19,F,0,1,31,5,2,121,1,1287,0,0.06571992,12.19865,0.3032579,-1
19,F,0,1,31,6,2,124,4,2598,1,0.1442405,12.31977,0.6549156,-1
19,F,0,1,31,7,2,122,2,3587,2,0.6621844,12.2728,3.046582,-1
19,F,0,1,31,8,2,123,3,3220,2,0.8035889,12.11783,3.692047,-1
19,F,0,1,32,1,1,126,2,1686,0,0.336509,6.374277,2.854305,-1
19,F,0,1,32,2,2,127,3,2753,1,0.2424483,12.10176,1.124135,-1
19,F,0,1,32,3,2,126,2,2031,0,0.8187253,12.27848,3.76598,-1
19,F,0,1,32,4,1,127,3,1598,0,0.3566635,6.113638,3.179277,-1
19,F,0,1,32,5,2,125,1,1286,0,0.8897117,12.18628,4.1593,-1
19,F,0,1,32,6,2,128,4,1864,0,0.8565415,12.31239,3.88494,-1
19,F,0,1,32,7,1,125,1,1487,0,1.14812E-07,6.078056,0.01978234,-1
19,F,0,1,32,8,1,128,4,3409,3,0.4574028,6.503958,3.915917,-1
19,F,0,1,33,1,2,131,3,1464,0,0.9244522,12.12814,4.332281,-1
19,F,0,1,33,2,2,130,2,1331,0,0.305566,12.28115,1.410282,-1
19,F,0,1,33,3,1,132,4,2676,1,0.5545033,6.510085,4.670345,-1
19,F,0,1,33,4,2,129,1,4875,0,0.6233506,12.2217,2.90441,-1
19,F,0,1,33,5,2,132,4,2254,0,0.8789672,12.32347,3.983347,-1
19,F,0,1,33,6,1,131,3,2131,0,0.489164,6.137932,4.31484,-1
19,F,0,1,33,7,1,130,2,1787,0,0.4680791,6.381615,3.991254,-1
19,F,0,1,33,8,1,129,1,1531,0,1.667315E-07,6.098996,0,-1
19,F,0,1,34,1,1,135,3,1953,0,0.3816651,6.130804,3.381709,-1
19,F,0,1,34,2,1,134,2,2531,1,0.08192468,6.377312,0.7041557,-1
19,F,0,1,34,3,1,133,1,2009,0,0.1678653,6.089799,1.527391,-1
19,F,0,1,34,4,2,134,2,1409,0,0.3056695,12.28735,1.407365,-1
19,F,0,1,34,5,2,136,4,3353,0,0.9504275,12.32756,4.306253,-1
19,F,0,1,34,6,2,133,1,3053,0,0.6808227,12.20514,3.176751,-1
19,F,0,1,34,7,1,136,4,2509,1,0.280105,6.506881,2.3446,-1
19,F,0,1,34,8,2,135,3,2076,1,0.6957842,12.11746,3.222457,-1
19,F,0,1,35,1,1,138,2,1409,0,0.4353452,6.377181,3.744864,-1
19,F,0,1,35,2,2,140,4,1898,0,0.4168975,12.31793,1.888963,-1
19,F,0,1,35,3,2,139,3,2487,1,0.7449363,12.11154,3.425827,-1
19,F,0,1,35,4,2,138,2,3642,0,0.6333987,12.27849,2.924158,-1
19,F,0,1,35,5,1,137,1,2142,0,7.007134E-08,6.089736,0.01978234,-1
19,F,0,1,35,6,1,140,4,4665,1,0.4649265,6.50689,3.916467,-1
19,F,0,1,35,7,2,137,1,1509,0,0.9213536,12.19562,4.304251,-1
19,F,0,1,35,8,1,139,3,2198,1,0.4990676,6.114787,4.538075,-1
19,F,0,1,37,1,4,146,2,1742,0,0.4165792,12.28698,1.908751,-1
19,F,0,1,37,2,3,147,3,1376,0,0.5064937,6.124548,4.477328,-1
19,F,0,1,37,3,3,145,1,1465,0,0.07987483,6.096588,0.7192771,-1
19,F,0,1,37,4,4,148,4,2020,0,0.6179236,12.31579,2.795544,-1
19,F,0,1,37,5,4,147,3,1776,0,0.5754244,12.12411,2.646932,-1
19,F,0,1,37,6,3,148,4,3631,2,0.07122956,6.509407,0.6003569,-1
19,F,0,1,37,7,3,146,2,3287,1,0.2000898,6.372824,1.736523,-1
19,F,0,1,37,8,4,145,1,3053,0,0.7007296,12.21211,3.268603,-1
19,F,0,1,38,1,4,151,3,1609,0,0.905704,12.12477,4.259517,-1
19,F,0,1,38,2,4,152,4,1476,0,0.8026202,12.31535,3.639218,-1
19,F,0,1,38,3,4,150,2,2065,0,0.7464517,12.29095,3.443783,-1
19,F,0,1,38,4,4,149,1,1487,0,0.7096219,12.19201,3.314816,-1
19,F,0,1,38,5,3,150,2,2376,1,0.02095347,6.364128,0.1791368,-1
19,F,0,1,38,6,3,151,3,1420,0,0.09738143,6.120858,0.8717791,-1
19,F,0,1,38,7,3,149,1,3076,0,0.05000813,6.08717,0.4532716,-1
19,F,0,1,38,8,3,152,4,2631,2,1.812378E-08,6.513452,0,-1
19,F,0,1,39,1,4,154,2,1664,0,0.7133008,12.28899,3.288369,-1
19,F,0,1,39,2,3,155,3,1342,0,1.808015E-07,6.130152,0,-1
19,F,0,1,39,3,3,154,2,2276,1,0.0402056,6.363232,0.3443497,-1
19,F,0,1,39,4,4,155,3,1676,0,0.8843606,12.113,4.114803,-1
19,F,0,1,39,5,3,153,1,2453,0,2.113679E-07,6.069199,0,-1
19,F,0,1,39,6,3,156,4,2976,2,0.125406,6.510945,1.049784,-1
19,F,0,1,39,7,4,153,1,1542,0,0.6764361,12.18393,3.162545,-1
19,F,0,1,39,8,4,156,4,1653,0,0.5288122,12.32976,2.391956,-1
19,F,0,1,40,1,3,158,2,1742,0,0.2560147,6.366849,2.216908,-1
19,F,0,1,40,2,4,159,3,1786,0,0.8502145,12.11332,3.984821,-1
19,F,0,1,40,3,4,157,1,1609,0,0.5691411,12.20523,2.655275,-1
19,F,0,1,40,4,4,158,2,1598,0,1.144411E-07,12.28652,0,-1
19,F,0,1,40,5,3,160,4,2487,1,0.5188927,6.501742,4.361477,-1
19,F,0,1,40,6,3,157,1,1787,0,1.670544E-07,6.076852,0,-1
19,F,0,1,40,7,3,159,3,1465,0,0.2644387,6.120924,2.349354,-1
19,F,0,1,40,8,4,160,4,1987,1,0.1752715,12.33182,0.7950006,-1
19,F,0,1,41,1,2,162,2,1865,0,0.5172679,12.28794,2.359413,-1
19,F,0,1,41,2,1,161,1,3553,0,0.4375277,6.105817,3.912465,-1
19,F,0,1,41,3,2,164,4,1609,1,0.2526626,12.32033,1.146201,-1
19,F,0,1,41,4,1,162,2,2142,0,0.06729825,6.375721,0.57743,-1
19,F,0,1,41,5,1,163,3,1576,0,0.08339867,6.125269,0.7451985,-1
19,F,0,1,41,6,1,164,4,2798,0,0.4246714,6.50468,3.578124,-1
19,F,0,1,41,7,2,161,1,1553,0,0.6579834,12.1931,3.07307,-1
19,F,0,1,41,8,2,163,3,2520,0,0.02663323,12.13005,0.1235407,-1
19,F,0,1,42,1,2,168,4,1720,0,0.8375351,12.31975,3.785997,-1
19,F,0,1,42,2,1,165,1,1542,0,1.356503E-07,6.089113,0,-1
19,F,0,1,42,3,1,167,3,1298,0,0.1936045,6.124667,1.727257,-1
19,F,0,1,42,4,2,165,1,1209,0,1.004475,12.19657,4.693106,-1
19,F,0,1,42,5,2,166,2,2687,2,0.1284309,12.28935,0.5888388,-1
19,F,0,1,42,6,1,168,4,3542,1,0.1557707,6.510997,1.310301,-1
19,F,0,1,42,7,2,167,3,2198,1,0.6645728,12.13082,3.067714,-1
19,F,0,1,42,8,1,166,2,3020,0,0.1664249,6.392059,1.418307,-1
19,F,0,1,43,1,2,169,1,1776,0,0.2821268,12.20895,1.30746,-1
19,F,0,1,43,2,1,170,2,1631,0,0.1574522,6.391477,1.350602,-1
19,F,0,1,43,3,2,172,4,2431,0,0.8693319,12.32477,3.939102,-1
19,F,0,1,43,4,2,171,3,1476,0,0.4784062,12.12755,2.208948,-1
19,F,0,1,43,5,1,169,1,1753,0,8.202642E-08,6.103625,0,-1
19,F,0,1,43,6,1,172,4,2909,1,0.2307191,6.514893,1.937348,-1
19,F,0,1,43,7,1,171,3,1620,0,0.4192401,6.141392,3.742405,-1
19,F,0,1,43,8,2,170,2,1720,0,0.9265105,12.29786,4.274206,-1
19,F,0,1,44,1,1,176,4,4131,1,3.210644E-07,6.499664,0,-1
19,F,0,1,44,2,2,173,1,2131,1,0.8778056,12.21115,4.101359,-1
19,F,0,1,44,3,2,176,4,2109,0,0.1723539,12.32316,0.7833468,-1
19,F,0,1,44,4,2,174,2,2042,0,0.3731179,12.291,1.701689,-1
19,F,0,1,44,5,2,175,3,1565,0,0.7319585,12.12532,3.438548,-1
19,F,0,1,44,6,1,174,2,1765,0,0.1025624,6.388671,0.8720036,-1
19,F,0,1,44,7,1,175,3,1542,0,0.02141661,6.132029,0.1907741,-1
19,F,0,1,44,8,1,173,1,1876,0,4.379138E-08,6.100472,0,-1
19,F,0,1,45,1,2,179,3,2064,1,0.4952275,12.12377,2.29021,-1
19,F,0,1,45,2,2,177,1,2287,1,0.7921495,12.20355,3.697876,-1
19,F,0,1,45,3,1,179,3,1309,0,0.1610769,6.142484,1.430534,-1
19,F,0,1,45,4,2,178,2,1331,0,0.1468345,12.29429,0.6708556,-1
19,F,0,1,45,5,2,180,4,1909,0,0.59782,12.32973,2.700666,-1
19,F,0,1,45,6,1,178,2,2009,0,0.1775436,6.377608,1.519426,-1
19,F,0,1,45,7,1,180,4,2753,1,0.2553907,6.515892,2.147398,-1
19,F,0,1,45,8,1,177,1,1420,0,0.09763629,6.09271,0.8851442,-1
19,F,0,1,46,1,2,183,3,2620,2,0.6421533,12.11507,2.974733,-1
19,F,0,1,46,2,1,184,4,3287,1,0.2725675,6.521355,2.272364,-1
19,F,0,1,46,3,2,181,1,2953,2,6.500235E-08,12.19407,0.01978234,-1
19,F,0,1,46,4,2,184,4,2353,0,0.6308333,12.30713,2.893673,-1
19,F,0,1,46,5,2,182,2,1420,0,2.544223E-07,12.29368,0,-1
19,F,0,1,46,6,1,181,1,1709,0,1.297628E-07,6.097125,0,-1
19,F,0,1,46,7,1,182,2,2231,0,0.4126463,6.378622,3.548507,-1
19,F,0,1,46,8,1,183,3,1465,0,0.2914335,6.128297,2.585129,-1
19,F,0,1,47,1,2,188,4,1709,0,0.9090556,12.32504,4.119369,-1
19,F,0,1,47,2,1,185,1,2087,0,3.151464E-08,6.093808,0,-1
19,F,0,1,47,3,1,187,3,1676,0,0.2098937,6.115945,1.904543,-1
19,F,0,1,47,4,2,186,2,1653,0,3.343581E-07,12.29602,0,-1
19,F,0,1,47,5,1,188,4,2765,1,0.3264059,6.508113,2.747944,-1
19,F,0,1,47,6,2,185,1,1509,0,0.5442111,12.20198,2.534741,-1
19,F,0,1,47,7,2,187,3,1509,0,0.2119011,12.1192,0.9821809,-1
19,F,0,1,47,8,1,186,2,2076,0,0.2179027,6.380203,1.872417,-1
19,F,0,1,48,1,2,191,3,1887,0,0.7204776,12.11049,3.387552,-1
19,F,0,1,48,2,1,189,1,3053,0,0.2756847,6.080823,2.533582,-1
19,F,0,1,48,3,2,190,2,1798,0,0.1757504,12.28412,0.8052719,-1
19,F,0,1,48,4,2,189,1,1253,0,0.2925382,12.19205,1.352484,-1
19,F,0,1,48,5,1,192,4,4987,1,0.2603857,6.528112,2.185343,-1
19,F,0,1,48,6,1,191,3,1253,0,0.4611509,6.163754,4.054247,-1
19,F,0,1,48,7,1,190,2,1642,0,0.2577964,6.39457,2.210543,-1
19,F,0,1,48,8,2,192,4,2265,1,5.580931E-08,12.33696,0,-1
19,F,0,1,49,1,2,195,3,3531,4,0.7938221,12.14257,3.653609,-1
19,F,0,1,49,2,1,196,4,3531,2,0.2892126,6.527825,2.407616,-1
19,F,0,1,49,3,1,194,2,1709,0,0.255064,6.37532,2.186507,-1
19,F,0,1,49,4,2,196,4,1064,0,0.6707614,12.32485,3.044526,-1
19,F,0,1,49,5,2,193,1,2220,1,0.3059337,12.20022,1.420375,-1
19,F,0,1,49,6,2,194,2,1387,0,0.8164145,12.29551,3.750402,-1
19,F,0,1,49,7,1,193,1,2165,0,0.1166427,6.095198,1.061278,-1
19,F,0,1,49,8,1,195,3,1420,0,4.233976E-08,6.132272,0,-1
19,F,0,1,50,1,1,197,1,1742,0,0.3834375,6.090359,3.481103,-1
19,F,0,1,50,2,2,198,2,1409,0,0.1613519,12.29439,0.7351527,-1
19,F,0,1,50,3,2,197,1,2487,1,0.8217926,12.20207,3.836451,-1
19,F,0,1,50,4,2,199,3,2087,0,0.303055,12.12799,1.396758,-1
19,F,0,1,50,5,2,200,4,1653,0,0.861129,12.33404,3.899129,-1
19,F,0,1,50,6,1,199,3,1508,0,0.3076148,6.135905,2.724839,-1
19,F,0,1,50,7,1,200,4,2698,1,0.3804399,6.515375,3.199961,-1
19,F,0,1,50,8,1,198,2,2398,1,0.4767418,6.464251,4.072128,-1
19,F,0,1,51,1,2,204,4,2242,1,0.8239225,12.41614,3.70618,-1
19,F,0,1,51,2,2,201,1,8887,8,0.4520923,12.32717,2.081119,-1
19,F,0,1,51,3,1,204,4,3242,1,0.1854356,6.594013,1.533273,-1
19,F,0,1,51,4,1,201,1,2009,0,0.3826811,6.197431,3.42211,-1
19,F,0,1,51,5,1,202,2,1898,0,0.1215042,6.464964,1.025457,-1
19,F,0,1,51,6,2,203,3,2620,0,0.7889581,12.21402,3.653984,-1
19,F,0,1,51,7,2,202,2,1398,0,0.5795869,12.39085,2.648854,-1
19,F,0,1,51,8,1,203,3,1876,0,0.1146886,6.224307,1.007942,-1
19,F,0,1,52,1,1,208,4,2565,1,0.308044,6.59257,2.54599,-1
19,F,0,1,52,2,2,207,3,3187,1,0.5777215,12.21976,2.635074,-1
19,F,0,1,52,3,2,206,2,1209,0,0.3911465,12.39723,1.784325,-1
19,F,0,1,52,4,1,207,3,1531,0,0.01908698,6.217932,0.1678588,-1
19,F,0,1,52,5,1,205,1,2020,0,0.3315608,6.213454,2.98852,-1
19,F,0,1,52,6,2,208,4,1398,0,0.6704519,12.42217,3.005568,-1
19,F,0,1,52,7,2,205,1,1565,0,0.8215978,12.31883,3.799421,-1
19,F,0,1,52,8,1,206,2,1709,0,0.4215637,6.470181,3.570729,-1
19,F,0,1,53,1,2,211,3,2909,0,0.3588777,12.22487,1.656821,-1
19,F,0,1,53,2,2,209,1,1176,0,0.6317312,12.32555,2.903668,-1
19,F,0,1,53,3,1,210,2,2487,1,0.2546462,6.468412,2.193656,-1
19,F,0,1,53,4,1,211,3,1509,0,0.3054159,6.223422,2.697911,-1
19,F,0,1,53,5,1,209,1,1720,0,0.3352837,6.200902,2.992317,-1
19,F,0,1,53,6,2,212,4,2009,0,0.5933124,12.43121,2.664768,-1
19,F,0,1,53,7,2,210,2,1498,0,0.6103382,12.39578,2.792251,-1
19,F,0,1,53,8,1,212,4,3965,3,1.661905E-07,6.597305,0,-1
19,F,0,1,54,1,1,213,1,1276,0,0.08024502,6.143803,0.7217214,-1
19,F,0,1,54,2,1,216,4,3876,1,0.3822183,6.564059,3.191814,-1
19,F,0,1,54,3,2,214,2,9999,9,-1,-1,-1,-1
19,F,0,1,54,4,2,213,1,9999,3,-1,-1,-1,-1
19,F,0,1,54,5,1,215,3,1576,0,0.06932212,6.172249,0.6180231,-1
19,F,0,1,54,6,2,216,4,1187,0,0.3348066,12.3732,1.510254,-1
19,F,0,1,54,7,1,214,2,1831,0,0.3305668,6.395058,2.824869,-1
19,F,0,1,54,8,2,215,3,1531,0,0.3510293,12.16108,1.630269,-1
19,F,0,1,55,1,2,220,4,1320,0,0.5644948,12.36601,2.548449,-1
19,F,0,1,55,2,2,218,2,1398,0,0.2561059,12.32099,1.173365,-1
19,F,0,1,55,3,2,219,3,1720,0,0.2756262,12.16445,1.267331,-1
19,F,0,1,55,4,1,220,4,2231,1,0.2206428,6.554636,1.840581,-1
19,F,0,1,55,5,1,218,2,1842,0,0.3674998,6.393656,3.134128,-1
19,F,0,1,55,6,1,217,1,2598,0,1.726938E-07,6.121319,0,-1
19,F,0,1,55,7,1,219,3,1376,0,0.0861377,6.170805,0.7636142,-1
19,F,0,1,55,8,2,217,1,1531,0,0.5180671,12.24035,2.400451,-1
19,F,0,1,56,1,1,222,2,1365,0,0.2450312,6.435688,2.082623,-1
19,F,0,1,56,2,1,224,4,2564,2,0.05417386,6.573643,0.450674,-1
19,F,0,1,56,3,1,223,3,1909,0,0.2438024,6.198404,2.142288,-1
19,F,0,1,56,4,2,221,1,1465,0,0.7699804,12.28201,3.572812,-1
19,F,0,1,56,5,2,222,2,1942,0,0.6747308,12.36217,3.095349,-1
19,F,0,1,56,6,1,221,1,2076,0,0.1678834,6.166087,1.493576,-1
19,F,0,1,56,7,2,223,3,2309,0,0.5376903,12.19335,2.463389,-1
19,F,0,1,56,8,2,224,4,1709,0,0.1892049,12.40354,0.8534044,-1
19,F,0,1,57,1,3,226,2,2087,1,0.006966116,6.421585,0.05934703,-1
19,F,0,1,57,2,3,225,1,1498,0,0.343747,6.170666,3.117594,-1
19,F,0,1,57,3,4,227,3,2298,0,0.8307516,12.22091,3.875352,-1
19,F,0,1,57,4,4,228,4,1631,0,1.00307,12.40301,4.518307,-1
19,F,0,1,57,5,4,226,2,3409,0,0.6011543,12.35918,2.715268,-1
19,F,0,1,57,6,3,227,3,1953,0,0.1575292,6.223825,1.385363,-1
19,F,0,1,57,7,4,225,1,1887,0,0.2260615,12.30366,1.039482,-1
19,F,0,1,57,8,3,228,4,3520,1,0.2274969,6.579216,1.894962,-1
19,F,0,1,58,1,3,229,1,1598,0,0.1137901,6.168508,1.011431,-1
19,F,0,1,58,2,3,230,2,3120,0,0.4607837,6.425207,3.945112,-1
19,F,0,1,58,3,4,231,3,2031,0,0.8167041,12.23116,3.773253,-1
19,F,0,1,58,4,4,230,2,3109,0,0.3869926,12.39886,1.758696,-1
19,F,0,1,58,5,4,232,4,1465,0,0.71995,12.42925,3.230709,-1
19,F,0,1,58,6,3,231,3,2320,1,0.4073229,6.238022,3.599837,-1
19,F,0,1,58,7,4,229,1,1776,0,6.939258E-08,12.32185,0,-1
19,F,0,1,58,8,3,232,4,3576,2,0.1572152,6.625322,1.296941,-1
19,F,0,1,59,1,3,234,2,3642,0,0.3914692,6.452808,3.285808,-1
19,F,0,1,59,2,3,236,4,2898,1,0.2185022,6.607316,1.803417,-1
19,F,0,1,59,3,4,233,1,2053,0,0.7687212,12.30663,3.55925,-1
19,F,0,1,59,4,4,236,4,1742,0,0.1094028,12.43523,0.4945601,-1
19,F,0,1,59,5,3,235,3,2487,1,0.4779485,6.232257,4.243763,-1
19,F,0,1,59,6,4,234,2,1909,0,0.4393548,12.41741,2.004279,-1
19,F,0,1,59,7,3,233,1,1942,0,0.06130309,6.21351,0.5450047,-1
19,F,0,1,59,8,4,235,3,1820,0,0.9863291,12.24715,4.582531,-1
19,F,0,1,60,1,4,238,2,1965,0,0.1271989,12.41319,0.5740312,-1
19,F,0,1,60,2,3,239,3,1987,0,4.054855E-08,6.271938,0,-1
19,F,0,1,60,3,3,238,2,1831,0,0.5148,6.474839,4.363453,-1
19,F,0,1,60,4,4,239,3,1965,0,0.3581973,12.25304,1.653511,-1
19,F,0,1,60,5,4,237,1,3120,2,0.7665504,12.33727,3.536679,-1
19,F,0,1,60,6,4,240,4,1731,0,0.2542686,12.45359,1.151821,-1
19,F,0,1,60,7,3,237,1,1876,0,0.4071677,6.229276,3.58299,-1
19,F,0,1,60,8,3,240,4,3087,1,0.1272067,6.626488,1.044927,-1
19,F,0,1,61,1,1,241,1,1942,0,0.3290253,6.215573,2.969793,-1
19,F,0,1,61,2,2,242,2,2231,1,0.2385233,12.40088,1.083901,-1
19,F,0,1,61,3,2,243,3,1942,0,0.9204484,12.25188,4.262781,-1
19,F,0,1,61,4,1,244,4,3909,1,0.107676,6.629575,0.8851442,-1
19,F,0,1,61,5,2,241,1,1798,1,0.34434,12.3292,1.580039,-1
19,F,0,1,61,6,1,243,3,1731,0,1.052086E-07,6.251348,0,-1
19,F,0,1,61,7,2,244,4,1609,0,1.002308,12.45717,4.48004,-1
19,F,0,1,61,8,1,242,2,1876,1,3.674694E-08,6.470891,0,-1
19,F,0,1,62,1,1,247,3,1320,0,0.1831989,6.256389,1.62534,-1
19,F,0,1,62,2,2,246,2,1765,0,0.8550047,12.42715,3.903345,-1
19,F,0,1,62,3,2,247,3,1476,0,0.7448079,12.25254,3.456267,-1
19,F,0,1,62,4,2,248,4,2498,1,0.3407204,12.43682,1.530079,-1
19,F,0,1,62,5,1,245,1,2698,0,0.2178198,6.190357,1.959146,-1
19,F,0,1,62,6,1,248,4,2687,1,0.5614932,6.609858,4.609509,-1
19,F,0,1,62,7,2,245,1,3187,3,0.991387,12.31804,4.546398,-1
19,F,0,1,62,8,1,246,2,1220,0,0.09571521,6.460032,0.8122882,-1
19,F,0,1,1,1,5,2,2,3164,0,4.017664E-08,6.462958,0,-1
19,F,0,1,1,2,6,1,1,2342,0,4.452878,12.2863,21.24928,-1
19,F,0,1,1,3,5,4,4,3153,0,1.798259,6.577343,15.17737,-1
19,F,0,1,1,4,5,3,3,2320,0,1.3798,6.223703,12.11691,-1
19,F,0,1,1,5,7,4,4,3876,0,3.514246,6.590157,31.72428,-1
19,F,0,1,1,6,7,2,2,2298,0,6.491715,6.491715,90.69682,-1
19,F,0,1,1,7,7,3,3,1776,0,0.5390764,6.23358,4.803058,-1
19,F,0,1,1,8,5,1,1,2842,0,2.86771,6.187766,26.96648,-1
19,F,0,1,1,9,8,4,4,1298,0,1.651827,12.40207,7.58954,-1
19,F,0,1,1,10,8,2,2,1865,0,1.008632,12.35896,4.630793,-1
19,F,0,1,1,11,8,3,3,1464,0,4.40722,12.23598,20.90529,-1
19,F,0,1,1,12,7,1,1,1842,0,2.195743,6.19747,20.55967,-1
19,F,0,1,1,13,6,2,2,1364,0,1.062779,12.36503,4.842378,-1
19,F,0,1,1,14,8,1,1,1309,0,5.962017,12.31576,28.95329,-1
19,F,0,1,1,15,6,4,4,1276,0,1.424239,12.40032,6.439098,-1
19,F,0,1,1,16,6,3,3,1165,0,3.745515,12.22052,17.84806,-1
19,F,0,1,2,1,5,4,4,1498,0,2.104551,6.566478,17.51669,-1
19,F,0,1,2,2,7,1,1,1664,0,0.8770595,6.175544,7.996202,-1
19,F,0,1,2,3,7,2,2,1165,0,5.103424,6.473828,52.02844,-1
19,F,0,1,2,4,5,1,1,1498,0,2.359765,6.193771,22.24505,-1
19,F,0,1,2,5,6,3,3,1431,0,0.9080039,12.23805,4.131617,-1
19,F,0,1,2,6,8,4,4,1076,0,1.764182,12.45157,8.064286,-1
19,F,0,1,2,7,8,2,2,1120,0,1.484915,12.42926,6.788361,-1
19,F,0,1,2,8,7,3,3,1365,0,1.387195,6.269014,12.48364,-1
19,F,0,1,2,9,7,4,4,1276,0,1.276879,6.647713,10.62004,-1
19,F,0,1,2,10,6,2,2,1209,0,1.495082,12.42764,6.835839,-1
19,F,0,1,2,11,8,3,3,1176,0,4.663417,12.28093,22.10177,-1
19,F,0,1,2,12,8,1,1,1198,0,4.575347,12.37738,21.63515,-1
19,F,0,1,2,13,5,2,2,1098,0,5.252075,6.53721,53.45721,-1
19,F,0,1,2,14,6,4,4,1409,0,8.012875,12.46526,40.00214,-1
19,F,0,1,2,15,6,1,1,1420,0,3.938137,12.34245,18.60684,-1
19,F,0,1,2,16,5,3,3,1409,0,3.642807,6.282407,35.43946,-1
