Age, Gender, Awareness Type, Session, Block, Trial, Set, Pattern, Quadrant, Response Time, Num Mistakes, Distance From Target, Camera Distance From Target, Angle Error (Degrees), FC Response
18,F,0,1,1,1,1,1,1,1787,0,0.2425641,6.167457,2.189101,-1
18,F,0,1,1,2,1,3,3,3598,0,0.0122689,6.365169,0.1046783,-1
18,F,0,1,1,3,2,2,2,1442,0,0.6105007,12.30579,2.746234,-1
18,F,0,1,1,4,1,4,4,6042,1,1.016673E-07,6.466743,0,-1
18,F,0,1,1,5,2,3,3,2076,0,0.6178835,12.14405,2.871058,-1
18,F,0,1,1,6,2,4,4,5164,0,0.2265319,12.38189,1.025457,-1
18,F,0,1,1,7,2,1,1,1576,0,0.6540445,12.22296,2.961344,-1
18,F,0,1,1,8,1,2,2,4909,1,0.2285175,6.468646,1.911722,-1
18,F,0,1,2,1,2,8,4,6809,1,0.4580546,12.37357,2.092561,-1
18,F,0,1,2,2,1,7,3,3842,0,0.08638564,6.354199,0.7486043,-1
18,F,0,1,2,3,2,5,1,1865,0,0.6749536,12.21988,3.069437,-1
18,F,0,1,2,4,2,6,2,7498,2,0.3845374,12.27541,1.749771,-1
18,F,0,1,2,5,1,8,4,3287,0,0.2819681,6.455646,2.352351,-1
18,F,0,1,2,6,1,6,2,9999,6,-1,-1,-1,-1
18,F,0,1,2,7,1,5,1,6564,1,0.2682909,6.193304,2.370173,-1
18,F,0,1,2,8,2,7,3,9999,1,-1,-1,-1,-1
18,F,0,1,3,1,2,12,4,4953,0,1.185983E-07,12.38159,0,-1
18,F,0,1,3,2,2,10,2,5453,1,0.723928,12.29962,3.314521,-1
18,F,0,1,3,3,2,11,3,4587,0,0.4364937,12.15647,2.016642,-1
18,F,0,1,3,4,2,9,1,6031,2,0.7723508,12.21059,3.499838,-1
18,F,0,1,3,5,1,11,3,5876,0,0.03141245,6.341215,0.2719625,-1
18,F,0,1,3,6,1,12,4,3998,1,1.319419E-07,6.489863,0,-1
18,F,0,1,3,7,1,10,2,2109,0,0.07233913,6.506845,0.6065179,-1
18,F,0,1,3,8,1,9,1,1865,0,0.00130021,6.192531,0,-1
18,F,0,1,4,1,2,15,3,2698,0,0.3187812,12.18557,1.480813,-1
18,F,0,1,4,2,2,14,2,1998,0,0.8332103,12.33951,3.752959,-1
18,F,0,1,4,3,2,16,4,2587,0,0.08050883,12.39874,0.3658403,-1
18,F,0,1,4,4,2,13,1,1631,0,0.5760217,12.24499,2.644269,-1
18,F,0,1,4,5,1,14,2,1764,0,0.4066248,6.501441,3.373188,-1
18,F,0,1,4,6,1,13,1,1898,0,0.2420529,6.180625,2.142014,-1
18,F,0,1,4,7,1,16,4,2564,0,0.3634729,6.47747,3.01662,-1
18,F,0,1,4,8,1,15,3,4220,0,0.08618922,6.364229,0.7459858,-1
18,F,0,1,5,1,1,17,1,1365,0,0.1076335,6.201411,0.9524438,-1
18,F,0,1,5,2,2,20,4,5064,0,0.7796534,12.41213,3.569906,-1
18,F,0,1,5,3,2,19,3,1620,0,0.6053709,12.20234,2.777913,-1
18,F,0,1,5,4,1,18,2,4176,1,0.2399457,6.505646,1.995373,-1
18,F,0,1,5,5,1,20,4,5864,1,0.1565386,6.492091,1.301008,-1
18,F,0,1,5,6,2,18,2,5709,1,8.035471E-08,12.33006,0,-1
18,F,0,1,5,7,2,17,1,1587,0,1.031598,12.25106,4.659511,-1
18,F,0,1,5,8,1,19,3,4398,0,2.171086E-07,6.375021,0,-1
18,F,0,1,6,1,2,22,2,5531,0,1.697873E-07,12.33953,0,-1
18,F,0,1,6,2,1,23,3,5120,0,0.07630088,6.373761,0.6590852,-1
18,F,0,1,6,3,1,21,1,1298,0,0.2633142,6.207623,2.321024,-1
18,F,0,1,6,4,1,24,4,3887,0,0.1679556,6.4828,1.401513,-1
18,F,0,1,6,5,2,23,3,2253,0,0.2827032,12.20043,1.303413,-1
18,F,0,1,6,6,2,21,1,2076,0,0.8119732,12.24521,3.682701,-1
18,F,0,1,6,7,1,22,2,2842,0,0.3082539,6.50619,2.555122,-1
18,F,0,1,6,8,2,24,4,7853,2,0.8927284,12.41333,4.031043,-1
18,F,0,1,7,1,1,27,3,8620,1,0.4028389,6.384812,3.50023,-1
18,F,0,1,7,2,2,26,2,3687,2,0.7658989,12.35726,3.443726,-1
18,F,0,1,7,3,2,25,1,1731,0,0.9434977,12.26919,4.252108,-1
18,F,0,1,7,4,2,27,3,4898,1,0.03484736,12.1666,0.1594904,-1
18,F,0,1,7,5,1,28,4,3498,0,0.1195005,6.497826,0.9974037,-1
18,F,0,1,7,6,1,26,2,2109,1,0.3900087,6.53104,3.21881,-1
18,F,0,1,7,7,1,25,1,3442,1,0.3143768,6.19905,2.769444,-1
18,F,0,1,7,8,2,28,4,3131,0,0.4735079,12.42435,2.162203,-1
18,F,0,1,8,1,1,29,1,5731,1,0.1827067,6.20119,1.613618,-1
18,F,0,1,8,2,1,31,3,4009,0,0.06649163,6.371269,0.5726661,-1
18,F,0,1,8,3,1,30,2,2809,0,0.3485641,6.533015,2.881607,-1
18,F,0,1,8,4,1,32,4,5453,1,0.02468747,6.505435,0.2065338,-1
18,F,0,1,8,5,2,31,3,3253,0,0.9024787,12.21773,4.150298,-1
18,F,0,1,8,6,2,32,4,6420,1,0.8000142,12.43756,3.65452,-1
18,F,0,1,8,7,2,29,1,2653,0,0.70339,12.27359,3.228042,-1
18,F,0,1,8,8,2,30,2,3298,1,0.3446718,12.36474,1.577932,-1
18,F,0,1,9,1,1,35,3,3842,0,0.4164615,6.381411,3.55991,-1
18,F,0,1,9,2,1,34,2,3509,1,0.2474499,6.541197,2.046506,-1
18,F,0,1,9,3,2,33,1,4542,1,0.6714996,12.28555,3.048766,-1
18,F,0,1,9,4,1,36,4,3120,0,0.4551491,6.504855,3.763328,-1
18,F,0,1,9,5,2,34,2,6276,1,0.5714244,12.36709,2.570626,-1
18,F,0,1,9,6,1,33,1,3709,1,0.07767571,6.2189,0.6861406,-1
18,F,0,1,9,7,2,35,3,2920,0,1.042443,12.22439,4.842014,-1
18,F,0,1,9,8,2,36,4,2453,0,0.2521863,12.43908,1.136428,-1
18,F,0,1,10,1,2,39,3,5120,0,0.1701722,12.2252,0.7790887,-1
18,F,0,1,10,2,1,37,1,1665,0,0.3642029,6.236591,3.188193,-1
18,F,0,1,10,3,1,38,2,1287,0,0.4571468,6.545167,3.796276,-1
18,F,0,1,10,4,2,40,4,4653,0,0.05706145,12.45171,0.2579304,-1
18,F,0,1,10,5,2,37,1,2031,0,1.021464,12.29004,4.63612,-1
18,F,0,1,10,6,2,38,2,2542,1,0.06842119,12.37529,0.3090104,-1
18,F,0,1,10,7,1,39,3,4975,0,0.3490047,6.406918,3.020058,-1
18,F,0,1,10,8,1,40,4,4909,0,0.4017453,6.537396,3.323251,-1
18,F,0,1,11,1,1,41,1,1698,0,0.3175327,6.243899,2.821194,-1
18,F,0,1,11,2,2,44,4,8064,0,0.17214,12.44532,0.7785863,-1
18,F,0,1,11,3,1,43,3,9053,1,0.1761123,6.426721,1.512197,-1
18,F,0,1,11,4,2,42,2,2420,0,0.1249912,12.41212,0.564406,-1
18,F,0,1,11,5,1,44,4,9999,0,-1,-1,-1,-1
18,F,0,1,11,6,2,41,1,1831,1,0.7274243,12.3309,3.329549,-1
18,F,0,1,11,7,1,42,2,1265,0,0.1419341,6.580805,1.181509,-1
18,F,0,1,11,8,2,43,3,6231,1,0.4491869,12.23299,2.0589,-1
18,F,0,1,12,1,1,48,4,3886,0,0.3872973,6.545212,3.25546,-1
18,F,0,1,12,2,2,46,2,1865,0,0.8975198,12.41283,4.056275,-1
18,F,0,1,12,3,2,45,1,1642,0,0.8027065,12.32426,3.626985,-1
18,F,0,1,12,4,1,47,3,3687,0,0.2085773,6.428863,1.797656,-1
18,F,0,1,12,5,2,48,4,6320,1,0.2272815,12.49139,1.021825,-1
18,F,0,1,12,6,1,45,1,3587,0,0.01711742,6.245274,0.1493534,-1
18,F,0,1,12,7,2,47,3,3020,0,0.3665297,12.25133,1.674211,-1
18,F,0,1,12,8,1,46,2,1887,0,0.5399902,6.573569,4.434867,-1
18,F,0,1,13,1,2,51,3,2353,0,0.4575193,12.24261,2.092841,-1
18,F,0,1,13,2,1,49,1,1965,0,0.4821989,6.252493,4.22262,-1
18,F,0,1,13,3,1,51,3,2253,0,0.2774502,6.412064,2.358251,-1
18,F,0,1,13,4,2,50,2,2731,1,0.9931247,12.40759,4.570247,-1
18,F,0,1,13,5,2,52,4,6053,0,0.3627658,12.47489,1.633267,-1
18,F,0,1,13,6,1,50,2,2731,0,0.09338333,6.580362,0.7737964,-1
18,F,0,1,13,7,2,49,1,1531,0,0.8169005,12.30817,3.77102,-1
18,F,0,1,13,8,1,52,4,3887,0,0.5503221,6.537267,4.585309,-1
18,F,0,1,14,1,1,54,2,1387,0,0.239664,6.581996,1.971792,-1
18,F,0,1,14,2,2,53,1,2942,1,2.430251E-07,12.3147,0,-1
18,F,0,1,14,3,1,55,3,4187,0,2.184387E-07,6.41616,0,-1
18,F,0,1,14,4,2,56,4,1753,0,0.6134883,12.47418,2.757118,-1
18,F,0,1,14,5,1,53,1,2887,1,0.02363845,6.238299,0.20842,-1
18,F,0,1,14,6,2,55,3,3109,0,0.1721519,12.25579,0.7883269,-1
18,F,0,1,14,7,1,56,4,2864,0,0.4027523,6.535715,3.335248,-1
18,F,0,1,14,8,2,54,2,4698,1,0.459494,12.40471,2.088067,-1
18,F,0,1,15,1,1,57,1,4887,1,0.07450722,6.245723,0.6561096,-1
18,F,0,1,15,2,1,60,4,2742,0,0.2520435,6.537296,2.138173,-1
18,F,0,1,15,3,2,58,2,7098,4,0.08421455,12.39941,0.3810355,-1
18,F,0,1,15,4,2,57,1,2020,0,0.945398,12.30903,4.243902,-1
18,F,0,1,15,5,1,59,3,2620,0,0.04221407,6.417305,0.3620769,-1
18,F,0,1,15,6,1,58,2,1476,0,0.3656509,6.582359,3.043175,-1
18,F,0,1,15,7,2,59,3,5442,3,0.0446215,12.21514,0.2046302,-1
18,F,0,1,15,8,2,60,4,4276,0,2.834925E-08,12.48697,0,-1
18,F,0,1,16,1,1,61,1,2331,0,0.3000452,6.255033,2.622341,-1
18,F,0,1,16,2,2,62,2,3676,1,0.4491927,12.40551,2.035094,-1
18,F,0,1,16,3,1,64,4,3520,0,0.2562155,6.566107,2.135975,-1
18,F,0,1,16,4,1,63,3,4553,0,0.05513198,6.46203,0.4668813,-1
18,F,0,1,16,5,2,64,4,4542,0,0.4136952,12.532,1.86603,-1
18,F,0,1,16,6,2,63,3,2798,1,0.01935079,12.30202,0.08622923,-1
18,F,0,1,16,7,1,62,2,1287,0,0.2792455,6.608013,2.308086,-1
18,F,0,1,16,8,2,61,1,1253,0,0.8428558,12.33604,3.777298,-1
18,F,0,1,17,1,4,67,3,2253,0,0.1638063,12.29749,0.7436213,-1
18,F,0,1,17,2,3,68,4,2276,0,0.1844574,6.580337,1.516461,-1
18,F,0,1,17,3,4,66,2,1176,0,0.2479005,12.42153,1.111708,-1
18,F,0,1,17,4,3,65,1,3264,2,0.03855292,6.169477,0.3409232,-1
18,F,0,1,17,5,3,66,2,7798,0,0.2345753,6.603085,1.922848,-1
18,F,0,1,17,6,3,67,3,3553,0,0.4907989,6.48746,4.192645,-1
18,F,0,1,17,7,4,65,1,1642,0,0.460155,12.34362,2.079426,-1
18,F,0,1,17,8,4,68,4,9999,0,-1,-1,-1,-1
18,F,0,1,18,1,4,70,2,3209,0,0.309758,12.38867,1.407921,-1
18,F,0,1,18,2,3,71,3,2620,0,1.231648E-07,6.400029,0,-1
18,F,0,1,18,3,4,69,1,2275,1,0.4987329,12.35242,2.290978,-1
18,F,0,1,18,4,3,70,2,2242,0,0.1684588,6.619998,1.382959,-1
18,F,0,1,18,5,4,71,3,7753,3,0.6477413,12.3084,2.975127,-1
18,F,0,1,18,6,4,72,4,2653,1,0.6832474,12.45152,3.110805,-1
18,F,0,1,18,7,3,69,1,1420,0,0.3341744,6.224087,2.917523,-1
18,F,0,1,18,8,3,72,4,4275,1,7.636232E-08,6.578009,0,-1
18,F,0,1,19,1,3,73,1,1687,0,0.4792681,6.231749,4.253628,-1
18,F,0,1,19,2,4,76,4,2864,0,0.453822,12.45799,2.056713,-1
18,F,0,1,19,3,4,73,1,2264,0,0.776473,12.41539,3.497824,-1
18,F,0,1,19,4,3,75,3,4020,0,6.199401E-08,6.445877,0,-1
18,F,0,1,19,5,4,74,2,2220,0,0.3614562,12.44904,1.633147,-1
18,F,0,1,19,6,3,76,4,4287,1,0.2698206,6.581436,2.216732,-1
18,F,0,1,19,7,3,74,2,2420,0,0.4262595,6.618539,3.475868,-1
18,F,0,1,19,8,4,75,3,2298,0,0.3345896,12.29476,1.529183,-1
18,F,0,1,20,1,3,80,4,3042,1,0.08026496,6.594547,0.6708556,-1
18,F,0,1,20,2,4,79,3,2787,0,0.9773259,12.31086,4.512321,-1
18,F,0,1,20,3,4,77,1,2609,0,0.5465756,12.30947,2.509753,-1
18,F,0,1,20,4,4,78,2,1942,0,0.5244862,12.5022,2.373803,-1
18,F,0,1,20,5,3,77,1,2554,1,0.1539231,6.230916,1.346248,-1
18,F,0,1,20,6,4,80,4,4598,1,0.9220114,12.48639,4.138011,-1
18,F,0,1,20,7,3,79,3,3365,0,0.2279151,6.466638,1.941889,-1
18,F,0,1,20,8,3,78,2,4609,2,0.3280386,6.645643,2.698419,-1
18,F,0,1,20,1,2,80,4,5242,0,1.474429E-07,12.54889,0,-1
18,F,0,1,20,2,2,78,2,1598,0,0.28717,12.45517,1.289526,-1
18,F,0,1,20,3,1,79,3,4309,1,0.3181363,6.477623,2.68066,-1
18,F,0,1,20,4,1,78,2,3320,1,0.2428817,6.635619,1.990561,-1
18,F,0,1,20,5,1,77,1,2665,0,0.184745,6.281126,1.613254,-1
18,F,0,1,20,6,1,80,4,2653,0,0.420615,6.615938,3.419764,-1
18,F,0,1,20,7,2,79,3,3387,0,0.3258415,12.325,1.485299,-1
18,F,0,1,20,8,2,77,1,2165,0,0.6421882,12.35679,2.890899,-1
18,F,0,1,21,1,1,84,4,2776,0,8.73922E-08,6.629643,0,-1
18,F,0,1,21,2,1,81,1,1365,0,0.02740771,6.304188,0.2398483,-1
18,F,0,1,21,3,2,83,3,1887,0,0.3905289,12.3345,1.77244,-1
18,F,0,1,21,4,2,82,2,1642,0,0.873788,12.45897,3.970544,-1
18,F,0,1,21,5,1,83,3,3020,0,0.04040138,6.499794,0.3443497,-1
18,F,0,1,21,6,2,84,4,3120,0,0.2710147,12.55331,1.215953,-1
18,F,0,1,21,7,1,82,2,1709,0,4.304064E-08,6.64766,0,-1
18,F,0,1,21,8,2,81,1,1676,0,0.9527635,12.35905,4.263332,-1
18,F,0,1,22,1,1,87,3,2698,0,1.156082E-07,6.498778,0,-1
18,F,0,1,22,2,1,86,2,1654,0,0.5420073,6.645998,4.405267,-1
18,F,0,1,22,3,2,87,3,2898,1,0.5603054,12.32012,2.554433,-1
18,F,0,1,22,4,2,88,4,2542,0,0.08472139,12.54988,0.3794918,-1
18,F,0,1,22,5,2,85,1,1820,0,0.9891138,12.3663,4.423813,-1
18,F,0,1,22,6,1,88,4,3920,2,0.02172557,6.637675,0.1769387,-1
18,F,0,1,22,7,1,85,1,1698,0,0.3376703,6.306652,2.931446,-1
18,F,0,1,22,8,2,86,2,2420,1,0.2214089,12.45022,0.9940628,-1
18,F,0,1,23,1,2,92,4,9999,0,-1,-1,-1,-1
18,F,0,1,23,2,1,89,1,2576,0,0.2526788,6.295723,2.221671,-1
18,F,0,1,23,3,1,90,2,1198,0,0.08287899,6.632534,0.6821364,-1
18,F,0,1,23,4,2,89,1,1454,0,0.01472391,12.35261,0.0656106,-1
18,F,0,1,23,5,2,91,3,2909,0,1.452823E-07,12.30015,0.01978234,-1
18,F,0,1,23,6,1,92,4,2753,1,0.3116862,6.59059,2.547143,-1
18,F,0,1,23,7,2,90,2,1187,0,0.2175454,12.46852,0.9721684,-1
18,F,0,1,23,8,1,91,3,2809,0,0.4571596,6.44639,3.924708,-1
18,F,0,1,24,1,1,96,4,2664,0,0.3851992,6.59325,3.18383,-1
18,F,0,1,24,2,1,93,1,1531,0,0.1422952,6.300445,1.239858,-1
18,F,0,1,24,3,2,95,3,4342,0,0.6044225,12.30917,2.783826,-1
18,F,0,1,24,4,1,94,2,1764,0,0.3990317,6.638913,3.24522,-1
18,F,0,1,24,5,2,93,1,1587,0,0.6940607,12.36506,3.108854,-1
18,F,0,1,24,6,2,94,2,1398,0,1.010128,12.46685,4.581634,-1
18,F,0,1,24,7,1,95,3,3442,0,0.004043956,6.449662,0.03426402,-1
18,F,0,1,24,8,2,96,4,5809,0,0.1247982,12.53712,0.5605795,-1
18,F,0,1,25,1,2,99,3,2587,0,0.7726704,12.3025,3.558205,-1
18,F,0,1,25,2,2,97,1,1276,0,0.4132487,12.37719,1.855302,-1
18,F,0,1,25,3,2,98,2,1098,0,0.7859917,12.46836,3.57982,-1
18,F,0,1,25,4,1,100,4,3587,0,0.4006735,6.592825,3.29984,-1
18,F,0,1,25,5,1,97,1,1765,0,0.4975731,6.30648,4.304842,-1
18,F,0,1,25,6,1,98,2,1598,0,0.2416483,6.640828,1.973578,-1
18,F,0,1,25,7,2,100,4,2887,0,0.3141313,12.54095,1.414715,-1
18,F,0,1,25,8,1,99,3,2865,0,2.438948E-07,6.456217,0,-1
18,F,0,1,26,1,2,102,2,1109,0,0.7687448,12.46658,3.416499,-1
18,F,0,1,26,2,2,104,4,1598,0,0.3237936,12.53975,1.461257,-1
18,F,0,1,26,3,1,103,3,2209,0,0.450601,6.461393,3.867461,-1
18,F,0,1,26,4,2,101,1,1287,0,0.8947346,12.37227,3.997088,-1
18,F,0,1,26,5,1,102,2,1409,0,0.1817196,6.645753,1.488983,-1
18,F,0,1,26,6,2,103,3,1653,0,0.4140009,12.29477,1.905159,-1
18,F,0,1,26,7,1,104,4,3276,1,6.928546E-08,6.605339,0,-1
18,F,0,1,26,8,1,101,1,1431,0,0.2709466,6.303106,2.35576,-1
18,F,0,1,27,1,1,108,4,3165,0,0.1469114,6.603184,1.205285,-1
18,F,0,1,27,2,1,105,1,1976,0,0.157122,6.304618,1.37487,-1
18,F,0,1,27,3,1,107,3,2598,0,0.4499892,6.468358,3.855899,-1
18,F,0,1,27,4,2,106,2,6442,3,0.6192239,12.42373,2.788533,-1
18,F,0,1,27,5,2,108,4,1731,0,0.3064251,12.53758,1.38126,-1
18,F,0,1,27,6,1,106,2,1831,0,0.1180267,6.641496,0.9685385,-1
18,F,0,1,27,7,2,107,3,2242,0,0.4503425,12.2986,2.060706,-1
18,F,0,1,27,8,2,105,1,2364,1,0.8182054,12.36752,3.69141,-1
18,F,0,1,28,1,2,110,2,1342,0,0.9749108,12.45836,4.464316,-1
18,F,0,1,28,2,1,111,3,3098,0,0.2176168,6.458634,1.8612,-1
18,F,0,1,28,3,2,109,1,1553,0,0.4461323,12.35228,2.041527,-1
18,F,0,1,28,4,1,112,4,3853,1,0.02284812,6.619264,0.1876719,-1
18,F,0,1,28,5,1,109,1,1320,0,0.2554459,6.286016,2.262351,-1
18,F,0,1,28,6,1,110,2,1342,0,0.4193825,6.645412,3.410534,-1
18,F,0,1,28,7,2,112,4,4609,2,0.204371,12.38052,0.9268292,-1
18,F,0,1,28,8,2,111,3,5353,2,0.6737417,12.23557,3.119101,-1
18,F,0,1,29,1,1,113,1,2631,0,0.24855,6.295653,2.162475,-1
18,F,0,1,29,2,2,115,3,3042,0,0.01213342,12.30936,0.05595291,-1
18,F,0,1,29,3,1,116,4,3442,0,0.3536642,6.598693,2.88344,-1
18,F,0,1,29,4,2,114,2,2831,1,0.3843817,12.4423,1.716802,-1
18,F,0,1,29,5,1,115,3,3098,0,0.02989413,6.462073,0.254109,-1
18,F,0,1,29,6,2,113,1,1909,0,0.6859016,12.35212,3.073961,-1
18,F,0,1,29,7,2,116,4,1798,0,0.3241714,12.52653,1.449154,-1
18,F,0,1,29,8,1,114,2,1431,0,0.1691589,6.632243,1.397458,-1
18,F,0,1,30,1,1,117,1,1820,0,0.4018201,6.29461,3.495584,-1
18,F,0,1,30,2,1,120,4,5131,1,1.54407E-07,6.608202,0,-1
18,F,0,1,30,3,1,118,2,1176,0,0.09995631,6.639884,0.8211529,-1
18,F,0,1,30,4,2,119,3,3087,0,0.159354,12.30871,0.7244276,-1
18,F,0,1,30,5,2,118,2,1809,1,2.151427E-07,12.45151,0.01978234,-1
18,F,0,1,30,6,1,119,3,3753,0,0.3447958,6.46608,2.910469,-1
18,F,0,1,30,7,2,117,1,1576,0,0.6759016,12.37603,3.028408,-1
18,F,0,1,30,8,2,120,4,1698,0,0.330951,12.53931,1.490822,-1
18,F,0,1,31,1,2,123,3,2931,0,0.249774,12.31656,1.134532,-1
18,F,0,1,31,2,1,124,4,3142,0,0.2967169,6.612846,2.4901,-1
18,F,0,1,31,3,1,122,2,1376,0,0.3969785,6.643474,3.235493,-1
18,F,0,1,31,4,2,121,1,2331,1,0.6587483,12.35734,2.956646,-1
18,F,0,1,31,5,2,124,4,7553,0,0.5470434,12.54467,2.476781,-1
18,F,0,1,31,6,2,122,2,1231,0,0.5826617,12.45794,2.64375,-1
18,F,0,1,31,7,1,121,1,2198,0,5.748724E-08,6.303073,0,-1
18,F,0,1,31,8,1,123,3,3142,0,0.3319845,6.464105,2.831168,-1
18,F,0,1,32,1,1,125,1,1720,0,1.989663E-07,6.301169,0,-1
18,F,0,1,32,2,1,128,4,4676,0,0.2308152,6.601458,1.888341,-1
18,F,0,1,32,3,2,126,2,1576,0,0.9341624,12.46522,4.19848,-1
18,F,0,1,32,4,1,127,3,2565,0,0.07364026,6.473127,0.6268256,-1
18,F,0,1,32,5,2,128,4,1787,0,0.2983609,12.54941,1.335302,-1
18,F,0,1,32,6,1,126,2,4209,3,1.712417E-08,6.641322,0,-1
18,F,0,1,32,7,2,127,3,2531,0,0.2291404,12.3154,1.044177,-1
18,F,0,1,32,8,2,125,1,2042,0,0.9103387,12.37321,4.068809,-1
18,F,0,1,33,1,1,130,2,1531,0,0.08234393,6.645682,0.6769533,-1
18,F,0,1,33,2,2,132,4,6076,0,0.5103787,12.54336,2.286703,-1
18,F,0,1,33,3,1,131,3,3042,0,1.360602E-07,6.467665,0,-1
18,F,0,1,33,4,1,129,1,1787,0,2.362231E-08,6.303334,0,-1
18,F,0,1,33,5,1,132,4,3298,0,0.3509181,6.604457,2.869012,-1
18,F,0,1,33,6,2,131,3,2220,0,0.9384393,12.31395,4.327893,-1
18,F,0,1,33,7,2,130,2,1765,0,1.048762,12.47544,4.649705,-1
18,F,0,1,33,8,2,129,1,2031,0,0.6953292,12.3701,3.114076,-1
18,F,0,1,34,1,1,135,3,2765,0,0.4133816,6.475296,3.541769,-1
18,F,0,1,34,2,2,133,1,1442,0,1.003988,12.36267,4.522986,-1
18,F,0,1,34,3,1,136,4,2520,0,0.5583295,6.604995,4.573632,-1
18,F,0,1,34,4,1,134,2,1398,0,0.253825,6.644231,2.068195,-1
18,F,0,1,34,5,2,135,3,2553,0,1.775293E-07,12.31748,0,-1
18,F,0,1,34,6,2,134,2,3454,1,0.8839067,12.44397,4.021802,-1
18,F,0,1,34,7,1,133,1,1354,0,6.171449E-08,6.287867,0,-1
18,F,0,1,34,8,2,136,4,3376,0,0.653119,12.54686,2.933716,-1
18,F,0,1,35,1,1,138,2,1464,0,0.4596382,6.643626,3.74732,-1
18,F,0,1,35,2,1,140,4,3109,0,0.3335867,6.619864,2.744951,-1
18,F,0,1,35,3,1,137,1,3676,2,0.3103111,6.281805,2.71296,-1
18,F,0,1,35,4,2,138,2,4798,3,0.8791721,12.38062,3.928747,-1
18,F,0,1,35,5,2,137,1,1587,0,0.6823627,12.33638,3.081784,-1
18,F,0,1,35,6,2,139,3,2254,0,0.4504256,12.33054,2.070465,-1
18,F,0,1,35,7,2,140,4,2620,0,0.5677146,12.55173,2.555429,-1
18,F,0,1,35,8,1,139,3,3042,0,0.549105,6.483073,4.676422,-1
18,F,0,1,37,1,4,145,1,1965,0,0.8718512,12.35218,3.96304,-1
18,F,0,1,37,2,4,146,2,4864,3,0.1644515,12.22595,0.7499101,-1
18,F,0,1,37,3,3,147,3,2486,0,0.2476097,6.331669,2.156402,-1
18,F,0,1,37,4,3,148,4,2120,0,0.5163513,6.452648,4.354871,-1
18,F,0,1,37,5,4,147,3,1798,0,1.027345,12.0894,4.81906,-1
18,F,0,1,37,6,4,148,4,1865,0,0.3900955,12.29515,1.796458,-1
18,F,0,1,37,7,3,146,2,4331,0,0.3168027,6.442308,2.698419,-1
18,F,0,1,37,8,3,145,1,1564,0,0.06229576,6.026773,0.5626699,-1
18,F,0,1,38,1,4,150,2,1275,0,0.4158584,12.21351,1.917855,-1
18,F,0,1,38,2,3,152,4,3298,1,0.2011259,6.445085,1.697659,-1
18,F,0,1,38,3,4,149,1,1209,0,0.9713789,12.11778,4.544761,-1
18,F,0,1,38,4,3,150,2,1898,1,1.524494E-07,6.407836,0,-1
18,F,0,1,38,5,4,152,4,5764,0,0.9813461,12.24714,4.529651,-1
18,F,0,1,38,6,4,151,3,5353,1,0.6405008,12.09921,2.995652,-1
18,F,0,1,38,7,3,149,1,1765,0,1.393422E-07,6.005888,0,-1
18,F,0,1,38,8,3,151,3,4320,0,0.5022664,6.478984,4.285235,-1
18,F,0,1,39,1,3,154,2,1209,0,0.2670948,6.654403,2.181129,-1
18,F,0,1,39,2,3,156,4,3553,0,0.2577431,6.639135,2.143476,-1
18,F,0,1,39,3,4,155,3,2309,0,0.9950939,12.34716,4.57941,-1
18,F,0,1,39,4,4,154,2,2342,1,0.4231336,12.47265,1.919894,-1
18,F,0,1,39,5,3,153,1,1776,0,0.1892135,6.26507,1.641752,-1
18,F,0,1,39,6,3,155,3,3476,0,0.2258336,6.472661,1.913053,-1
18,F,0,1,39,7,4,153,1,3320,2,1.045516,12.42393,4.774627,-1
18,F,0,1,39,8,4,156,4,1409,0,0.5922056,12.50497,2.631506,-1
18,F,0,1,40,1,4,158,2,1576,0,1.090816E-07,12.46783,0,-1
18,F,0,1,40,2,4,159,3,2131,0,0.5337371,12.39148,2.439596,-1
18,F,0,1,40,3,3,158,2,1676,0,0.1145626,6.659424,0.9421154,-1
18,F,0,1,40,4,4,157,1,1653,0,0.9030447,12.36597,4.087537,-1
18,F,0,1,40,5,4,160,4,1820,0,0.3440608,12.50751,1.547249,-1
18,F,0,1,40,6,3,157,1,2353,1,0.04884413,6.250513,0.4265846,-1
18,F,0,1,40,7,3,160,4,2365,0,0.3089996,6.662569,2.559791,-1
18,F,0,1,40,8,3,159,3,2786,0,0.1984294,6.456151,1.68957,-1
18,F,0,1,41,1,1,162,2,2187,1,0.2136254,6.412702,1.839411,-1
18,F,0,1,41,2,2,161,1,2953,1,0.4313561,12.15685,1.975461,-1
18,F,0,1,41,3,2,163,3,2998,0,0.3970003,12.12923,1.85224,-1
18,F,0,1,41,4,1,161,1,1031,0,0.1620178,6.084014,1.458576,-1
18,F,0,1,41,5,1,164,4,3353,1,0.1153847,6.44991,0.9693463,-1
18,F,0,1,41,6,1,163,3,2709,0,0.520411,6.313779,4.490084,-1
18,F,0,1,41,7,2,164,4,6620,0,0.4801294,12.3262,2.201226,-1
18,F,0,1,41,8,2,162,2,1209,0,1.731545E-07,12.20231,0,-1
18,F,0,1,42,1,2,165,1,1598,0,0.7287077,12.119,3.393153,-1
18,F,0,1,42,2,2,167,3,1831,0,0.09893242,12.07516,0.4588492,-1
18,F,0,1,42,3,1,168,4,4131,1,0.02348698,6.419889,0.199792,-1
18,F,0,1,42,4,2,166,2,1387,1,0.7328303,12.21249,3.334015,-1
18,F,0,1,42,5,1,165,1,1809,0,0.3405451,6.092177,3.132754,-1
18,F,0,1,42,6,1,166,2,2109,1,0.3296878,6.413781,2.77001,-1
18,F,0,1,42,7,2,168,4,3709,3,0.2383532,12.30788,1.086785,-1
18,F,0,1,42,8,1,167,3,3364,0,0.1679453,6.328839,1.450909,-1
18,F,0,1,43,1,2,172,4,2387,0,0.83775,12.31782,3.792147,-1
18,F,0,1,43,2,1,169,1,2209,0,0.131697,6.094429,1.186137,-1
18,F,0,1,43,3,1,170,2,2020,0,0.4213974,6.425726,3.535184,-1
18,F,0,1,43,4,1,171,3,2998,0,0.2835418,6.322507,2.478361,-1
18,F,0,1,43,5,2,169,1,1465,0,0.02945543,12.14619,0.1356209,-1
18,F,0,1,43,6,2,171,3,4153,0,0.4182957,12.11298,1.954246,-1
18,F,0,1,43,7,1,172,4,4231,2,0.3243737,6.440697,2.729146,-1
18,F,0,1,43,8,2,170,2,1476,0,0.154158,12.25004,0.7044336,-1
18,F,0,1,44,1,1,175,3,4076,1,0.06620967,6.332731,0.5753932,-1
18,F,0,1,44,2,1,173,1,7287,0,0.2160666,6.101707,1.96931,-1
18,F,0,1,44,3,2,176,4,2598,0,0.4970167,12.36392,2.271847,-1
18,F,0,1,44,4,2,174,2,998,0,0.8071271,12.27312,3.72168,-1
18,F,0,1,44,5,1,176,4,3698,1,0.4792347,6.415773,3.998803,-1
18,F,0,1,44,6,2,175,3,2187,0,0.5952231,12.09159,2.776221,-1
18,F,0,1,44,7,2,173,1,1265,0,0.994141,12.13309,4.646882,-1
18,F,0,1,44,8,1,174,2,4153,3,0.4790424,6.484964,4.142977,-1
18,F,0,1,45,1,2,177,1,2720,2,0.3112288,12.13879,1.426425,-1
18,F,0,1,45,2,1,178,2,6498,5,0.3236924,6.675133,2.720237,-1
18,F,0,1,45,3,2,180,4,3098,1,0.2966084,12.4563,1.336034,-1
18,F,0,1,45,4,1,177,1,2198,1,0.04202886,6.219428,0.373777,-1
18,F,0,1,45,5,1,179,3,2876,0,0.3418542,6.391424,2.966099,-1
18,F,0,1,45,6,1,180,4,3520,0,0.1030774,6.566677,0.8515682,-1
18,F,0,1,45,7,2,179,3,2808,0,0.8511738,12.24534,3.937709,-1
18,F,0,1,45,8,2,178,2,1009,0,0.04052518,12.3991,0.1823843,-1
18,F,0,1,46,1,1,183,3,3509,0,0.02860181,6.39186,0.2470816,-1
18,F,0,1,46,2,1,184,4,2520,0,0.1567009,6.526871,1.299353,-1
18,F,0,1,46,3,2,181,1,1231,0,0.8243166,12.33057,3.743399,-1
18,F,0,1,46,4,2,184,4,2131,0,1.770098E-07,12.48805,0,-1
18,F,0,1,46,5,2,183,3,2954,0,0.5008082,12.26048,2.315198,-1
18,F,0,1,46,6,1,182,2,1498,0,0.0905527,6.596806,0.751474,-1
18,F,0,1,46,7,1,181,1,1565,0,0.1882386,6.266087,1.663893,-1
18,F,0,1,46,8,2,182,2,942,0,0.5215883,12.42965,2.340423,-1
18,F,0,1,47,1,2,187,3,1742,0,0.5746648,12.26396,2.658738,-1
18,F,0,1,47,2,2,185,1,1176,0,0.03793791,12.33801,0.1724585,-1
18,F,0,1,47,3,2,188,4,2664,0,0.8978463,12.48574,4.072224,-1
18,F,0,1,47,4,1,187,3,2631,0,0.3064184,6.413116,2.606393,-1
18,F,0,1,47,5,2,186,2,1087,0,0.9765135,12.43574,4.413352,-1
18,F,0,1,47,6,1,188,4,3909,1,0.1700385,6.543288,1.406113,-1
18,F,0,1,47,7,1,185,1,1376,0,0.09371876,6.283034,0.8223435,-1
18,F,0,1,47,8,1,186,2,1665,1,6.569753E-08,6.604423,0,-1
18,F,0,1,48,1,2,192,4,2509,0,0.5145875,12.49596,2.317058,-1
18,F,0,1,48,2,2,190,2,1387,0,0.8300598,12.44205,3.696446,-1
18,F,0,1,48,3,1,189,1,1576,0,0.3846908,6.300507,3.343866,-1
18,F,0,1,48,4,1,192,4,4476,1,0.03364606,6.548189,0.2811602,-1
18,F,0,1,48,5,1,190,2,1398,0,0.1226254,6.660206,1.008912,-1
18,F,0,1,48,6,1,191,3,4376,1,0.190153,6.419361,1.641037,-1
18,F,0,1,48,7,2,189,1,1076,0,0.4718252,12.40423,2.120341,-1
18,F,0,1,48,8,2,191,3,1965,0,0.1308087,12.29935,0.5983981,-1
18,F,0,1,49,1,1,196,4,1876,0,0.4379687,6.568412,3.61303,-1
18,F,0,1,49,2,1,194,2,1276,0,0.1621302,6.65819,1.323674,-1
18,F,0,1,49,3,2,195,3,2398,1,0.6565953,12.29186,3.016361,-1
18,F,0,1,49,4,2,193,1,1153,0,0.8357725,12.40993,3.776313,-1
18,F,0,1,49,5,2,196,4,1453,0,0.5975006,12.5618,2.669172,-1
18,F,0,1,49,6,2,194,2,998,0,0.15522,12.49981,0.6963314,-1
18,F,0,1,49,7,1,193,1,2076,0,0.1800126,6.352966,1.554693,-1
18,F,0,1,49,8,1,195,3,3898,0,0.2182644,6.437259,1.879198,-1
18,F,0,1,50,1,1,197,1,1287,0,0.2027127,6.355947,1.746861,-1
18,F,0,1,50,2,1,200,4,2787,1,0.2664109,6.59207,2.179873,-1
18,F,0,1,50,3,2,197,1,1253,0,0.5286077,12.42612,2.359745,-1
18,F,0,1,50,4,2,198,2,1442,1,0.3045959,12.51267,1.360562,-1
18,F,0,1,50,5,2,199,3,2020,0,0.4274866,12.32402,1.926306,-1
18,F,0,1,50,6,1,198,2,1442,0,0.4367641,6.673002,3.518474,-1
18,F,0,1,50,7,1,199,3,2809,0,0.3398523,6.445713,2.923489,-1
18,F,0,1,50,8,2,200,4,3164,1,0.1749422,12.56408,0.7813459,-1
18,F,0,1,51,1,1,201,1,1253,0,0.3722067,6.355556,3.216133,-1
18,F,0,1,51,2,2,202,2,1131,0,0.7354898,12.50944,3.334543,-1
18,F,0,1,51,3,1,204,4,2731,0,0.4019875,6.589091,3.277993,-1
18,F,0,1,51,4,1,203,3,2765,0,0.523968,6.44149,4.512364,-1
18,F,0,1,51,5,1,202,2,1553,0,0.1801524,6.675911,1.466204,-1
18,F,0,1,51,6,2,203,3,1831,0,0.7222118,12.32916,3.274528,-1
18,F,0,1,51,7,2,204,4,1375,0,0.2207962,12.56857,0.993866,-1
18,F,0,1,51,8,2,201,1,2298,1,0.1425502,12.4222,0.6431577,-1
18,F,0,1,52,1,2,207,3,2031,0,0.3909577,12.32647,1.771999,-1
18,F,0,1,52,2,1,205,1,1798,0,0.08186308,6.350514,0.709416,-1
18,F,0,1,52,3,1,208,4,2898,0,0.1137131,6.601001,0.9304113,-1
18,F,0,1,52,4,2,206,2,1887,1,0.5488153,12.51193,2.43148,-1
18,F,0,1,52,5,2,205,1,1687,0,0.5123518,12.42785,2.287473,-1
18,F,0,1,52,6,1,206,2,2709,1,2.375666E-07,6.683805,0,-1
18,F,0,1,52,7,2,208,4,3698,2,0.7351996,12.57652,3.306715,-1
18,F,0,1,52,8,1,207,3,4965,0,0.3127444,6.429209,2.696387,-1
18,F,0,1,53,1,2,212,4,4731,0,0.1293534,12.55568,0.5808088,-1
18,F,0,1,53,2,1,211,3,3387,1,9.563087E-08,6.435155,0,-1
18,F,0,1,53,3,1,212,4,6353,3,1.019603E-07,6.603539,0,-1
18,F,0,1,53,4,2,210,2,1198,0,0.3210746,12.50143,1.435314,-1
18,F,0,1,53,5,1,209,1,7876,0,0.3394884,6.360751,2.991139,-1
18,F,0,1,53,6,1,210,2,909,0,0.1527239,6.671732,1.251326,-1
18,F,0,1,53,7,2,209,1,898,0,0.03585469,12.42073,0.1607126,-1
18,F,0,1,53,8,2,211,3,2087,0,0.5945445,12.31532,2.739812,-1
18,F,0,1,54,1,1,214,2,1342,0,2.452748E-07,6.682828,0,-1
18,F,0,1,54,2,2,213,1,776,0,1.288133E-07,12.42416,0.01978234,-1
18,F,0,1,54,3,1,215,3,2353,0,0.08715891,6.421388,0.7478197,-1
18,F,0,1,54,4,2,216,4,5609,1,0.6550808,12.56834,2.940713,-1
18,F,0,1,54,5,2,214,2,853,0,0.9490846,12.50053,4.319694,-1
18,F,0,1,54,6,2,215,3,2142,0,0.3500608,12.31468,1.604862,-1
18,F,0,1,54,7,1,216,4,3886,0,0.09563052,6.583543,0.7888232,-1
18,F,0,1,54,8,1,213,1,1231,0,3.857422E-08,6.363589,0,-1
18,F,0,1,55,1,2,219,3,2198,1,0.5025296,12.31646,2.311222,-1
18,F,0,1,55,2,1,220,4,3342,0,0.1504656,6.577909,1.245212,-1
18,F,0,1,55,3,1,218,2,1054,0,0.5423062,6.677293,4.354557,-1
18,F,0,1,55,4,2,217,1,2198,1,1.471613E-07,12.42907,0,-1
18,F,0,1,55,5,2,218,2,1176,0,0.9881564,12.52198,4.485327,-1
18,F,0,1,55,6,1,219,3,3198,0,0.3945543,6.41248,3.410649,-1
18,F,0,1,55,7,2,220,4,1776,0,0.4687583,12.5611,2.088535,-1
18,F,0,1,55,8,1,217,1,1231,0,0.03918515,6.348452,0.3403488,-1
18,F,0,1,56,1,2,222,2,4075,3,0.4731008,12.46821,2.140186,-1
18,F,0,1,56,2,1,224,4,2254,0,0.0752386,6.584662,0.6211812,-1
18,F,0,1,56,3,2,223,3,2120,0,0.8277165,12.31462,3.815108,-1
18,F,0,1,56,4,2,224,4,2520,0,0.3004426,12.55973,1.349587,-1
18,F,0,1,56,5,1,222,2,1676,1,0.4770084,6.681811,3.856255,-1
18,F,0,1,56,6,2,221,1,1042,0,0.5150482,12.40829,2.346603,-1
18,F,0,1,56,7,1,223,3,2609,0,0.3111364,6.41868,2.686641,-1
18,F,0,1,56,8,1,221,1,1676,0,9.105729E-08,6.355541,0.01978234,-1
18,F,0,1,57,1,4,226,2,1076,0,0.2628632,12.58427,1.170359,-1
18,F,0,1,57,2,4,228,4,1165,0,0.3773922,12.50568,1.687948,-1
18,F,0,1,57,3,3,225,1,1542,0,0.02035731,6.310505,0.1758294,-1
18,F,0,1,57,4,3,227,3,2953,0,0.3356628,6.393542,2.86553,-1
18,F,0,1,57,5,3,228,4,2886,0,0.326509,6.606748,2.734448,-1
18,F,0,1,57,6,4,225,1,1787,0,1.038602,12.42723,4.670302,-1
18,F,0,1,57,7,4,227,3,2375,0,0.02763528,12.30802,0.1266688,-1
18,F,0,1,57,8,3,226,2,2331,0,0.4541378,6.697749,3.685305,-1
18,F,0,1,58,1,4,231,3,3398,0,0.309361,12.32368,1.419824,-1
18,F,0,1,58,2,4,229,1,1076,0,0.756139,12.4286,3.425598,-1
18,F,0,1,58,3,4,230,2,1031,0,0.4881948,12.52093,2.178615,-1
18,F,0,1,58,4,3,232,4,3687,1,0.1448981,6.583985,1.197793,-1
18,F,0,1,58,5,3,229,1,1387,0,0.3002335,6.28606,2.648189,-1
18,F,0,1,58,6,4,232,4,2354,0,0.712855,12.54814,3.179893,-1
18,F,0,1,58,7,3,231,3,2820,1,0.303542,6.393715,2.630315,-1
18,F,0,1,58,8,3,230,2,1354,0,0.539351,6.672883,4.329522,-1
18,F,0,1,59,1,3,236,4,2976,0,0.2307651,6.588238,1.930365,-1
18,F,0,1,59,2,3,235,3,3709,0,0.3393368,6.36281,2.910738,-1
18,F,0,1,59,3,4,233,1,1076,0,1.111923E-08,12.48303,0,-1
18,F,0,1,59,4,4,234,2,1087,0,2.050597E-08,12.513,0,-1
18,F,0,1,59,5,4,235,3,1998,0,2.192904E-08,12.29618,0,-1
18,F,0,1,59,6,3,233,1,1498,0,0.2637572,6.306544,2.270037,-1
18,F,0,1,59,7,4,236,4,1242,0,1.695105E-07,12.49827,0,-1
18,F,0,1,59,8,3,234,2,1209,0,0.2646189,6.674277,2.143384,-1
18,F,0,1,60,1,4,240,4,1631,0,0.8340634,12.49055,3.790804,-1
18,F,0,1,60,2,4,237,1,931,0,0.4153911,12.48087,1.880552,-1
18,F,0,1,60,3,4,239,3,1653,0,0.7744027,12.30467,3.479247,-1
18,F,0,1,60,4,3,238,2,853,0,0.3251162,6.676137,2.627859,-1
18,F,0,1,60,5,3,237,1,987,0,0.1458971,6.306435,1.261605,-1
18,F,0,1,60,6,3,240,4,3487,1,0.290152,6.557495,2.408754,-1
18,F,0,1,60,7,3,239,3,3142,0,0.345501,6.383561,2.945635,-1
18,F,0,1,60,8,4,238,2,720,0,0.2142287,12.52118,0.9532654,-1
18,F,0,1,61,1,2,244,4,2642,1,0.3935042,12.5496,1.766579,-1
18,F,0,1,61,2,1,243,3,2287,0,0.5309682,6.391258,4.607129,-1
18,F,0,1,61,3,1,244,4,2031,0,0.5544006,6.54426,4.614946,-1
18,F,0,1,61,4,2,241,1,754,0,0.6528637,12.42399,2.920273,-1
18,F,0,1,61,5,2,243,3,1742,0,0.532502,12.29311,2.409972,-1
18,F,0,1,61,6,1,242,2,898,0,0.5657083,6.678996,4.571533,-1
18,F,0,1,61,7,1,241,1,1720,1,0.0888025,6.362557,0.7674484,-1
18,F,0,1,61,8,2,242,2,820,0,1.001231,12.52739,4.525324,-1
18,F,0,1,62,1,2,248,4,4042,0,0.6382379,12.40369,2.884459,-1
18,F,0,1,62,2,1,246,2,1509,1,0.1702277,6.501389,1.421752,-1
18,F,0,1,62,3,1,247,3,3442,3,0.5205832,6.34755,4.548035,-1
18,F,0,1,62,4,1,245,1,1276,0,0.04215934,6.180376,0.3753442,-1
18,F,0,1,62,5,1,248,4,5108,3,0.215591,6.478443,1.843662,-1
18,F,0,1,62,6,2,245,1,1965,2,0.8861516,12.19541,4.016443,-1
18,F,0,1,62,7,2,246,2,1720,1,2.414748E-07,12.26527,0,-1
18,F,0,1,62,8,2,247,3,2398,1,0.4380745,12.14464,2.029315,-1
18,F,0,1,1,1,8,4,4,5808,0,1.797656,12.31329,8.299619,-1
18,F,0,1,1,2,6,1,1,2731,0,11.18422,12.24734,65.9508,-1
18,F,0,1,1,3,5,2,2,4209,0,3.071421,6.450444,28.43467,-1
18,F,0,1,1,4,7,3,3,6198,0,3.020657,6.376747,26.80667,-1
18,F,0,1,1,5,8,2,2,2820,0,1.190735,12.24421,5.388998,-1
18,F,0,1,1,6,5,1,1,6465,0,0.850692,6.149062,7.541684,-1
18,F,0,1,1,7,6,2,2,2642,0,8.69578,12.28892,45.0409,-1
18,F,0,1,1,8,8,1,1,3209,0,6.93772,12.2764,34.41109,-1
18,F,0,1,1,9,6,4,4,1265,0,2.219768,12.34908,10.23704,-1
18,F,0,1,1,10,7,1,1,1820,0,2.460878,6.100039,23.76341,-1
18,F,0,1,1,11,7,4,4,2264,0,3.327418,6.463355,30.98494,-1
18,F,0,1,1,12,6,3,3,842,0,6.702886,12.17735,33.34935,-1
18,F,0,1,1,13,5,4,4,942,0,5.000187,6.45912,50.72606,-1
18,F,0,1,1,14,5,3,3,1087,0,0.6014819,6.367881,5.24303,-1
18,F,0,1,1,15,7,2,2,4998,0,3.588501,6.416712,33.99688,-1
18,F,0,1,1,16,8,3,3,564,0,4.606248,12.23278,22.12012,-1
18,F,0,1,2,1,8,3,3,520,0,3.697403,12.22764,17.39317,-1
18,F,0,1,2,2,5,4,4,420,0,3.903575,6.475383,34.97286,-1
18,F,0,1,2,3,5,2,2,476,0,3.559509,6.444235,33.20768,-1
18,F,0,1,2,4,6,1,1,442,0,8.202404,12.21767,42.17181,-1
18,F,0,1,2,5,6,2,2,287,0,4.466725,12.2781,21.29242,-1
18,F,0,1,2,6,6,3,3,620,0,2.100746,12.15465,9.829154,-1
18,F,0,1,2,7,5,1,1,853,0,0.8884519,6.144252,7.931524,-1
18,F,0,1,2,8,7,4,4,608,0,1.412879,6.481504,12.15304,-1
18,F,0,1,2,9,8,2,2,698,0,5.102866,12.26066,24.5948,-1
18,F,0,1,2,10,7,3,3,1098,0,6.331755,6.425779,80.17796,-1
18,F,0,1,2,11,7,2,2,975,0,4.220109,6.497636,40.50269,-1
18,F,0,1,2,12,8,4,4,1631,0,3.440752,12.33456,16.11312,-1
18,F,0,1,2,13,7,1,1,731,0,1.999285,6.138604,18.65356,-1
18,F,0,1,2,14,6,4,4,764,0,6.592543,12.37575,32.18795,-1
18,F,0,1,2,15,5,3,3,8309,0,0.2131565,6.368492,1.825849,-1
18,F,0,1,2,16,8,1,1,2775,0,2.023637,12.27121,9.375635,-1
