Age, Gender, Awareness Type, Session, Block, Trial, Set, Pattern, Quadrant, Response Time, Num Mistakes, Distance From Target, Camera Distance From Target, Angle Error (Degrees), FC Response
29,F,0,1,1,1,2,4,4,5709,2,1.048619,12.34662,4.74136,-1
29,F,0,1,1,2,2,2,2,6786,1,0.2053844,12.45467,0.9240804,-1
29,F,0,1,1,3,1,3,3,3587,1,0.4219821,6.171138,3.781961,-1
29,F,0,1,1,4,1,1,1,3009,0,0.01635939,6.27141,0.1426525,-1
29,F,0,1,1,5,1,4,4,4186,0,0.2820078,6.487213,2.356259,-1
29,F,0,1,1,6,1,2,2,2198,0,0.4801159,6.477727,4.043993,-1
29,F,0,1,1,7,2,3,3,1964,0,0.536298,12.15415,2.485222,-1
29,F,0,1,1,8,2,1,1,4909,1,0.9846147,12.27391,4.551824,-1
29,F,0,1,2,1,2,8,4,2931,1,0.8785864,12.31773,3.988211,-1
29,F,0,1,2,2,1,6,2,3409,0,0.1571299,6.471524,1.31641,-1
29,F,0,1,2,3,1,8,4,5587,2,0.3859775,6.486818,3.229194,-1
29,F,0,1,2,4,2,7,3,1831,0,0.4595071,12.15755,2.104777,-1
29,F,0,1,2,5,2,6,2,1431,0,0.7385177,12.45202,3.298831,-1
29,F,0,1,2,6,2,5,1,2942,0,0.5226082,12.28066,2.412813,-1
29,F,0,1,2,7,1,7,3,3787,0,0.002860927,6.175573,0.01978234,-1
29,F,0,1,2,8,1,5,1,2765,3,0.5365585,6.311508,4.695693,-1
29,F,0,1,3,1,2,12,4,2253,2,0.2147784,12.32704,0.9739782,-1
29,F,0,1,3,2,2,9,1,2665,1,1.026305,12.28461,4.740782,-1
29,F,0,1,3,3,1,11,3,4387,0,1.13829E-07,6.181448,0,-1
29,F,0,1,3,4,2,10,2,5264,0,0.8550332,12.4795,3.810588,-1
29,F,0,1,3,5,2,11,3,3253,0,0.7332761,12.17503,3.406858,-1
29,F,0,1,3,6,1,12,4,4631,1,0.5479188,6.507905,4.581462,-1
29,F,0,1,3,7,1,9,1,2498,0,0.1706132,6.312852,1.487011,-1
29,F,0,1,3,8,1,10,2,3342,3,0.5163637,6.536569,4.365203,-1
29,F,0,1,4,1,2,16,4,2676,1,0.7347162,12.38678,3.315702,-1
29,F,0,1,4,2,1,14,2,5987,3,0.1956757,6.551421,1.64342,-1
29,F,0,1,4,3,1,16,4,5142,0,0.3557967,6.509839,2.991401,-1
29,F,0,1,4,4,2,14,2,2020,2,1.742824E-07,12.4587,0,-1
29,F,0,1,4,5,1,13,1,2520,1,0.1171323,6.253694,1.028886,-1
29,F,0,1,4,6,1,15,3,3098,1,0.2226276,6.211612,1.934922,-1
29,F,0,1,4,7,2,13,1,3942,1,0.9885553,12.28265,4.556426,-1
29,F,0,1,4,8,2,15,3,1698,0,0.7920431,12.18986,3.653502,-1
29,F,0,1,5,1,1,20,4,5920,1,0.08459993,6.519864,0.7074825,-1
29,F,0,1,5,2,1,18,2,4964,2,0.3861114,6.472605,3.253174,-1
29,F,0,1,5,3,2,20,4,2687,0,0.7846203,12.35459,3.550382,-1
29,F,0,1,5,4,2,19,3,2431,2,0.8291994,12.18899,3.777972,-1
29,F,0,1,5,5,1,17,1,4187,2,0.5217713,6.237206,4.619188,-1
29,F,0,1,5,6,1,19,3,3420,1,0.1540949,6.235799,1.336181,-1
29,F,0,1,5,7,2,18,2,5864,1,0.5151126,12.47966,2.321952,-1
29,F,0,1,5,8,2,17,1,1865,0,0.65082,12.31268,2.979533,-1
29,F,0,1,6,1,2,24,4,2432,0,0.4237036,12.37207,1.913462,-1
29,F,0,1,6,2,1,23,3,2453,1,0.4480581,6.236899,3.892091,-1
29,F,0,1,6,3,2,21,1,4309,1,0.9936178,12.3029,4.583429,-1
29,F,0,1,6,4,2,23,3,2931,0,0.90482,12.19038,4.21101,-1
29,F,0,1,6,5,1,22,2,8509,5,0.09198457,6.479128,0.7735435,-1
29,F,0,1,6,6,1,24,4,1487,1,3.463521E-08,6.549246,0,-1
29,F,0,1,6,7,2,22,2,4531,1,0.3518226,12.47792,1.587206,-1
29,F,0,1,6,8,1,21,1,1509,0,0.3450288,6.261762,3.049216,-1
29,F,0,1,7,1,2,28,4,2909,0,0.8753049,12.44142,3.957552,-1
29,F,0,1,7,2,1,25,1,7731,2,0.1456451,6.288496,1.27993,-1
29,F,0,1,7,3,1,27,3,4965,2,0.3547319,6.194453,3.169965,-1
29,F,0,1,7,4,1,28,4,4753,0,0.2688734,6.547235,2.251598,-1
29,F,0,1,7,5,2,27,3,2587,0,1.038972,12.20786,4.730192,-1
29,F,0,1,7,6,2,26,2,2453,2,0.6557115,12.3444,3.002375,-1
29,F,0,1,7,7,2,25,1,1742,0,0.3185897,12.25202,1.466337,-1
29,F,0,1,7,8,1,26,2,3342,1,0.2355086,6.481732,1.973677,-1
29,F,0,1,8,1,1,31,3,4309,0,0.141674,6.219833,1.242066,-1
29,F,0,1,8,2,2,32,4,1642,0,0.5216947,12.30127,2.368686,-1
29,F,0,1,8,3,1,29,1,2053,0,0.2034514,6.303622,1.778173,-1
29,F,0,1,8,4,2,31,3,3643,1,0.6551309,12.13915,3.025368,-1
29,F,0,1,8,5,1,32,4,4164,0,0.05173096,6.484254,0.4352126,-1
29,F,0,1,8,6,1,30,2,5153,1,0.4143974,6.507826,3.433705,-1
29,F,0,1,8,7,2,29,1,3487,3,0.9804143,12.29396,4.524502,-1
29,F,0,1,8,8,2,30,2,1798,1,1.05921,12.42369,4.860832,-1
29,F,0,1,9,1,1,35,3,3276,0,0.2905539,6.198526,2.54914,-1
29,F,0,1,9,2,2,34,2,1209,0,0.7851867,12.48064,3.500118,-1
29,F,0,1,9,3,1,36,4,7453,0,0.1877124,6.52298,1.57756,-1
29,F,0,1,9,4,2,33,1,1231,0,0.4615886,12.31308,2.084032,-1
29,F,0,1,9,5,2,36,4,2953,0,0.268284,12.36833,1.212407,-1
29,F,0,1,9,6,1,33,1,2965,0,0.09259863,6.286384,0.8067285,-1
29,F,0,1,9,7,2,35,3,1553,0,1.030339,12.20088,4.682868,-1
29,F,0,1,9,8,1,34,2,2520,1,0.05553915,6.487685,0.4702222,-1
29,F,0,1,10,1,2,40,4,1331,0,1.037557,12.38164,4.663167,-1
29,F,0,1,10,2,2,38,2,887,0,0.3953323,12.50061,1.785422,-1
29,F,0,1,10,3,1,37,1,1720,1,0.4716015,6.29133,4.077895,-1
29,F,0,1,10,4,1,38,2,2542,1,0.06458995,6.487205,0.5467969,-1
29,F,0,1,10,5,2,39,3,2287,0,0.3922742,12.19915,1.799289,-1
29,F,0,1,10,6,1,40,4,4031,1,0.1994347,6.550613,1.64782,-1
29,F,0,1,10,7,2,37,1,1331,0,0.8500241,12.31415,3.916367,-1
29,F,0,1,10,8,1,39,3,4142,2,0.1006923,6.22633,0.8816,-1
29,F,0,1,11,1,1,42,2,4442,0,0.02368175,6.488188,0.1988102,-1
29,F,0,1,11,2,1,41,1,1598,0,0.09360631,6.272322,0.8249568,-1
29,F,0,1,11,3,2,44,4,1965,0,7.656399E-08,12.3769,0,-1
29,F,0,1,11,4,2,42,2,854,0,0.2185858,12.48781,0.9783881,-1
29,F,0,1,11,5,2,43,3,3353,0,0.7966611,12.20518,3.622609,-1
29,F,0,1,11,6,2,41,1,1198,0,3.50222E-08,12.31894,0,-1
29,F,0,1,11,7,1,44,4,3709,0,0.002297404,6.552101,0.01978234,-1
29,F,0,1,11,8,1,43,3,2976,0,0.4473773,6.23505,3.906153,-1
29,F,0,1,12,1,1,46,2,3976,0,0.17777,6.491588,1.501808,-1
29,F,0,1,12,2,2,47,3,2298,0,0.272952,12.20091,1.248195,-1
29,F,0,1,12,3,1,45,1,1376,0,0.4906517,6.289349,4.326173,-1
29,F,0,1,12,4,2,48,4,2376,0,0.614642,12.38617,2.758538,-1
29,F,0,1,12,5,1,47,3,3542,2,0.2334684,6.247218,2.022553,-1
29,F,0,1,12,6,1,48,4,1920,1,0.3326851,6.562726,2.745379,-1
29,F,0,1,12,7,2,45,1,964,0,8.85007E-08,12.32213,0,-1
29,F,0,1,12,8,2,46,2,1065,0,0.1248394,12.48474,0.5609285,-1
29,F,0,1,13,1,1,52,4,3553,0,0.3940097,6.558355,3.243591,-1
29,F,0,1,13,2,2,51,3,2420,0,0.4016718,12.20342,1.83323,-1
29,F,0,1,13,3,1,50,2,2876,0,0.2375143,6.485841,2.022553,-1
29,F,0,1,13,4,1,51,3,2531,0,0.5249628,6.246294,4.577313,-1
29,F,0,1,13,5,2,52,4,1553,0,0.166994,12.38949,0.7517344,-1
29,F,0,1,13,6,1,49,1,1265,0,0.311073,6.286234,2.682777,-1
29,F,0,1,13,7,2,50,2,3087,0,0.5369672,12.48953,2.41484,-1
29,F,0,1,13,8,2,49,1,9999,0,-1,-1,-1,-1
29,F,0,1,14,1,1,54,2,3953,0,1.849896E-07,6.491477,0.01978234,-1
29,F,0,1,14,2,2,53,1,1142,0,0.004452799,12.31227,0.02797646,-1
29,F,0,1,14,3,1,56,4,2709,1,0.3912917,6.556826,3.273391,-1
29,F,0,1,14,4,2,55,3,1242,0,0.5006112,12.21322,2.286361,-1
29,F,0,1,14,5,1,53,1,2142,1,3.365088E-08,6.2829,0,-1
29,F,0,1,14,6,2,56,4,2698,1,0.6800681,12.38621,3.043046,-1
29,F,0,1,14,7,2,54,2,1142,0,0.574494,12.49999,2.60827,-1
29,F,0,1,14,8,1,55,3,2354,1,0.4434847,6.242671,3.84634,-1
29,F,0,1,15,1,2,57,1,1409,0,0.4354458,12.31447,2.00506,-1
29,F,0,1,15,2,1,58,2,5053,0,0.1795973,6.485415,1.529439,-1
29,F,0,1,15,3,1,60,4,3587,1,0.1527132,6.565117,1.255386,-1
29,F,0,1,15,4,1,59,3,2653,0,0.4924744,6.246615,4.27558,-1
29,F,0,1,15,5,1,57,1,2609,0,0.005282281,6.287838,0.04423466,-1
29,F,0,1,15,6,2,58,2,3842,0,0.1352255,12.48339,0.6065179,-1
29,F,0,1,15,7,2,60,4,1486,0,0.8424004,12.38348,3.803335,-1
29,F,0,1,15,8,2,59,3,1131,0,0.7003596,12.20794,3.190526,-1
29,F,0,1,16,1,1,62,2,2642,1,0.1304994,6.490524,1.093248,-1
29,F,0,1,16,2,1,64,4,2842,0,0.2411017,6.564789,1.990857,-1
29,F,0,1,16,3,2,61,1,1431,0,0.3921394,12.3167,1.805044,-1
29,F,0,1,16,4,2,63,3,1576,0,0.8068273,12.21126,3.669758,-1
29,F,0,1,16,5,2,62,2,931,0,0.9269994,12.4935,4.222203,-1
29,F,0,1,16,6,1,63,3,2254,2,0.4829966,6.249668,4.208451,-1
29,F,0,1,16,7,2,64,4,1498,0,0.1917676,12.39236,0.8616194,-1
29,F,0,1,16,8,1,61,1,1998,0,0.02657801,6.27231,0.23239,-1
29,F,0,1,17,1,4,66,2,1309,0,0.7857271,12.49263,3.507215,-1
29,F,0,1,17,2,4,65,1,2898,3,0.9607046,12.22248,4.447657,-1
29,F,0,1,17,3,3,68,4,1954,1,2.883353E-07,6.541058,0,-1
29,F,0,1,17,4,3,67,3,2553,0,0.4028606,6.240966,3.507438,-1
29,F,0,1,17,5,3,66,2,1265,0,0.5241154,6.48033,4.412464,-1
29,F,0,1,17,6,4,67,3,1765,0,0.07191344,12.20358,0.3310224,-1
29,F,0,1,17,7,3,65,1,2387,0,0.1583354,6.270469,1.381685,-1
29,F,0,1,17,8,4,68,4,2587,0,0.03194572,12.389,0.14537,-1
29,F,0,1,18,1,3,71,3,2309,0,0.4992351,6.259737,4.318379,-1
29,F,0,1,18,2,3,70,2,1298,0,0.3559696,6.488811,2.995652,-1
29,F,0,1,18,3,4,69,1,3676,0,0.3198084,12.31892,1.463131,-1
29,F,0,1,18,4,3,72,4,2598,2,0.4356595,6.579364,3.576482,-1
29,F,0,1,18,5,4,71,3,1376,0,1.027899,12.21005,4.675207,-1
29,F,0,1,18,6,4,70,2,842,0,0.4322841,12.48459,1.930467,-1
29,F,0,1,18,7,4,72,4,2065,1,0.5459933,12.38324,2.490886,-1
29,F,0,1,18,8,3,69,1,1376,0,0.2124098,6.281678,1.83291,-1
29,F,0,1,19,1,3,75,3,3053,0,0.3397841,6.258653,2.946034,-1
29,F,0,1,19,2,3,74,2,2942,0,0.1398896,6.486429,1.173532,-1
29,F,0,1,19,3,3,76,4,2853,0,0.4474348,6.541707,3.76494,-1
29,F,0,1,19,4,4,75,3,8809,2,0.955192,12.2133,4.343839,-1
29,F,0,1,19,5,4,74,2,3409,1,0.3360028,12.50167,1.514653,-1
29,F,0,1,19,6,3,73,1,4264,0,0.2998691,6.261033,2.634554,-1
29,F,0,1,19,7,4,76,4,2331,1,0.7306145,12.38736,3.342109,-1
29,F,0,1,19,8,4,73,1,987,0,0.01569514,12.3127,0.07132626,-1
29,F,0,1,20,1,4,80,4,1698,0,0.6437886,12.38439,2.872422,-1
29,F,0,1,20,2,3,77,1,2620,0,0.3867381,6.265394,3.351293,-1
29,F,0,1,20,3,3,80,4,9999,0,-1,-1,-1,-1
29,F,0,1,20,4,4,79,3,2709,1,0.2595147,12.13604,1.191897,-1
29,F,0,1,20,5,3,78,2,6920,4,0.3141122,6.327746,2.685111,-1
29,F,0,1,20,6,4,77,1,2798,2,0.1979716,12.18706,0.9121451,-1
29,F,0,1,20,7,3,79,3,1276,0,0.4272005,6.175905,3.76546,-1
29,F,0,1,20,8,4,78,2,1142,0,0.3322491,12.36411,1.499852,-1
29,F,0,1,20,1,2,77,1,1964,0,0.7520924,12.20381,3.476488,-1
29,F,0,1,20,2,2,80,4,1609,0,0.3893989,12.27634,1.772109,-1
29,F,0,1,20,3,2,79,3,1209,0,0.5545049,12.11463,2.54476,-1
29,F,0,1,20,4,1,78,2,2387,1,0.2307964,6.381952,1.970502,-1
29,F,0,1,20,5,1,77,1,2731,0,0.007952563,6.205885,0.0656106,-1
29,F,0,1,20,6,1,80,4,3531,1,0.328682,6.508565,2.793372,-1
29,F,0,1,20,7,1,79,3,3253,1,0.07879667,6.190757,0.6895542,-1
29,F,0,1,20,8,2,78,2,786,0,0.1078102,12.39402,0.4865827,-1
29,F,0,1,21,1,1,83,3,2120,1,0.3205496,6.193121,2.797084,-1
29,F,0,1,21,2,2,81,1,1176,0,0.3671331,12.23383,1.674211,-1
29,F,0,1,21,3,2,84,4,1909,0,0.8078484,12.30322,3.699835,-1
29,F,0,1,21,4,1,82,2,2076,0,0.04599715,6.400263,0.3916712,-1
29,F,0,1,21,5,1,81,1,3165,0,0.4661303,6.212811,4.068086,-1
29,F,0,1,21,6,2,83,3,1765,1,0.4293015,12.14837,1.96742,-1
29,F,0,1,21,7,1,84,4,3187,1,0.4424322,6.521364,3.737012,-1
29,F,0,1,21,8,2,82,2,865,0,0.04611093,12.41553,0.2074791,-1
29,F,0,1,22,1,2,85,1,1342,0,0.3206204,12.24225,1.475517,-1
29,F,0,1,22,2,2,88,4,2176,1,0.5359171,12.31314,2.45997,-1
29,F,0,1,22,3,2,86,2,998,0,0.3123277,12.40964,1.414854,-1
29,F,0,1,22,4,1,85,1,1631,0,0.1888001,6.210741,1.656113,-1
29,F,0,1,22,5,1,86,2,3198,0,0.07450494,6.403838,0.6321102,-1
29,F,0,1,22,6,2,87,3,2098,0,0.4855737,12.15118,2.265118,-1
29,F,0,1,22,7,1,88,4,4309,3,0.1670029,6.525466,1.413332,-1
29,F,0,1,22,8,1,87,3,4187,0,0.3306675,6.196129,2.95161,-1
29,F,0,1,23,1,1,90,2,1553,0,0.5152711,6.416421,4.364351,-1
29,F,0,1,23,2,2,92,4,1542,0,0.7177993,12.31681,3.283424,-1
29,F,0,1,23,3,2,89,1,1120,0,0.0269728,12.24562,0.1235407,-1
29,F,0,1,23,4,2,90,2,1420,1,0.2002913,12.40799,0.9048218,-1
29,F,0,1,23,5,1,89,1,2887,0,0.06526453,6.216107,0.5757331,-1
29,F,0,1,23,6,2,91,3,2509,1,0.6300061,12.15706,2.885205,-1
29,F,0,1,23,7,1,92,4,3553,1,0.219177,6.518496,1.830559,-1
29,F,0,1,23,8,1,91,3,1609,0,1.451899E-07,6.208815,0,-1
29,F,0,1,24,1,1,94,2,1176,0,0.0006511059,6.41502,0.01978234,-1
29,F,0,1,24,2,1,95,3,2487,0,0.4336313,6.208529,3.80282,-1
29,F,0,1,24,3,1,93,1,1653,1,0.1012514,6.221114,0.8910931,-1
29,F,0,1,24,4,1,96,4,3131,0,0.229526,6.522326,1.899913,-1
29,F,0,1,24,5,2,93,1,1064,0,0.6248804,12.25878,2.890763,-1
29,F,0,1,24,6,2,94,2,1687,2,0.5694717,12.42534,2.587626,-1
29,F,0,1,24,7,2,96,4,1742,1,0.803758,12.32501,3.626985,-1
29,F,0,1,24,8,2,95,3,1487,0,0.6949905,12.15248,3.244556,-1
29,F,0,1,25,1,1,97,1,2731,0,1.397024E-07,6.228967,0.01978234,-1
29,F,0,1,25,2,1,98,2,1887,0,0.003087656,6.41985,0.01978234,-1
29,F,0,1,25,3,2,100,4,920,0,1.042892,12.32679,4.785896,-1
29,F,0,1,25,4,1,99,3,3009,2,0.3841986,6.215391,3.338827,-1
29,F,0,1,25,5,2,98,2,865,0,0.4196626,12.43359,1.901663,-1
29,F,0,1,25,6,2,99,3,1598,0,0.5825747,12.15717,2.721676,-1
29,F,0,1,25,7,1,100,4,3331,1,0.2541134,6.521414,2.128265,-1
29,F,0,1,25,8,2,97,1,9999,1,-1,-1,-1,-1
29,F,0,1,26,1,1,104,4,5176,2,0.1263045,6.505778,1.056844,-1
29,F,0,1,26,2,1,101,1,1220,0,2.290146E-07,6.231943,0,-1
29,F,0,1,26,3,1,103,3,2820,0,0.4729962,6.215809,4.143733,-1
29,F,0,1,26,4,2,101,1,1864,0,0.7313704,12.26298,3.382635,-1
29,F,0,1,26,5,1,102,2,4009,0,0.007615073,6.425462,0.06255726,-1
29,F,0,1,26,6,2,103,3,1820,1,1.020546,12.17585,4.709231,-1
29,F,0,1,26,7,2,104,4,2142,0,0.5741974,12.34246,2.620623,-1
29,F,0,1,26,8,2,102,2,2442,0,0.1937155,12.43684,0.8778186,-1
29,F,0,1,27,1,1,107,3,3531,3,0.231189,6.217284,2.042677,-1
29,F,0,1,27,2,1,108,4,2487,0,4.765911E-08,6.525253,0,-1
29,F,0,1,27,3,2,105,1,1187,0,0.6726281,12.26556,3.109987,-1
29,F,0,1,27,4,1,106,2,2198,0,0.02092708,6.419265,0.1780411,-1
29,F,0,1,27,5,1,105,1,3098,3,0.2719806,6.11891,2.455032,-1
29,F,0,1,27,6,2,108,4,1631,0,0.8157284,12.34918,3.676422,-1
29,F,0,1,27,7,2,106,2,753,0,0.2100448,12.44318,0.9462603,-1
29,F,0,1,27,8,2,107,3,1242,0,0.8739867,12.17755,4.055213,-1
29,F,0,1,28,1,1,112,4,3709,0,0.3420312,6.532994,2.846957,-1
29,F,0,1,28,2,2,111,3,1875,0,1.802477E-07,12.18469,0,-1
29,F,0,1,28,3,2,109,1,1509,0,0.5790237,12.27252,2.675617,-1
29,F,0,1,28,4,1,111,3,3053,0,0.1120756,6.235522,0.9797872,-1
29,F,0,1,28,5,2,110,2,742,0,0.2300348,12.45404,1.034387,-1
29,F,0,1,28,6,2,112,4,1920,2,0.218833,12.3576,0.9849661,-1
29,F,0,1,28,7,1,110,2,1409,0,0.4001448,6.440513,3.354738,-1
29,F,0,1,28,8,1,109,1,2576,0,0.1333584,6.247692,1.182006,-1
29,F,0,1,29,1,1,115,3,2942,2,0.1150966,6.219124,1.008912,-1
29,F,0,1,29,2,2,114,2,587,0,1.021675,12.46974,4.654379,-1
29,F,0,1,29,3,2,116,4,1120,0,0.8401941,12.35103,3.846696,-1
29,F,0,1,29,4,1,114,2,2053,2,0.4593562,6.439188,3.889776,-1
29,F,0,1,29,5,2,113,1,1653,0,0.63755,12.27969,2.944239,-1
29,F,0,1,29,6,2,115,3,1309,0,0.3698328,12.19202,1.691885,-1
29,F,0,1,29,7,1,113,1,1631,1,0.04061636,6.242265,0.3566318,-1
29,F,0,1,29,8,1,116,4,2787,0,0.1035561,6.544694,0.8545501,-1
29,F,0,1,30,1,2,117,1,1598,1,0.1778427,12.28436,0.8120472,-1
29,F,0,1,30,2,1,120,4,1965,0,0.47684,6.539876,4.001055,-1
29,F,0,1,30,3,2,119,3,1620,0,0.6899588,12.19473,3.162917,-1
29,F,0,1,30,4,2,118,2,653,0,0.9876874,12.46682,4.509151,-1
29,F,0,1,30,5,1,119,3,3187,2,9.113426E-08,6.230329,0,-1
29,F,0,1,30,6,1,118,2,1498,1,0.1706455,6.440382,1.435859,-1
29,F,0,1,30,7,2,120,4,1598,1,0.246554,12.35629,1.115047,-1
29,F,0,1,30,8,1,117,1,1042,0,0.4164158,6.251658,3.611404,-1
29,F,0,1,31,1,1,122,2,1176,0,0.3019049,6.434732,2.557037,-1
29,F,0,1,31,2,2,124,4,1398,1,0.5762674,12.34391,2.63886,-1
29,F,0,1,31,3,2,121,1,1020,0,0.3240075,12.27645,1.492528,-1
29,F,0,1,31,4,2,122,2,1509,2,0.3421936,12.42949,1.544083,-1
29,F,0,1,31,5,2,123,3,1398,0,0.1313994,12.1919,0.6026341,-1
29,F,0,1,31,6,1,121,1,1831,1,0.3695832,6.230887,3.272913,-1
29,F,0,1,31,7,1,124,4,1876,0,0.4532146,6.53475,3.805497,-1
29,F,0,1,31,8,1,123,3,2720,1,0.3351937,6.237507,2.925229,-1
29,F,0,1,32,1,2,125,1,1220,0,0.6074943,12.27409,2.807074,-1
29,F,0,1,32,2,2,127,3,1565,0,1.226934E-07,12.15256,0,-1
29,F,0,1,32,3,2,128,4,2220,0,3.84142E-07,12.31998,0,-1
29,F,0,1,32,4,1,126,2,1842,1,3.421237E-08,6.439048,0,-1
29,F,0,1,32,5,1,127,3,2764,1,1.213517E-07,6.214882,0,-1
29,F,0,1,32,6,1,128,4,3431,1,0.2333058,6.542428,1.955847,-1
29,F,0,1,32,7,2,126,2,1853,2,0.8109928,12.45852,3.703115,-1
29,F,0,1,32,8,1,125,1,3331,1,0.4547258,6.229547,4.04593,-1
29,F,0,1,33,1,1,132,4,3509,0,0.2289942,6.53042,1.922848,-1
29,F,0,1,33,2,2,130,2,587,0,0.7471554,12.44932,3.33824,-1
29,F,0,1,33,3,2,131,3,1231,0,0.281381,12.18503,1.288312,-1
29,F,0,1,33,4,2,129,1,1231,0,0.5019286,12.2842,2.270382,-1
29,F,0,1,33,5,1,130,2,3487,1,0.3542967,6.450383,2.984653,-1
29,F,0,1,33,6,2,132,4,2664,0,0.3947038,12.34387,1.800267,-1
29,F,0,1,33,7,1,131,3,1998,1,0.5323652,6.241223,4.646544,-1
29,F,0,1,33,8,1,129,1,1776,1,0.4434984,6.22956,3.929246,-1
29,F,0,1,34,1,1,134,2,1409,0,7.756538E-08,6.434395,0,-1
29,F,0,1,34,2,1,135,3,1565,0,0.3076742,6.237791,2.684892,-1
29,F,0,1,34,3,2,134,2,909,0,6.59638E-08,12.45299,0,-1
29,F,0,1,34,4,1,136,4,2709,0,0.06176597,6.534761,0.5154827,-1
29,F,0,1,34,5,2,133,1,1520,0,0.4556973,12.28691,2.102638,-1
29,F,0,1,34,6,2,136,4,1642,0,0.7602818,12.36173,3.409328,-1
29,F,0,1,34,7,2,135,3,1387,0,0.4484729,12.18842,2.055475,-1
29,F,0,1,34,8,1,133,1,2309,0,0.4460547,6.243697,3.943474,-1
29,F,0,1,35,1,2,139,3,1798,1,0.1971105,12.18458,0.9112865,-1
29,F,0,1,35,2,2,140,4,2731,2,1.014452,12.36019,4.557457,-1
29,F,0,1,35,3,2,137,1,1009,0,0.1982026,12.27807,0.9091367,-1
29,F,0,1,35,4,2,138,2,931,0,0.8191721,12.44603,3.697347,-1
29,F,0,1,35,5,1,137,1,2853,0,0.2544243,6.243395,2.199447,-1
29,F,0,1,35,6,1,139,3,2065,0,0.3827082,6.236198,3.341054,-1
29,F,0,1,35,7,1,140,4,3509,3,0.4038718,6.55436,3.444351,-1
29,F,0,1,35,8,1,138,2,1776,1,0.2487624,6.438913,2.099097,-1
29,F,0,1,37,1,3,148,4,2531,1,0.1450691,6.536844,1.216436,-1
29,F,0,1,37,2,4,145,1,2476,0,0.475504,12.27266,2.177088,-1
29,F,0,1,37,3,4,146,2,765,0,0.3060014,12.45014,1.383667,-1
29,F,0,1,37,4,4,148,4,2042,1,0.7948396,12.34768,3.651626,-1
29,F,0,1,37,5,4,147,3,1242,0,0.9309365,12.17573,4.249897,-1
29,F,0,1,37,6,3,145,1,2309,1,0.2500095,6.216545,2.215053,-1
29,F,0,1,37,7,3,147,3,3365,1,0.2980979,6.220876,2.603613,-1
29,F,0,1,37,8,3,146,2,2409,0,0.4062505,6.443057,3.477051,-1
29,F,0,1,38,1,3,152,4,2976,1,0.3149759,6.554626,2.680514,-1
29,F,0,1,38,2,4,149,1,1242,0,0.7175854,12.2739,3.322839,-1
29,F,0,1,38,3,4,152,4,1609,0,0.2147082,12.35385,0.9711614,-1
29,F,0,1,38,4,3,150,2,1831,0,1.231839E-07,6.451953,0,-1
29,F,0,1,38,5,4,151,3,1676,0,8.977788E-08,12.19139,0,-1
29,F,0,1,38,6,3,149,1,4176,2,0.3744882,6.228947,3.32543,-1
29,F,0,1,38,7,4,150,2,854,0,0.4007003,12.44042,1.796241,-1
29,F,0,1,38,8,3,151,3,2320,1,0.4157107,6.218206,3.645508,-1
29,F,0,1,39,1,4,154,2,831,0,0.3895462,12.44754,1.761364,-1
29,F,0,1,39,2,3,156,4,2776,1,0.1444331,6.549542,1.20073,-1
29,F,0,1,39,3,3,155,3,1631,0,0.4324758,6.239049,3.734287,-1
29,F,0,1,39,4,3,153,1,1631,0,0.1784442,6.22668,1.552678,-1
29,F,0,1,39,5,4,155,3,1131,0,0.4054511,12.18102,1.87701,-1
29,F,0,1,39,6,4,156,4,3987,0,0.7515188,12.3795,3.434959,-1
29,F,0,1,39,7,4,153,1,4887,4,0.8875075,12.22894,4.115183,-1
29,F,0,1,39,8,3,154,2,1887,1,0.05751901,6.446546,0.4837596,-1
29,F,0,1,40,1,3,160,4,3587,0,0.3404517,6.514372,2.879296,-1
29,F,0,1,40,2,4,157,1,1331,0,5.406136E-08,12.27536,0,-1
29,F,0,1,40,3,4,160,4,1098,0,0.7290062,12.35002,3.271058,-1
29,F,0,1,40,4,3,158,2,2220,0,3.93672E-08,6.437421,0,-1
29,F,0,1,40,5,3,159,3,2687,1,1.514338E-07,6.240398,0,-1
29,F,0,1,40,6,4,158,2,653,0,1.008322,12.4701,4.497886,-1
29,F,0,1,40,7,4,159,3,1576,1,0.550898,12.1761,2.555965,-1
29,F,0,1,40,8,3,157,1,2642,0,0.09662464,6.2425,0.8464977,-1
29,F,0,1,41,1,1,164,4,2865,0,5.455974E-08,6.53644,0,-1
29,F,0,1,41,2,1,163,3,3509,1,0.1858736,6.233732,1.62293,-1
29,F,0,1,41,3,1,161,1,1620,0,0.2177577,6.248737,1.929453,-1
29,F,0,1,41,4,1,162,2,2876,0,0.3981902,6.455867,3.40726,-1
29,F,0,1,41,5,2,163,3,1975,1,0.3479197,12.09066,1.620758,-1
29,F,0,1,41,6,2,161,1,4642,3,0.4329122,12.09659,2.021392,-1
29,F,0,1,41,7,2,164,4,5564,3,0.8522699,12.27234,3.896064,-1
29,F,0,1,41,8,2,162,2,2053,2,0.6553072,12.38034,2.976706,-1
29,F,0,1,42,1,2,168,4,2375,0,0.9283333,12.2859,4.295688,-1
29,F,0,1,42,2,1,165,1,1831,0,0.3126712,6.208348,2.789305,-1
29,F,0,1,42,3,2,167,3,1742,0,0.5984842,12.12194,2.761729,-1
29,F,0,1,42,4,1,168,4,3209,2,0.5311858,6.486238,4.424609,-1
29,F,0,1,42,5,1,167,3,1853,0,0.04268319,6.180359,0.3753442,-1
29,F,0,1,42,6,1,166,2,1920,0,0.005212153,6.393579,0.04423466,-1
29,F,0,1,42,7,2,165,1,1587,1,0.5749769,12.22174,2.64671,-1
29,F,0,1,42,8,2,166,2,1342,1,0.9203327,12.38315,4.17767,-1
29,F,0,1,43,1,1,172,4,2753,0,0.2793229,6.48032,2.32692,-1
29,F,0,1,43,2,1,171,3,2831,1,0.1381337,6.175899,1.225411,-1
29,F,0,1,43,3,1,170,2,2587,0,8.292243E-08,6.393669,0,-1
29,F,0,1,43,4,1,169,1,1387,0,0.1725594,6.202673,1.53646,-1
29,F,0,1,43,5,2,171,3,931,0,0.8401769,12.16681,3.87919,-1
29,F,0,1,43,6,2,169,1,865,0,0.7559144,12.29697,3.410649,-1
29,F,0,1,43,7,2,172,4,4598,0,0.5248244,12.35122,2.398412,-1
29,F,0,1,43,8,2,170,2,842,0,0.4208364,12.44316,1.889066,-1
29,F,0,1,44,1,2,175,3,1731,1,0.8296978,12.18507,3.861836,-1
29,F,0,1,44,2,1,173,1,1431,0,0.03287665,6.256533,0.289391,-1
29,F,0,1,44,3,2,176,4,1609,0,0.8280531,12.34457,3.793128,-1
29,F,0,1,44,4,2,174,2,1309,1,0.6460109,12.45846,2.943441,-1
29,F,0,1,44,5,2,173,1,1031,0,0.7474114,12.28462,3.450882,-1
29,F,0,1,44,6,1,174,2,2798,0,0.2056654,6.448436,1.760587,-1
29,F,0,1,44,7,1,175,3,2809,1,8.768881E-08,6.225029,0,-1
29,F,0,1,44,8,1,176,4,2742,0,0.375396,6.525961,3.134878,-1
29,F,0,1,45,1,1,179,3,2865,1,0.3154049,6.228818,2.734305,-1
29,F,0,1,45,2,2,180,4,1053,0,0.1947186,12.35978,0.8767033,-1
29,F,0,1,45,3,2,179,3,1442,0,0.4101583,12.18665,1.906186,-1
29,F,0,1,45,4,2,177,1,9999,2,-1,-1,-1,-1
29,F,0,1,45,5,1,180,4,3242,1,2.405571E-07,6.54482,0,-1
29,F,0,1,45,6,2,178,2,864,0,0.1747797,12.46042,0.7890712,-1
29,F,0,1,45,7,1,177,1,1887,2,1.315486E-07,6.267345,0,-1
29,F,0,1,45,8,1,178,2,3398,0,0.3406699,6.451859,2.851698,-1
29,F,0,1,46,1,2,183,3,1087,0,0.5578147,12.19851,2.545836,-1
29,F,0,1,46,2,2,182,2,831,0,5.406237E-08,12.46198,0,-1
29,F,0,1,46,3,2,181,1,1487,0,0.3984767,12.29613,1.837495,-1
29,F,0,1,46,4,1,182,2,3776,1,0.3967423,6.449579,3.319066,-1
29,F,0,1,46,5,1,181,1,1342,0,0.329501,6.250534,2.908182,-1
29,F,0,1,46,6,2,184,4,1109,0,1.503152E-07,12.35738,0,-1
29,F,0,1,46,7,1,183,3,3076,0,0.1092361,6.22342,0.9610341,-1
29,F,0,1,46,8,1,184,4,2831,0,0.544437,6.540304,4.498104,-1
29,F,0,1,47,1,2,186,2,865,0,0.8131002,12.46781,3.647817,-1
29,F,0,1,47,2,2,185,1,1731,1,0.8250137,12.2955,3.737746,-1
29,F,0,1,47,3,1,186,2,1676,0,0.4824122,6.450628,4.131948,-1
29,F,0,1,47,4,1,188,4,2798,0,0.2388477,6.549713,2.008863,-1
29,F,0,1,47,5,2,187,3,1553,1,0.2929645,12.20562,1.33896,-1
29,F,0,1,47,6,2,188,4,1909,0,0.5534676,12.37269,2.482228,-1
29,F,0,1,47,7,1,185,1,1709,0,2.455925E-08,6.265368,0,-1
29,F,0,1,47,8,1,187,3,2442,1,9.551763E-08,6.237287,0,-1
29,F,0,1,48,1,2,192,4,1898,1,0.4808205,12.38804,2.158036,-1
29,F,0,1,48,2,1,189,1,2142,0,2.165344E-07,6.314897,0,-1
29,F,0,1,48,3,1,191,3,5165,2,0.04145136,6.251872,0.360452,-1
29,F,0,1,48,4,1,190,2,1009,0,0.3478401,6.503817,2.952539,-1
29,F,0,1,48,5,1,192,4,2153,0,0.1874836,6.555924,1.546363,-1
29,F,0,1,48,6,2,189,1,1209,0,0.305334,12.3434,1.396758,-1
29,F,0,1,48,7,2,191,3,1531,0,1.993402E-07,12.21766,0,-1
29,F,0,1,48,8,2,190,2,609,0,0.3635479,12.51417,1.644134,-1
29,F,0,1,49,1,1,196,4,2387,1,0.4580485,6.557837,3.772007,-1
29,F,0,1,49,2,1,195,3,3509,2,0.1739608,6.243625,1.523028,-1
29,F,0,1,49,3,2,194,2,753,0,0.5971859,12.50246,2.659695,-1
29,F,0,1,49,4,2,193,1,1065,0,0.09093427,12.33398,0.4125943,-1
29,F,0,1,49,5,2,196,4,1276,0,0.3393884,12.39321,1.522257,-1
29,F,0,1,49,6,1,193,1,1376,0,2.408762E-07,6.302317,0,-1
29,F,0,1,49,7,2,195,3,1242,0,0.3114807,12.22587,1.420926,-1
29,F,0,1,49,8,1,194,2,1476,0,0.4954147,6.50032,4.184275,-1
29,F,0,1,50,1,1,197,1,2575,1,0.2238955,6.300829,1.963238,-1
29,F,0,1,50,2,1,199,3,1587,0,0.4255843,6.253561,3.742823,-1
29,F,0,1,50,3,1,198,2,1231,0,0.4155259,6.499869,3.53258,-1
29,F,0,1,50,4,2,200,4,1253,0,0.8816252,12.39699,3.948635,-1
29,F,0,1,50,5,2,199,3,1087,0,0.8786036,12.22919,4.010929,-1
29,F,0,1,50,6,1,200,4,2365,0,0.1267954,6.557302,1.05332,-1
29,F,0,1,50,7,2,197,1,1053,0,0.9416412,12.34322,4.328572,-1
29,F,0,1,50,8,2,198,2,2398,0,0.9099216,12.49817,4.086865,-1
29,F,0,1,51,1,2,201,1,1065,0,0.786635,12.33256,3.61877,-1
29,F,0,1,51,2,1,204,4,3798,0,0.3967853,6.559201,3.313457,-1
29,F,0,1,51,3,1,201,1,1320,0,0.04207458,6.307369,0.365305,-1
29,F,0,1,51,4,2,204,4,1287,0,6.295141E-08,12.40171,0,-1
29,F,0,1,51,5,2,202,2,1120,1,0.8059506,12.50828,3.585449,-1
29,F,0,1,51,6,1,203,3,3053,1,0.3086698,6.268752,2.680223,-1
29,F,0,1,51,7,1,202,2,3342,0,0.06515748,6.50193,0.5510744,-1
29,F,0,1,51,8,2,203,3,2120,1,0.3984067,12.22471,1.838347,-1
29,F,0,1,52,1,2,208,4,1054,0,0.9925827,12.40476,4.452499,-1
29,F,0,1,52,2,1,207,3,3020,1,0.02215963,6.259927,0.1928145,-1
29,F,0,1,52,3,2,205,1,1653,1,1.938391E-08,12.33872,0.01978234,-1
29,F,0,1,52,4,1,208,4,2387,0,0.4839751,6.558819,4.038227,-1
29,F,0,1,52,5,2,206,2,1042,1,0.2527339,12.50524,1.136256,-1
29,F,0,1,52,6,1,205,1,1120,0,2.504757E-08,6.302873,0,-1
29,F,0,1,52,7,1,206,2,3498,1,0.1409584,6.498596,1.182833,-1
29,F,0,1,52,8,2,207,3,1687,0,0.2617651,12.23757,1.206259,-1
29,F,0,1,53,1,2,210,2,931,0,0.2328234,12.51318,1.040046,-1
29,F,0,1,53,2,2,211,3,1753,0,0.4339332,12.23669,2.010421,-1
29,F,0,1,53,3,1,212,4,2409,0,0.4157915,6.568253,3.472318,-1
29,F,0,1,53,4,1,210,2,954,0,0.5351033,6.49668,4.444133,-1
29,F,0,1,53,5,1,209,1,976,0,0.4321865,6.301656,3.719049,-1
29,F,0,1,53,6,1,211,3,2320,0,0.5267836,6.273123,4.574103,-1
29,F,0,1,53,7,2,209,1,1142,0,0.2960023,12.35015,1.348862,-1
29,F,0,1,53,8,2,212,4,1142,0,0.7574768,12.4061,3.396094,-1
29,F,0,1,54,1,1,213,1,2198,0,0.1255482,6.313969,1.080827,-1
29,F,0,1,54,2,2,216,4,1987,0,1.000416,12.4097,4.472601,-1
29,F,0,1,54,3,1,215,3,3942,2,0.03763462,6.267648,0.3262592,-1
29,F,0,1,54,4,1,216,4,2131,0,0.2164284,6.573612,1.780043,-1
29,F,0,1,54,5,2,215,3,2009,1,0.7115222,12.24244,3.253775,-1
29,F,0,1,54,6,2,214,2,1087,0,0.6989897,12.51507,3.174285,-1
29,F,0,1,54,7,2,213,1,1053,0,1.046419,12.33755,4.813569,-1
29,F,0,1,54,8,1,214,2,2587,0,0.2429567,6.50311,2.036728,-1
29,F,0,1,55,1,2,219,3,1153,0,0.6020938,12.24294,2.733374,-1
29,F,0,1,55,2,1,218,2,1720,0,0.1349523,6.497158,1.127438,-1
29,F,0,1,55,3,2,220,4,1698,1,0.5225965,12.40978,2.341677,-1
29,F,0,1,55,4,2,217,1,4053,0,0.8224896,12.3507,3.777817,-1
29,F,0,1,55,5,1,220,4,6253,3,0.169033,6.581271,1.412085,-1
29,F,0,1,55,6,1,217,1,1509,1,0.1942083,6.304456,1.700308,-1
29,F,0,1,55,7,2,218,2,1298,1,0.7261857,12.50958,3.267405,-1
29,F,0,1,55,8,1,219,3,2220,0,0.4383674,6.27146,3.806012,-1
29,F,0,1,56,1,2,224,4,2120,0,0.3965894,12.4074,1.774758,-1
29,F,0,1,56,2,2,221,1,920,0,0.01882603,12.3447,0.08156469,-1
29,F,0,1,56,3,1,222,2,3365,0,8.487078E-08,6.503627,0,-1
29,F,0,1,56,4,1,223,3,3231,1,0.4213522,6.268227,3.632756,-1
29,F,0,1,56,5,1,221,1,1520,0,0.2036938,6.311384,1.754908,-1
29,F,0,1,56,6,2,223,3,1531,0,0.1142893,12.23451,0.5230194,-1
29,F,0,1,56,7,2,222,2,676,0,0.4932448,12.51132,2.197133,-1
29,F,0,1,56,8,1,224,4,4598,3,0.2382313,6.573508,1.970899,-1
29,F,0,1,57,1,4,227,3,1742,1,0.2741854,12.24151,1.250857,-1
29,F,0,1,57,2,3,225,1,2853,1,0.2578327,6.291075,2.267708,-1
29,F,0,1,57,3,3,227,3,2409,0,0.1128246,6.279945,0.9783881,-1
29,F,0,1,57,4,4,228,4,1464,0,0.9249994,12.40601,4.133655,-1
29,F,0,1,57,5,4,226,2,1409,1,1.222355E-07,12.52559,0,-1
29,F,0,1,57,6,3,228,4,2098,0,1.197376E-07,6.556209,0,-1
29,F,0,1,57,7,4,225,1,1120,0,0.2106089,12.3454,0.957975,-1
29,F,0,1,57,8,3,226,2,5331,3,0.4433476,6.507719,3.827764,-1
29,F,0,1,58,1,3,232,4,3709,0,0.4110237,6.547441,3.388707,-1
29,F,0,1,58,2,4,230,2,1220,1,0.05857228,12.52351,0.2624426,-1
29,F,0,1,58,3,4,232,4,2609,2,0.7611909,12.39744,3.484701,-1
29,F,0,1,58,4,3,230,2,2587,0,0.2581919,6.495477,2.150404,-1
29,F,0,1,58,5,3,229,1,2598,0,0.1542156,6.290549,1.348572,-1
29,F,0,1,58,6,4,231,3,4331,0,0.8899016,12.24082,4.047914,-1
29,F,0,1,58,7,4,229,1,909,0,0.1795913,12.34033,0.8161334,-1
29,F,0,1,58,8,3,231,3,2565,1,0.4226813,6.273219,3.660516,-1
29,F,0,1,59,1,4,233,1,5842,0,0.6768713,12.39101,3.071285,-1
29,F,0,1,59,2,3,234,2,2876,1,0.2614313,6.588105,2.167086,-1
29,F,0,1,59,3,4,235,3,1587,0,0.8255579,12.31576,3.756662,-1
29,F,0,1,59,4,4,234,2,1109,1,0.5263608,12.60386,2.32961,-1
29,F,0,1,59,5,3,236,4,3387,3,0.1593118,6.613821,1.299955,-1
29,F,0,1,59,6,3,233,1,1387,0,0.5237576,6.363792,4.527012,-1
29,F,0,1,59,7,4,236,4,2342,0,0.4624023,12.51117,2.057094,-1
29,F,0,1,59,8,3,235,3,2509,1,7.086524E-08,6.351953,0,-1
29,F,0,1,60,1,4,238,2,1165,1,0.5366566,12.63205,2.367363,-1
29,F,0,1,60,2,4,240,4,2253,2,1.000151,12.49917,4.540405,-1
29,F,0,1,60,3,4,239,3,2364,2,1.027674,12.31374,4.749946,-1
29,F,0,1,60,4,3,238,2,2953,1,0.5265616,6.576025,4.421642,-1
29,F,0,1,60,5,4,237,1,1776,1,0.08008105,12.41082,0.3631561,-1
29,F,0,1,60,6,3,239,3,1620,1,0.49903,6.317178,4.302203,-1
29,F,0,1,60,7,3,240,4,3442,0,0.0128274,6.576245,0.1065312,-1
29,F,0,1,60,8,3,237,1,2598,0,0.3904069,6.348011,3.375857,-1
29,F,0,1,61,1,2,242,2,942,0,1.032121,12.52942,4.659679,-1
29,F,0,1,61,2,1,243,3,2542,0,0.3925603,6.270625,3.402085,-1
29,F,0,1,61,3,1,241,1,1342,0,0.4674432,6.31545,4.079095,-1
29,F,0,1,61,4,1,242,2,1309,0,0.3820008,6.523741,3.236279,-1
29,F,0,1,61,5,2,241,1,7942,3,0.08617092,12.25718,0.3956476,-1
29,F,0,1,61,6,2,244,4,2142,2,0.3796359,12.39213,1.703068,-1
29,F,0,1,61,7,2,243,3,1611,1,0.8977569,12.22447,4.078327,-1
29,F,0,1,61,8,1,244,4,5020,2,0.4715365,6.571803,3.9279,-1
29,F,0,1,62,1,1,247,3,1676,0,0.3468381,6.197745,3.095918,-1
29,F,0,1,62,2,2,246,2,920,0,0.6836144,12.42989,3.122865,-1
29,F,0,1,62,3,2,247,3,1209,0,0.5969641,12.17501,2.781434,-1
29,F,0,1,62,4,1,248,4,2287,0,4.979587E-08,6.571543,0,-1
29,F,0,1,62,5,1,246,2,1376,0,0.3305655,6.375869,2.835244,-1
29,F,0,1,62,6,2,245,1,1631,1,0.9616002,12.24741,4.455797,-1
29,F,0,1,62,7,2,248,4,1242,0,0.3028557,12.37127,1.368164,-1
29,F,0,1,62,8,1,245,1,1131,0,0.2634476,6.191033,2.35077,-1
29,F,0,1,1,1,8,2,2,1619,0,9.531589,12.47524,49.82167,-1
29,F,0,1,1,2,5,4,4,1753,0,6.456645,6.645379,76.31213,-1
29,F,0,1,1,3,8,1,1,3520,0,9.172351,12.29369,48.24928,-1
29,F,0,1,1,4,5,3,3,1631,0,6.219857,6.378072,77.2115,-1
29,F,0,1,1,5,7,4,4,2431,0,6.660202,6.660202,93.84753,-1
29,F,0,1,1,6,7,1,1,3042,0,1.020627,6.244246,9.04407,-1
29,F,0,1,1,7,8,3,3,1231,0,2.492569,12.23652,11.65464,-1
29,F,0,1,1,8,6,2,2,3253,0,3.853319,12.47519,17.99166,-1
29,F,0,1,1,9,6,4,4,1520,0,6.91969,12.42961,33.82858,-1
29,F,0,1,1,10,7,2,2,831,0,3.821917,6.450077,34.13288,-1
29,F,0,1,1,11,6,1,1,2009,0,7.286384,12.30418,36.30909,-1
29,F,0,1,1,12,6,3,3,1720,0,8.186095,12.2983,41.69061,-1
29,F,0,1,1,13,8,4,4,2020,0,10.96833,12.46259,61.29481,-1
29,F,0,1,1,14,5,1,1,1153,0,0.9696755,6.245692,8.404338,-1
29,F,0,1,1,15,7,3,3,1998,0,6.395581,6.403372,87.17336,-1
29,F,0,1,1,16,5,2,2,1465,0,2.805619,6.439689,24.46953,-1
29,F,0,1,2,1,5,3,3,687,0,2.457717,6.317807,21.69961,-1
29,F,0,1,2,2,7,1,1,2198,0,2.266262,6.269209,20.83636,-1
29,F,0,1,2,3,7,4,4,1031,0,6.517907,6.638929,79.04319,-1
29,F,0,1,2,4,5,1,1,1909,0,4.83574,6.283061,50.32222,-1
29,F,0,1,2,5,8,3,3,865,0,7.411239,12.27106,37.15409,-1
29,F,0,1,2,6,5,2,2,1431,0,0.4581946,6.445388,3.874846,-1
29,F,0,1,2,7,6,3,3,1087,0,7.104887,12.25551,35.43154,-1
29,F,0,1,2,8,6,4,4,1642,0,1.881525,12.41196,8.457979,-1
29,F,0,1,2,9,7,2,2,1531,0,0.6808035,6.453074,5.732581,-1
29,F,0,1,2,10,6,1,1,2120,0,0.604211,12.30069,2.741097,-1
29,F,0,1,2,11,8,2,2,742,0,4.766159,12.47602,22.4592,-1
29,F,0,1,2,12,7,3,3,1553,0,6.24612,6.374135,78.49763,-1
29,F,0,1,2,13,6,2,2,1953,0,4.82207,12.47663,22.73616,-1
29,F,0,1,2,14,5,4,4,2042,0,6.661066,6.661966,89.05779,-1
29,F,0,1,2,15,8,1,1,787,0,3.626791,12.30142,16.79196,-1
29,F,0,1,2,16,8,4,4,987,0,9.499701,12.44745,49.51413,-1
