Age, Gender, Awareness Type, Session, Block, Trial, Set, Pattern, Quadrant, Response Time, Num Mistakes, Distance From Target, Camera Distance From Target, Angle Error (Degrees), FC Response
19,F,0,1,1,1,1,1,1,2487,0,5.943836E-08,6.141469,0,-1
19,F,0,1,1,2,1,2,2,5975,1,1.087508E-07,6.54752,0,-1
19,F,0,1,1,3,1,4,4,3042,0,0.3286279,6.559028,2.707543,-1
19,F,0,1,1,4,2,3,3,1831,0,0.8751382,12.3252,3.968373,-1
19,F,0,1,1,5,2,2,2,1631,0,1.047488,12.45891,4.678977,-1
19,F,0,1,1,6,1,3,3,8731,3,0.2757233,6.312833,2.381048,-1
19,F,0,1,1,7,2,1,1,3776,0,1.015343,12.24059,4.714262,-1
19,F,0,1,1,8,2,4,4,3398,1,1.005487,12.43395,4.509324,-1
19,F,0,1,2,1,2,5,1,2664,0,0.3644762,12.2383,1.686324,-1
19,F,0,1,2,2,2,7,3,2409,0,0.4698814,12.30732,2.132491,-1
19,F,0,1,2,3,1,8,4,3464,0,5.464632E-08,6.550794,0,-1
19,F,0,1,2,4,1,6,2,3820,0,0.1549126,6.537915,1.28816,-1
19,F,0,1,2,5,1,5,1,3465,0,0.280506,6.155714,2.541681,-1
19,F,0,1,2,6,2,8,4,1331,0,0.4087698,12.43685,1.823275,-1
19,F,0,1,2,7,1,7,3,9999,1,-1,-1,-1,-1
19,F,0,1,2,8,2,6,2,5731,2,0.2298019,12.43844,1.034008,-1
19,F,0,1,3,1,2,9,1,2376,0,0.9296323,12.22008,4.322867,-1
19,F,0,1,3,2,2,11,3,3576,1,0.7691939,12.28923,3.497264,-1
19,F,0,1,3,3,1,9,1,3153,0,1.089646E-07,6.135981,0,-1
19,F,0,1,3,4,1,11,3,4576,0,0.08009665,6.324049,0.690405,-1
19,F,0,1,3,5,2,10,2,7642,0,1.061402,12.45682,4.769824,-1
19,F,0,1,3,6,2,12,4,3898,1,0.8209985,12.43876,3.674877,-1
19,F,0,1,3,7,1,10,2,4731,0,0.1266724,6.534346,1.064224,-1
19,F,0,1,3,8,1,12,4,4776,1,0.507503,6.582909,4.220579,-1
19,F,0,1,4,1,1,15,3,9999,5,-1,-1,-1,-1
19,F,0,1,4,2,2,14,2,4464,1,0.2863839,12.4636,1.284052,-1
19,F,0,1,4,3,2,15,3,2120,0,0.699547,12.34111,3.167432,-1
19,F,0,1,4,4,2,16,4,7131,4,0.310349,12.43986,1.384798,-1
19,F,0,1,4,5,1,13,1,2031,0,0.3817142,6.172374,3.372839,-1
19,F,0,1,4,6,1,14,2,2665,0,0.5458068,6.56893,4.487422,-1
19,F,0,1,4,7,2,13,1,2131,0,0.00434679,12.27653,0,-1
19,F,0,1,4,8,1,16,4,4220,0,0.379232,6.585819,3.112818,-1
19,F,0,1,5,1,1,17,1,3409,2,0.3004768,6.149096,2.663887,-1
19,F,0,1,5,2,1,19,3,3465,0,0.1732133,6.371154,1.485167,-1
19,F,0,1,5,3,2,17,1,3053,1,0.462059,12.28433,2.12274,-1
19,F,0,1,5,4,2,20,4,1587,0,0.3918096,12.46354,1.746525,-1
19,F,0,1,5,5,1,18,2,5142,2,0.3201642,6.579579,2.685549,-1
19,F,0,1,5,6,2,19,3,1920,0,0.5680444,12.3856,2.562466,-1
19,F,0,1,5,7,1,20,4,3075,0,0.3715276,6.604318,3.116715,-1
19,F,0,1,5,8,2,18,2,6298,3,1.062598,12.48358,4.837076,-1
19,F,0,1,6,1,2,23,3,9076,3,0.772301,12.36197,3.491325,-1
19,F,0,1,6,2,1,21,1,2642,1,0.2830642,6.178829,2.538136,-1
19,F,0,1,6,3,2,24,4,2398,0,0.301377,12.49506,1.344503,-1
19,F,0,1,6,4,2,22,2,1865,0,0.493504,12.51146,2.219114,-1
19,F,0,1,6,5,1,24,4,2764,0,0.008515849,6.629769,0.06852804,-1
19,F,0,1,6,6,1,23,3,3498,1,0.3134108,6.403506,2.704795,-1
19,F,0,1,6,7,2,21,1,6998,2,0.5801779,12.26239,2.684965,-1
19,F,0,1,6,8,1,22,2,4231,0,1.083646E-07,6.583172,0,-1
19,F,0,1,7,1,2,27,3,6431,2,0.6924937,12.3884,3.123304,-1
19,F,0,1,7,2,1,26,2,2865,0,0.5026422,6.575376,4.12953,-1
19,F,0,1,7,3,1,25,1,2531,0,0.3710426,6.183005,3.261588,-1
19,F,0,1,7,4,1,28,4,3531,1,0.4055803,6.620508,3.312748,-1
19,F,0,1,7,5,1,27,3,3464,0,0.5115505,6.45577,4.372018,-1
19,F,0,1,7,6,2,25,1,3620,0,0.6395111,12.28751,2.956779,-1
19,F,0,1,7,7,2,28,4,3020,1,0.8677166,12.51977,3.83119,-1
19,F,0,1,7,8,2,26,2,1931,1,0.4482962,12.51139,2.032592,-1
19,F,0,1,8,1,2,29,1,7220,4,0.6350385,12.25665,2.942909,-1
19,F,0,1,8,2,1,31,3,3398,0,0.3774018,6.430694,3.223004,-1
19,F,0,1,8,3,1,30,2,3920,1,0.476716,6.584931,4.060135,-1
19,F,0,1,8,4,2,31,3,3509,0,0.8709412,12.41907,3.920615,-1
19,F,0,1,8,5,2,30,2,4165,1,0.7684129,12.49975,3.421424,-1
19,F,0,1,8,6,2,32,4,1876,0,0.2542706,12.51657,1.129519,-1
19,F,0,1,8,7,1,29,1,2576,0,0.07394255,6.176353,0.6581939,-1
19,F,0,1,8,8,1,32,4,4409,1,0.3371916,6.621537,2.755343,-1
19,F,0,1,9,1,2,33,1,1898,1,0.9476778,12.28349,4.353702,-1
19,F,0,1,9,2,1,36,4,9999,6,-1,-1,-1,-1
19,F,0,1,9,3,2,34,2,6620,2,0.3332495,12.49059,1.50259,-1
19,F,0,1,9,4,2,36,4,2065,0,2.826041E-07,12.49264,0,-1
19,F,0,1,9,5,2,35,3,2053,0,0.2490776,12.38363,1.123439,-1
19,F,0,1,9,6,1,33,1,4120,1,0.4056311,6.168056,3.646958,-1
19,F,0,1,9,7,1,35,3,2775,0,0.12326,6.396489,1.051461,-1
19,F,0,1,9,8,1,34,2,3442,0,0.4540296,6.601943,3.748939,-1
19,F,0,1,10,1,1,39,3,3920,0,0.2503366,6.422931,2.131481,-1
19,F,0,1,10,2,1,40,4,2087,0,0.4604005,6.63353,3.754055,-1
19,F,0,1,10,3,1,38,2,1753,0,0.3135836,6.604375,2.575039,-1
19,F,0,1,10,4,2,39,3,1720,0,0.124124,12.40672,0.5616257,-1
19,F,0,1,10,5,2,37,1,1898,0,1.040756,12.32377,4.800283,-1
19,F,0,1,10,6,2,40,4,3820,0,0.7646651,12.51906,3.385181,-1
19,F,0,1,10,7,1,37,1,3087,1,0.1072283,6.203279,0.9526493,-1
19,F,0,1,10,8,2,38,2,1876,0,0.8107886,12.52968,3.62169,-1
19,F,0,1,11,1,1,44,4,5376,2,0.1535802,6.623315,1.256165,-1
19,F,0,1,11,2,1,42,2,3131,0,0.3782377,6.584622,3.120795,-1
19,F,0,1,11,3,2,44,4,1453,0,0.5166998,12.51055,2.306984,-1
19,F,0,1,11,4,2,41,1,2287,0,0.190385,12.30801,0.867504,-1
19,F,0,1,11,5,2,43,3,2998,0,0.1466731,12.40112,0.6652907,-1
19,F,0,1,11,6,1,41,1,2109,0,0.1350877,6.20357,1.188115,-1
19,F,0,1,11,7,2,42,2,9999,2,-1,-1,-1,-1
19,F,0,1,11,8,1,43,3,9999,4,-1,-1,-1,-1
19,F,0,1,12,1,1,45,1,1609,0,0.1176662,6.208172,1.031355,-1
19,F,0,1,12,2,1,46,2,9409,3,0.4475332,6.572045,3.686846,-1
19,F,0,1,12,3,2,48,4,1409,0,0.572752,12.49232,2.577014,-1
19,F,0,1,12,4,2,45,1,2409,0,0.2466544,12.29686,1.132979,-1
19,F,0,1,12,5,2,46,2,3131,1,0.60108,12.50591,2.694862,-1
19,F,0,1,12,6,2,47,3,2309,0,0.05102595,12.38254,0.2298502,-1
19,F,0,1,12,7,1,48,4,2798,0,8.143445E-08,6.618564,0,-1
19,F,0,1,12,8,1,47,3,3076,0,5.504837E-08,6.403336,0,-1
19,F,0,1,13,1,2,50,2,3864,2,0.2944377,12.52636,1.313731,-1
19,F,0,1,13,2,2,52,4,8053,3,0.9448901,12.49315,4.192785,-1
19,F,0,1,13,3,2,51,3,2653,0,0.2333553,12.39616,1.06496,-1
19,F,0,1,13,4,2,49,1,1865,0,0.525283,12.32709,2.420264,-1
19,F,0,1,13,5,1,51,3,4820,1,1.980619E-08,6.399067,0,-1
19,F,0,1,13,6,1,50,2,9820,4,0.510554,6.591811,4.242517,-1
19,F,0,1,13,7,1,52,4,3498,0,0.2711914,6.6229,2.213551,-1
19,F,0,1,13,8,1,49,1,2142,0,0.1462496,6.204744,1.278094,-1
19,F,0,1,14,1,2,56,4,1565,0,0.602453,12.51064,2.667998,-1
19,F,0,1,14,2,2,55,3,2031,0,0.3276792,12.40268,1.494755,-1
19,F,0,1,14,3,1,56,4,2998,0,0.2896168,6.642062,2.363226,-1
19,F,0,1,14,4,2,54,2,1053,0,0.6338591,12.53483,2.8409,-1
19,F,0,1,14,5,2,53,1,1509,0,1.034815,12.32824,4.756952,-1
19,F,0,1,14,6,1,54,2,8253,2,0.4624304,6.579877,3.795708,-1
19,F,0,1,14,7,1,55,3,3664,0,0.1779677,6.407944,1.51904,-1
19,F,0,1,14,8,1,53,1,2476,0,0.101384,6.211778,0.8910931,-1
19,F,0,1,15,1,2,60,4,1198,0,0.05249337,12.43265,0.235734,-1
19,F,0,1,15,2,2,57,1,1464,0,0.3593951,12.24194,1.648176,-1
19,F,0,1,15,3,2,59,3,1564,0,0.5061981,12.36559,2.309189,-1
19,F,0,1,15,4,1,57,1,1898,0,0.1688962,6.168283,1.504802,-1
19,F,0,1,15,5,1,58,2,1776,0,0.1344549,6.601146,1.121521,-1
19,F,0,1,15,6,1,60,4,9999,3,-1,-1,-1,-1
19,F,0,1,15,7,2,58,2,3998,2,0.5317061,12.51982,2.367777,-1
19,F,0,1,15,8,1,59,3,2709,0,0.4010016,6.470093,3.39171,-1
19,F,0,1,16,1,2,64,4,1343,0,0.4297428,12.55542,1.906289,-1
19,F,0,1,16,2,1,62,2,4209,1,2.374388E-07,6.610089,0,-1
19,F,0,1,16,3,1,64,4,3731,0,0.07983648,6.66456,0.6516207,-1
19,F,0,1,16,4,1,61,1,2254,1,0.3647499,6.204309,3.188009,-1
19,F,0,1,16,5,2,62,2,2265,0,0.5043301,12.55067,2.241055,-1
19,F,0,1,16,6,1,63,3,3365,0,5.759746E-08,6.467972,0,-1
19,F,0,1,16,7,2,61,1,9999,4,-1,-1,-1,-1
19,F,0,1,16,8,2,63,3,9120,2,0.9739773,12.44711,4.431156,-1
19,F,0,1,17,1,4,65,1,5920,2,0.3413196,12.25918,1.577684,-1
19,F,0,1,17,2,4,68,4,1364,0,2.599522E-07,12.49498,0,-1
19,F,0,1,17,3,4,67,3,1342,0,0.1635558,12.3393,0.7428315,-1
19,F,0,1,17,4,3,66,2,2542,0,0.461749,6.486391,3.844201,-1
19,F,0,1,17,5,3,65,1,2431,1,0.3667423,6.131745,3.320599,-1
19,F,0,1,17,6,3,68,4,9486,3,0.2401982,6.568556,1.984752,-1
19,F,0,1,17,7,4,66,2,2042,0,0.4865918,12.42379,2.189548,-1
19,F,0,1,17,8,3,67,3,3209,1,0.08704057,6.439358,0.7370135,-1
19,F,0,1,18,1,4,69,1,1876,0,0.6966376,12.29836,3.217837,-1
19,F,0,1,18,2,4,71,3,9999,4,-1,-1,-1,-1
19,F,0,1,18,3,3,69,1,1665,0,0.3369498,6.182084,3.018826,-1
19,F,0,1,18,4,3,72,4,1220,0,0.1281239,6.585897,1.058879,-1
19,F,0,1,18,5,3,71,3,3087,0,0.203397,6.414817,1.744506,-1
19,F,0,1,18,6,4,70,2,3142,1,0.7892038,12.43628,3.571277,-1
19,F,0,1,18,7,4,72,4,1698,0,0.4602454,12.4592,2.04641,-1
19,F,0,1,18,8,3,70,2,3187,1,0.2288603,6.521263,1.899398,-1
19,F,0,1,19,1,4,75,3,2431,0,0.8621477,12.32446,3.891689,-1
19,F,0,1,19,2,3,76,4,4198,1,0.3113579,6.599964,2.560785,-1
19,F,0,1,19,3,3,74,2,1942,0,0.389139,6.533908,3.206989,-1
19,F,0,1,19,4,3,73,1,2665,0,0.4475356,6.166915,4.045011,-1
19,F,0,1,19,5,4,74,2,1309,0,0.8502595,12.47249,3.859351,-1
19,F,0,1,19,6,4,73,1,1609,0,0.2111364,12.26605,0.9655032,-1
19,F,0,1,19,7,4,76,4,1898,0,0.6358631,12.52269,2.837177,-1
19,F,0,1,19,8,3,75,3,3087,0,0.2926936,6.394406,2.496459,-1
19,F,0,1,20,1,3,77,1,2464,0,0.1562493,6.176293,1.389312,-1
19,F,0,1,20,2,3,78,2,2987,1,0.03408721,6.557665,0.2839303,-1
19,F,0,1,20,3,4,80,4,9999,4,-1,-1,-1,-1
19,F,0,1,20,4,4,77,1,1509,0,0.8797002,12.31792,4.062354,-1
19,F,0,1,20,5,4,79,3,1709,0,0.6367025,12.3524,2.886291,-1
19,F,0,1,20,6,4,78,2,3131,1,0.3669273,12.50962,1.637694,-1
19,F,0,1,20,7,3,79,3,2931,0,0.4103493,6.415079,3.534076,-1
19,F,0,1,20,8,3,80,4,2187,0,0.2197676,6.649247,1.805477,-1
19,F,0,1,20,1,1,77,1,1853,0,0.3413422,6.176065,3.048766,-1
19,F,0,1,20,2,1,80,4,1542,0,4.001134E-08,6.653572,0,-1
19,F,0,1,20,3,1,78,2,3920,0,5.083099E-08,6.629241,0,-1
19,F,0,1,20,4,2,80,4,1398,0,0.3063447,12.53477,1.361281,-1
19,F,0,1,20,5,2,77,1,1487,0,0.3498779,12.34109,1.579419,-1
19,F,0,1,20,6,1,79,3,3787,0,0.1611126,6.471444,1.365444,-1
19,F,0,1,20,7,2,78,2,1176,0,0.92903,12.56691,4.112898,-1
19,F,0,1,20,8,2,79,3,2176,0,0.3538095,12.4462,1.604131,-1
19,F,0,1,21,1,1,82,2,5009,1,0.1013558,6.553429,0.845804,-1
19,F,0,1,21,2,1,83,3,2753,0,0.3955606,6.484473,3.335659,-1
19,F,0,1,21,3,2,84,4,2064,1,0.9948952,12.55127,4.381326,-1
19,F,0,1,21,4,2,81,1,1353,0,0.2660308,12.28339,1.215148,-1
19,F,0,1,21,5,2,83,3,9999,4,-1,-1,-1,-1
19,F,0,1,21,6,1,81,1,1753,0,0.1727031,6.147344,1.522643,-1
19,F,0,1,21,7,1,84,4,1487,0,0.07259479,6.697985,0.5938025,-1
19,F,0,1,21,8,2,82,2,1309,0,1.050508,12.55199,4.655684,-1
19,F,0,1,22,1,2,87,3,1909,0,0.3251346,12.51013,1.470469,-1
19,F,0,1,22,2,2,85,1,1576,0,0.8361405,12.29064,3.80246,-1
19,F,0,1,22,3,1,87,3,3853,0,0.3357483,6.566285,2.811672,-1
19,F,0,1,22,4,1,86,2,5175,0,0.267924,6.610523,2.195885,-1
19,F,0,1,22,5,2,88,4,1209,0,0.6415095,12.59197,2.83766,-1
19,F,0,1,22,6,2,86,2,2242,1,6.488929E-08,12.55262,0,-1
19,F,0,1,22,7,1,85,1,1720,0,0.4148515,6.15764,3.612704,-1
19,F,0,1,22,8,1,88,4,3165,0,0.3630074,6.713162,2.966825,-1
19,F,0,1,23,1,2,89,1,1553,0,0.520214,12.30549,2.371989,-1
19,F,0,1,23,2,2,91,3,4064,0,0.5990763,12.50764,2.676568,-1
19,F,0,1,23,3,1,92,4,3620,1,0.04675718,6.71827,0.3815487,-1
19,F,0,1,23,4,2,90,2,2431,1,0.2565798,12.53189,1.145005,-1
19,F,0,1,23,5,2,92,4,1209,0,1.440017E-07,12.58715,0,-1
19,F,0,1,23,6,1,90,2,3454,1,0.1450726,6.597649,1.203172,-1
19,F,0,1,23,7,1,89,1,1498,0,0.5151532,6.165705,4.485895,-1
19,F,0,1,23,8,1,91,3,3287,0,0.007325141,6.545251,0.05934703,-1
19,F,0,1,24,1,2,94,2,1798,1,0.2034107,12.54881,0.9078444,-1
19,F,0,1,24,2,1,93,1,3109,1,0.3558894,6.154454,3.199594,-1
19,F,0,1,24,3,1,96,4,3276,1,0.3994792,6.707768,3.223429,-1
19,F,0,1,24,4,1,94,2,4253,0,0.4479825,6.599016,3.684561,-1
19,F,0,1,24,5,1,95,3,3964,1,0.1224884,6.52538,1.030406,-1
19,F,0,1,24,6,2,96,4,4464,1,0.7782812,12.58492,3.428512,-1
19,F,0,1,24,7,2,95,3,3431,1,0.3953091,12.47125,1.786298,-1
19,F,0,1,24,8,2,93,1,1631,0,0.7791056,12.29492,3.557159,-1
19,F,0,1,25,1,2,100,4,4231,2,0.4885591,12.53911,2.158852,-1
19,F,0,1,25,2,1,97,1,1498,0,0.2720281,6.138306,2.40607,-1
19,F,0,1,25,3,1,99,3,2809,0,1.45153E-07,6.510618,0,-1
19,F,0,1,25,4,2,98,2,1454,0,0.2906514,12.5478,1.294676,-1
19,F,0,1,25,5,1,100,4,6742,3,0.09131399,6.675863,0.7512136,-1
19,F,0,1,25,6,1,98,2,3731,0,0.13369,6.593758,1.108888,-1
19,F,0,1,25,7,2,99,3,2209,0,1.066638,12.46401,4.81719,-1
19,F,0,1,25,8,2,97,1,3320,0,0.3389328,12.2994,1.53646,-1
19,F,0,1,26,1,2,102,2,1798,0,0.4189636,12.54077,1.876176,-1
19,F,0,1,26,2,2,104,4,1353,0,0.6731133,12.58067,2.965769,-1
19,F,0,1,26,3,2,101,1,1309,0,0.6121132,12.29624,2.772694,-1
19,F,0,1,26,4,1,102,2,2809,1,0.1098544,6.600127,0.9183452,-1
19,F,0,1,26,5,2,103,3,2009,0,0.1219564,12.47994,0.5521386,-1
19,F,0,1,26,6,1,104,4,2531,0,0.468534,6.710464,3.780097,-1
19,F,0,1,26,7,1,103,3,4076,0,0.1072363,6.515207,0.9004862,-1
19,F,0,1,26,8,1,101,1,3120,0,0.4227937,6.201638,3.784394,-1
19,F,0,1,27,1,1,106,2,4687,2,0.3996671,6.579778,3.29711,-1
19,F,0,1,27,2,2,107,3,2064,0,0.2441707,12.46155,1.096822,-1
19,F,0,1,27,3,1,105,1,1665,0,0.1911241,6.171412,1.674796,-1
19,F,0,1,27,4,1,108,4,2565,0,1.395206E-08,6.517544,0,-1
19,F,0,1,27,5,2,106,2,920,0,0.5648537,12.38962,2.539986,-1
19,F,0,1,27,6,2,108,4,1598,0,1.055068,12.36959,4.728245,-1
19,F,0,1,27,7,2,105,1,1264,0,0.5355094,12.19658,2.489472,-1
19,F,0,1,27,8,1,107,3,6076,1,0.1276276,6.267411,1.109064,-1
19,F,0,1,28,1,1,112,4,2287,1,0.02576072,6.474404,0.2167048,-1
19,F,0,1,28,2,1,109,1,1476,0,0.03128957,6.071165,0.2811602,-1
19,F,0,1,28,3,2,110,2,1009,0,0.1866131,12.34065,0.845804,-1
19,F,0,1,28,4,1,111,3,3031,0,1.02462E-07,6.2338,0,-1
19,F,0,1,28,5,1,110,2,2409,1,4.467697E-08,6.463441,0,-1
19,F,0,1,28,6,2,111,3,4065,0,0.2506381,12.22643,1.150631,-1
19,F,0,1,28,7,2,109,1,1420,0,0.9731205,12.17317,4.520734,-1
19,F,0,1,28,8,2,112,4,1142,0,0.5702227,12.34923,2.561244,-1
19,F,0,1,29,1,1,115,3,3109,0,0.3168667,6.313704,2.734806,-1
19,F,0,1,29,2,2,114,2,1876,1,0.3307569,12.39112,1.510902,-1
19,F,0,1,29,3,1,113,1,1698,0,0.1359285,6.110732,1.212246,-1
19,F,0,1,29,4,1,114,2,2109,1,0.4102249,6.482456,3.564747,-1
19,F,0,1,29,5,2,116,4,1931,0,0.4457427,12.39708,1.994196,-1
19,F,0,1,29,6,2,115,3,2476,0,0.9888849,12.26913,4.564243,-1
19,F,0,1,29,7,2,113,1,3331,2,0.4190736,12.16878,1.952041,-1
19,F,0,1,29,8,1,116,4,9575,4,0.3844965,6.461581,3.214367,-1
19,F,0,1,30,1,1,119,3,2542,0,0.2814353,6.236665,2.463389,-1
19,F,0,1,30,2,1,117,1,2087,0,0.2910782,6.054084,2.659474,-1
19,F,0,1,30,3,2,118,2,1109,0,0.9194009,12.35731,4.187504,-1
19,F,0,1,30,4,2,119,3,2376,0,0.7494241,12.21383,3.472939,-1
19,F,0,1,30,5,1,120,4,1298,0,0.4577134,6.462368,3.826638,-1
19,F,0,1,30,6,2,117,1,1720,0,0.3309,12.15334,1.516848,-1
19,F,0,1,30,7,2,120,4,1553,1,0.6995788,12.32968,3.142799,-1
19,F,0,1,30,8,1,118,2,2054,1,1.078866E-07,6.457471,0,-1
19,F,0,1,31,1,2,124,4,6676,4,0.7464893,12.33004,3.353688,-1
19,F,0,1,31,2,2,122,2,1142,0,0.599185,12.34456,2.715196,-1
19,F,0,1,31,3,1,121,1,1720,0,1.406632E-07,6.073826,0.01978234,-1
19,F,0,1,31,4,1,124,4,3398,1,0.411399,6.491844,3.423883,-1
19,F,0,1,31,5,2,123,3,1709,0,0.321681,12.26245,1.47724,-1
19,F,0,1,31,6,1,122,2,2498,1,0.2419318,6.488508,2.073959,-1
19,F,0,1,31,7,1,123,3,4309,1,0.1075566,6.256461,0.9433607,-1
19,F,0,1,31,8,2,121,1,1320,0,0.4044528,12.1699,1.885852,-1
19,F,0,1,32,1,1,126,2,1942,0,0.07911552,6.45478,0.6691033,-1
19,F,0,1,32,2,1,125,1,1498,0,7.910085E-08,6.058618,0,-1
19,F,0,1,32,3,2,128,4,2165,0,0.290769,12.33107,1.309554,-1
19,F,0,1,32,4,2,125,1,1953,0,0.2888949,12.15902,1.332955,-1
19,F,0,1,32,5,2,127,3,1320,0,0.6470944,12.19221,2.964713,-1
19,F,0,1,32,6,2,126,2,1553,0,0.8857445,12.36604,3.987179,-1
19,F,0,1,32,7,1,128,4,1464,0,0.07580701,6.647788,0.6258884,-1
19,F,0,1,32,8,1,127,3,3242,0,0.1739851,6.555431,1.4571,-1
19,F,0,1,33,1,2,132,4,1531,1,0.6262657,12.5896,2.75726,-1
19,F,0,1,33,2,1,129,1,1842,0,0.09777454,6.137147,0.8729007,-1
19,F,0,1,33,3,2,131,3,1309,0,0.3407902,12.48848,1.524826,-1
19,F,0,1,33,4,2,130,2,1564,1,0.2164038,12.53285,0.9711614,-1
19,F,0,1,33,5,1,131,3,3831,0,0.4840173,6.556787,4.045253,-1
19,F,0,1,33,6,2,129,1,1676,0,0.1751978,12.2854,0.8001527,-1
19,F,0,1,33,7,1,130,2,2298,1,0.08346897,6.58284,0.6943616,-1
19,F,0,1,33,8,1,132,4,2187,1,3.423868E-07,6.693123,0,-1
19,F,0,1,34,1,2,134,2,920,0,0.640462,12.53389,2.848057,-1
19,F,0,1,34,2,1,133,1,2231,1,0.1054498,6.134816,0.9335608,-1
19,F,0,1,34,3,1,136,4,1676,0,0.04601167,6.687419,0.3748225,-1
19,F,0,1,34,4,1,135,3,4053,1,0.03894919,6.538479,0.3268584,-1
19,F,0,1,34,5,2,133,1,1431,0,0.3525489,12.30011,1.595814,-1
19,F,0,1,34,6,2,136,4,1331,0,0.5403619,12.58326,2.390319,-1
19,F,0,1,34,7,2,135,3,1965,1,0.6035484,12.48694,2.735522,-1
19,F,0,1,34,8,1,134,2,3231,0,0.4733117,6.620444,3.87818,-1
19,F,0,1,35,1,2,140,4,1409,0,1.025014,12.59427,4.585437,-1
19,F,0,1,35,2,1,137,1,2476,1,0.2931083,6.150046,2.588685,-1
19,F,0,1,35,3,1,138,2,2042,0,0.3278651,6.589552,2.712094,-1
19,F,0,1,35,4,1,140,4,1253,0,0.3003881,6.691061,2.417432,-1
19,F,0,1,35,5,2,139,3,1931,0,0.1112262,12.47911,0.5016313,-1
19,F,0,1,35,6,2,138,2,976,0,0.8356539,12.55203,3.727411,-1
19,F,0,1,35,7,1,139,3,4087,0,0.242232,6.529493,2.037592,-1
19,F,0,1,35,8,2,137,1,1309,0,0.7071179,12.3411,3.181185,-1
19,F,0,1,37,1,4,146,2,942,0,0.7153441,12.44079,3.198493,-1
19,F,0,1,37,2,4,147,3,1364,0,0.9733278,12.29657,4.387446,-1
19,F,0,1,37,3,4,145,1,1053,0,1.002426,12.2404,4.544674,-1
19,F,0,1,37,4,4,148,4,1076,0,0.2166846,12.46235,0.9797872,-1
19,F,0,1,37,5,3,147,3,3698,0,0.5354944,6.345585,4.619019,-1
19,F,0,1,37,6,3,145,1,2476,0,0.2179031,6.149655,1.932999,-1
19,F,0,1,37,7,3,148,4,4198,1,0.4359438,6.521254,3.620176,-1
19,F,0,1,37,8,3,146,2,2376,0,0.01240141,6.494929,0.1027921,-1
19,F,0,1,38,1,4,149,1,1765,0,0.7438642,12.20332,3.437694,-1
19,F,0,1,38,2,3,150,2,3398,0,0.369703,6.481624,3.059279,-1
19,F,0,1,38,3,4,151,3,2987,0,0.7700853,12.25824,3.534353,-1
19,F,0,1,38,4,3,152,4,1442,0,0.4475507,6.566209,3.738112,-1
19,F,0,1,38,5,3,149,1,3687,1,0.07895663,6.117846,0.7010924,-1
19,F,0,1,38,6,3,151,3,4042,1,0.248716,6.323971,2.152405,-1
19,F,0,1,38,7,4,150,2,1587,1,0.122733,12.42984,0.5524929,-1
19,F,0,1,38,8,4,152,4,2165,0,0.4160046,12.43889,1.863721,-1
19,F,0,1,39,1,3,155,3,3731,1,0.2094114,6.333794,1.806561,-1
19,F,0,1,39,2,3,154,2,2653,1,0.2770425,6.492529,2.297292,-1
19,F,0,1,39,3,4,155,3,2765,1,0.9412551,12.26376,4.264664,-1
19,F,0,1,39,4,4,153,1,8998,0,0.4664238,12.17499,2.132215,-1
19,F,0,1,39,5,4,154,2,853,0,0.2003492,12.35118,0.9115012,-1
19,F,0,1,39,6,3,156,4,3620,1,0.2008554,6.543798,1.658474,-1
19,F,0,1,39,7,3,153,1,2131,0,0.1695838,6.125084,1.508828,-1
19,F,0,1,39,8,4,156,4,4209,0,0.7138194,12.41038,3.205279,-1
19,F,0,1,40,1,4,157,1,1787,0,0.1227598,12.26551,0.563365,-1
19,F,0,1,40,2,4,158,2,1376,0,1.064838,12.46073,4.769742,-1
19,F,0,1,40,3,3,159,3,3376,0,0.03008426,6.374676,0.2579304,-1
19,F,0,1,40,4,3,158,2,2587,0,0.5194917,6.516496,4.309117,-1
19,F,0,1,40,5,4,160,4,2487,1,0.6877433,12.5087,3.120482,-1
19,F,0,1,40,6,3,157,1,1654,0,0.3466377,6.14418,3.044783,-1
19,F,0,1,40,7,4,159,3,2753,0,0.3792074,12.36081,1.716004,-1
19,F,0,1,40,8,3,160,4,2476,1,0.1708308,6.579878,1.404303,-1
19,F,0,1,41,1,2,163,3,3631,1,0.937047,12.26448,4.33332,-1
19,F,0,1,41,2,1,162,2,1676,0,0.3551703,6.503555,2.98983,-1
19,F,0,1,41,3,2,161,1,1409,0,0.4176449,12.19638,1.912336,-1
19,F,0,1,41,4,1,164,4,2620,1,0.1434766,6.504645,1.19239,-1
19,F,0,1,41,5,2,162,2,1576,1,0.4345047,12.38562,1.978431,-1
19,F,0,1,41,6,2,164,4,976,0,0.4825486,12.37376,2.159849,-1
19,F,0,1,41,7,1,161,1,1498,0,0.1324395,6.101094,1.181012,-1
19,F,0,1,41,8,1,163,3,3253,0,4.167535E-08,6.289894,0,-1
19,F,0,1,42,1,2,165,1,1465,0,0.1372334,12.20352,0.628073,-1
19,F,0,1,42,2,2,168,4,2131,0,0.9761592,12.38878,4.367222,-1
19,F,0,1,42,3,2,167,3,1687,0,0.3762256,12.27815,1.725103,-1
19,F,0,1,42,4,1,168,4,2820,1,0.08194344,6.512446,0.6832828,-1
19,F,0,1,42,5,1,167,3,2909,0,0.3907263,6.286878,3.395518,-1
19,F,0,1,42,6,1,166,2,2531,0,0.2172286,6.496794,1.812617,-1
19,F,0,1,42,7,1,165,1,1842,0,0.1857762,6.100824,1.644015,-1
19,F,0,1,42,8,2,166,2,1554,1,0.4954599,12.39884,2.227829,-1
19,F,0,1,43,1,1,172,4,1631,0,0.1023729,6.5076,0.8534044,-1
19,F,0,1,43,2,1,170,2,3976,0,0.5332045,6.505418,4.447349,-1
19,F,0,1,43,3,1,171,3,3253,0,0.09126274,6.336962,0.7870849,-1
19,F,0,1,43,4,2,170,2,1653,1,0.4659181,12.40592,2.094337,-1
19,F,0,1,43,5,2,171,3,1909,0,0.5892748,12.31326,2.701898,-1
19,F,0,1,43,6,1,169,1,1331,0,6.915096E-08,6.127574,0,-1
19,F,0,1,43,7,2,172,4,1220,0,0.4077124,12.43108,1.816608,-1
19,F,0,1,43,8,2,169,1,2887,0,0.4181114,12.27582,1.917549,-1
19,F,0,1,44,1,1,176,4,1464,0,0.2221305,6.59201,1.819837,-1
19,F,0,1,44,2,2,174,2,1331,1,0.6107212,12.4823,2.766686,-1
19,F,0,1,44,3,1,175,3,2220,0,0.1131653,6.407787,0.96773,-1
19,F,0,1,44,4,2,173,1,1076,0,0.2324877,12.30284,1.065878,-1
19,F,0,1,44,5,2,175,3,1364,0,0.5677535,12.41724,2.587172,-1
19,F,0,1,44,6,1,173,1,1320,0,0.3395499,6.195999,2.980386,-1
19,F,0,1,44,7,2,176,4,8498,4,0.7094535,12.5559,3.131629,-1
19,F,0,1,44,8,1,174,2,1920,0,0.1541792,6.594379,1.280847,-1
19,F,0,1,45,1,2,180,4,1009,0,1.002741,12.52028,4.440738,-1
19,F,0,1,45,2,1,177,1,1209,0,0.5298931,6.212838,4.584796,-1
19,F,0,1,45,3,2,178,2,698,0,0.7161292,12.52172,3.184261,-1
19,F,0,1,45,4,2,177,1,1087,0,1.00564,12.31487,4.521644,-1
19,F,0,1,45,5,1,180,4,1331,0,0.4656599,6.650512,3.773564,-1
19,F,0,1,45,6,1,179,3,2520,0,0.4024937,6.437345,3.420794,-1
19,F,0,1,45,7,1,178,2,2365,1,0.3459513,6.595375,2.867784,-1
19,F,0,1,45,8,2,179,3,1909,0,0.3114963,12.4276,1.411669,-1
19,F,0,1,46,1,1,184,4,2109,0,0.4132106,6.651208,3.360278,-1
19,F,0,1,46,2,1,181,1,1320,0,0.3217703,6.194742,2.833794,-1
19,F,0,1,46,3,1,182,2,1909,0,0.1217005,6.574636,1.01375,-1
19,F,0,1,46,4,2,181,1,1231,0,1.050658,12.30033,4.837481,-1
19,F,0,1,46,5,1,183,3,2765,0,0.07978726,6.415466,0.6795497,-1
19,F,0,1,46,6,2,184,4,1498,0,0.1457634,12.51537,0.6495153,-1
19,F,0,1,46,7,2,182,2,809,0,1.026468,12.51489,4.560594,-1
19,F,0,1,46,8,2,183,3,1953,0,0.6010028,12.42049,2.703998,-1
19,F,0,1,47,1,1,186,2,2542,1,0.2110561,6.594151,1.752118,-1
19,F,0,1,47,2,1,188,4,5142,2,0.5375795,6.626312,4.389187,-1
19,F,0,1,47,3,1,185,1,1442,0,1.439192E-07,6.187063,0,-1
19,F,0,1,47,4,1,187,3,3964,1,8.512671E-08,6.4106,0,-1
19,F,0,1,47,5,2,186,2,898,0,0.9983147,12.51365,4.4384,-1
19,F,0,1,47,6,2,187,3,2231,0,0.9704165,12.40835,4.371839,-1
19,F,0,1,47,7,2,188,4,2220,1,1.140744E-07,12.51448,0.01978234,-1
19,F,0,1,47,8,2,185,1,1298,0,0.0626955,12.30512,0.2846186,-1
19,F,0,1,48,1,1,191,3,3209,0,0.0999852,6.424153,0.8531751,-1
19,F,0,1,48,2,2,190,2,1398,1,0.6138259,12.53604,2.744523,-1
19,F,0,1,48,3,1,189,1,1476,0,0.1546376,6.191889,1.371878,-1
19,F,0,1,48,4,2,192,4,1109,0,0.3731627,12.52875,1.65209,-1
19,F,0,1,48,5,2,189,1,1331,0,0.6656827,12.31533,3.070712,-1
19,F,0,1,48,6,1,192,4,2087,0,0.0007557016,6.633843,0,-1
19,F,0,1,48,7,1,190,2,2009,1,0.1975041,6.594736,1.626423,-1
19,F,0,1,48,8,2,191,3,2498,0,0.5556551,12.41737,2.532655,-1
19,F,0,1,49,1,1,196,4,1586,0,0.4558316,6.637653,3.713886,-1
19,F,0,1,49,2,2,193,1,998,0,0.2316118,12.30965,1.055547,-1
19,F,0,1,49,3,2,194,2,1353,1,0.09965708,12.51999,0.4458725,-1
19,F,0,1,49,4,1,193,1,1853,1,0.1027143,6.18692,0.9099972,-1
19,F,0,1,49,5,2,196,4,1298,0,0.9264132,12.51635,4.205238,-1
19,F,0,1,49,6,1,195,3,3442,1,1.999638E-07,6.429213,0,-1
19,F,0,1,49,7,1,194,2,5553,0,0.2536345,6.599967,2.082341,-1
19,F,0,1,49,8,2,195,3,2465,0,2.002366E-07,12.42455,0,-1
19,F,0,1,50,1,2,197,1,3942,3,1.016513,12.26201,4.667072,-1
19,F,0,1,50,2,1,199,3,3420,1,0.2095193,6.430348,1.79275,-1
19,F,0,1,50,3,2,200,4,1353,0,0.1607098,12.515,0.7162784,-1
19,F,0,1,50,4,2,199,3,1709,0,0.377366,12.4367,1.70525,-1
19,F,0,1,50,5,2,198,2,898,0,0.05036918,12.51315,0.2264194,-1
19,F,0,1,50,6,1,197,1,1431,0,0.03755189,6.19259,0.3304307,-1
19,F,0,1,50,7,1,200,4,2409,0,0.4137486,6.639171,3.340292,-1
19,F,0,1,50,8,1,198,2,1909,1,0.2455475,6.582923,2.043443,-1
19,F,0,1,51,1,2,201,1,1509,0,0.7080203,12.28993,3.245461,-1
19,F,0,1,51,2,2,202,2,842,0,0.8857035,12.50841,3.940742,-1
19,F,0,1,51,3,1,203,3,3409,1,0.1637426,6.453277,1.392267,-1
19,F,0,1,51,4,1,202,2,1920,0,0.2863527,6.590296,2.367694,-1
19,F,0,1,51,5,1,204,4,2953,1,0.1642325,6.646176,1.338229,-1
19,F,0,1,51,6,1,201,1,1520,0,0.04423108,6.170721,0.3906707,-1
19,F,0,1,51,7,2,203,3,2342,0,0.5069078,12.30941,2.300357,-1
19,F,0,1,51,8,2,204,4,1453,0,0.7273282,12.43483,3.240874,-1
19,F,0,1,52,1,1,206,2,2553,1,0.1026788,6.512359,0.8623004,-1
19,F,0,1,52,2,2,205,1,1220,0,0.7781245,12.22426,3.56024,-1
19,F,0,1,52,3,2,206,2,1331,1,0.907892,12.42245,4.064281,-1
19,F,0,1,52,4,1,205,1,1698,0,0.001643407,6.137048,0.01978234,-1
19,F,0,1,52,5,2,208,4,1876,0,0.6092054,12.4354,2.774599,-1
19,F,0,1,52,6,1,207,3,2831,0,0.2280142,6.35073,1.963138,-1
19,F,0,1,52,7,1,208,4,1553,0,0.2592197,6.543509,2.134326,-1
19,F,0,1,52,8,2,207,3,2109,0,0.2935824,12.2981,1.350602,-1
19,F,0,1,53,1,2,212,4,1009,0,0.4324255,12.4067,1.940376,-1
19,F,0,1,53,2,2,210,2,1553,1,0.609894,12.40977,2.784318,-1
19,F,0,1,53,3,1,212,4,1409,0,2.511838E-07,6.52329,0,-1
19,F,0,1,53,4,2,209,1,1054,0,0.2924016,12.21752,1.343338,-1
19,F,0,1,53,5,2,211,3,1242,0,0.3021053,12.28506,1.386492,-1
19,F,0,1,53,6,1,209,1,1654,0,0.002488713,6.117878,0,-1
19,F,0,1,53,7,1,210,2,1542,0,0.1414445,6.522624,1.183495,-1
19,F,0,1,53,8,1,211,3,3653,0,0.4648802,6.34431,4.007754,-1
19,F,0,1,54,1,2,213,1,1220,0,0.552306,12.22965,2.51505,-1
19,F,0,1,54,2,1,215,3,2853,0,0.1612733,6.459147,1.365587,-1
19,F,0,1,54,3,2,216,4,1087,0,0.6289321,12.54945,2.785091,-1
19,F,0,1,54,4,2,214,2,720,0,0.8982928,12.5203,3.994442,-1
19,F,0,1,54,5,2,215,3,1542,0,0.9203544,12.47524,4.176217,-1
19,F,0,1,54,6,1,214,2,1987,0,0.46771,6.581488,3.874543,-1
19,F,0,1,54,7,1,213,1,1842,1,0.4371064,6.13262,3.825154,-1
19,F,0,1,54,8,1,216,4,1220,0,7.325463E-08,6.693039,0,-1
19,F,0,1,55,1,1,218,2,1820,0,0.46665,6.589629,3.867764,-1
19,F,0,1,55,2,2,217,1,1153,0,0.6562651,12.27784,2.963855,-1
19,F,0,1,55,3,1,220,4,2665,1,1.099933E-07,6.695161,0,-1
19,F,0,1,55,4,1,217,1,2020,0,0.3993208,6.136867,3.48953,-1
19,F,0,1,55,5,2,218,2,787,0,0.8802918,12.52513,3.910412,-1
19,F,0,1,55,6,1,219,3,3675,0,0.4368989,6.530756,3.664365,-1
19,F,0,1,55,7,2,220,4,1209,0,0.8193777,12.58528,3.609614,-1
19,F,0,1,55,8,2,219,3,2109,0,0.2923948,12.50126,1.31745,-1
19,F,0,1,56,1,2,222,2,1109,0,0.2024391,12.5544,0.9024397,-1
19,F,0,1,56,2,1,223,3,3520,0,0.1024474,6.528254,0.8607104,-1
19,F,0,1,56,3,1,222,2,2687,1,0.2120822,6.593092,1.761475,-1
19,F,0,1,56,4,2,223,3,1509,0,3.640381E-07,12.47714,0.01978234,-1
19,F,0,1,56,5,1,224,4,1342,0,0.1563535,6.697834,1.263465,-1
19,F,0,1,56,6,2,221,1,1276,0,1.018462,12.29131,4.586633,-1
19,F,0,1,56,7,2,224,4,1198,0,0.6316679,12.59354,2.790427,-1
19,F,0,1,56,8,1,221,1,2220,1,0.3991828,6.147902,3.486723,-1
19,F,0,1,57,1,4,228,4,2220,1,1.025947,12.46316,4.597638,-1
19,F,0,1,57,2,4,226,2,609,0,0.3191926,12.42497,1.438311,-1
19,F,0,1,57,3,4,227,3,1887,1,0.3401207,12.31898,1.5418,-1
19,F,0,1,57,4,3,228,4,2953,1,0.2563076,6.540784,2.112388,-1
19,F,0,1,57,5,4,225,1,1020,0,4.778076E-08,12.22716,0,-1
19,F,0,1,57,6,3,227,3,4053,0,0.2925183,6.368545,2.536207,-1
19,F,0,1,57,7,3,225,1,1820,1,0.005397352,6.124296,0.04845664,-1
19,F,0,1,57,8,3,226,2,3753,0,0.2495519,6.498409,2.091438,-1
19,F,0,1,58,1,3,229,1,1942,0,3.558679E-07,6.140311,0,-1
19,F,0,1,58,2,4,232,4,2753,0,0.5653912,12.45921,2.535204,-1
19,F,0,1,58,3,4,231,3,4587,0,0.8030141,12.26534,3.636473,-1
19,F,0,1,58,4,4,230,2,931,0,0.121458,12.40132,0.5492961,-1
19,F,0,1,58,5,3,231,3,3853,1,0.2464107,6.332589,2.127161,-1
19,F,0,1,58,6,3,230,2,4009,0,0.2445413,6.510887,2.089285,-1
19,F,0,1,58,7,3,232,4,2787,0,0.3344737,6.535413,2.77114,-1
19,F,0,1,58,8,4,229,1,1642,0,0.8381581,12.21184,3.894556,-1
19,F,0,1,59,1,4,234,2,1298,1,0.6429986,12.40175,2.933449,-1
19,F,0,1,59,2,3,233,1,1453,0,1.178133E-07,6.113608,0,-1
19,F,0,1,59,3,4,236,4,5764,3,0.7595798,12.46929,3.379682,-1
19,F,0,1,59,4,3,234,2,2909,1,0.03033339,6.480997,0.2548778,-1
19,F,0,1,59,5,3,236,4,1676,0,0.3386009,6.536018,2.799672,-1
19,F,0,1,59,6,4,235,3,2098,0,0.3738824,12.30448,1.711894,-1
19,F,0,1,59,7,4,233,1,1620,0,0.9426013,12.21994,4.369598,-1
19,F,0,1,59,8,3,235,3,2898,0,0.01060543,6.328789,0.09278741,-1
19,F,0,1,60,1,4,237,1,1287,0,0.1600779,12.23415,0.7375443,-1
19,F,0,1,60,2,3,239,3,3087,1,0.0567831,6.319706,0.4921804,-1
19,F,0,1,60,3,3,240,4,3320,1,0.04968813,6.562499,0.4140146,-1
19,F,0,1,60,4,4,239,3,3876,0,0.8477561,12.288,3.905501,-1
19,F,0,1,60,5,4,238,2,1153,1,1.023566,12.44836,4.665183,-1
19,F,0,1,60,6,3,237,1,1698,0,1.655837E-07,6.100751,0,-1
19,F,0,1,60,7,3,238,2,1453,0,0.1886898,6.471813,1.583132,-1
19,F,0,1,60,8,4,240,4,2087,0,0.6130152,12.41279,2.735808,-1
19,F,0,1,61,1,2,243,3,2153,0,1.559633E-07,12.29887,0,-1
19,F,0,1,61,2,1,241,1,1265,0,0.3442743,6.105949,3.07256,-1
19,F,0,1,61,3,1,242,2,2142,0,3.581662E-07,6.496229,0,-1
19,F,0,1,61,4,2,244,4,1398,0,0.4208513,12.40924,1.878365,-1
19,F,0,1,61,5,1,243,3,3553,0,0.3356774,6.333987,2.899013,-1
19,F,0,1,61,6,1,244,4,1420,0,0.2848925,6.534585,2.359745,-1
19,F,0,1,61,7,2,241,1,1320,0,0.9342893,12.19713,4.352847,-1
19,F,0,1,61,8,2,242,2,820,0,0.4819491,12.40741,2.16564,-1
19,F,0,1,62,1,2,247,3,1853,0,0.788533,12.30385,3.58534,-1
19,F,0,1,62,2,2,245,1,1209,0,0.4457619,12.20713,2.073582,-1
19,F,0,1,62,3,1,246,2,1309,0,1.712639E-08,6.499712,0,-1
19,F,0,1,62,4,1,248,4,1387,0,0.4786644,6.525963,3.957403,-1
19,F,0,1,62,5,1,245,1,1464,0,0.1083048,6.102793,0.964895,-1
19,F,0,1,62,6,2,246,2,1020,0,0.1122532,12.41217,0.5078341,-1
19,F,0,1,62,7,1,247,3,2320,0,0.5216317,6.335869,4.506153,-1
19,F,0,1,62,8,2,248,4,853,0,0.2310328,12.41194,1.035899,-1
19,F,0,1,1,1,7,1,1,15507,0,3.433368,6.145383,33.96529,-1
19,F,0,1,1,2,5,2,2,8498,0,1.134862,6.486427,9.517543,-1
19,F,0,1,1,3,7,4,4,8887,0,4.116438,6.583436,38.70216,-1
19,F,0,1,1,4,8,2,2,4476,0,3.22841,12.40352,14.97935,-1
19,F,0,1,1,5,5,1,1,3064,0,2.090023,6.125981,18.67329,-1
19,F,0,1,1,6,8,4,4,1664,0,8.78647,12.46412,44.82477,-1
19,F,0,1,1,7,6,1,1,3020,0,7.021596,12.23559,35.014,-1
19,F,0,1,1,8,5,3,3,4564,0,2.194695,6.365112,19.21653,-1
19,F,0,1,1,9,6,4,4,2120,0,4.270623,12.43521,19.63798,-1
19,F,0,1,1,10,6,2,2,3064,0,4.733361,12.42556,22.39176,-1
19,F,0,1,1,11,6,3,3,4231,0,6.715908,12.35004,32.93336,-1
19,F,0,1,1,12,8,1,1,2231,0,1.167171,12.21649,5.290725,-1
19,F,0,1,1,13,7,3,3,2698,0,2.580386,6.37774,22.71963,-1
19,F,0,1,1,14,5,4,4,2109,0,2.300364,6.551092,19.33732,-1
19,F,0,1,1,15,8,3,3,3076,0,8.500203,12.34961,43.48122,-1
19,F,0,1,1,16,7,2,2,1764,0,4.209682,6.493103,40.4159,-1
19,F,0,1,2,1,8,2,2,4531,0,2.177374,12.40967,10.02774,-1
19,F,0,1,2,2,8,4,4,1764,0,7.99665,12.45446,39.94645,-1
19,F,0,1,2,3,8,1,1,2253,0,0.09730295,12.22502,0.4463111,-1
19,F,0,1,2,4,7,4,4,1564,0,2.013541,6.57345,16.86147,-1
19,F,0,1,2,5,6,1,1,2287,0,1.290325,12.23751,5.992437,-1
19,F,0,1,2,6,8,3,3,2853,0,0.07325935,12.33011,0.3333784,-1
19,F,0,1,2,7,5,2,2,1231,0,2.186314,6.520437,18.6924,-1
19,F,0,1,2,8,7,1,1,3476,0,1.742676,6.177009,15.6836,-1
19,F,0,1,2,9,6,3,3,2187,0,7.641515,12.3611,38.17302,-1
19,F,0,1,2,10,5,1,1,1142,0,3.420833,6.150108,33.795,-1
19,F,0,1,2,11,5,3,3,2876,0,5.614876,6.415121,61.07536,-1
19,F,0,1,2,12,7,2,2,2398,0,4.262627,6.497767,40.99659,-1
19,F,0,1,2,13,6,4,4,2609,0,5.293187,12.44953,25.16153,-1
19,F,0,1,2,14,6,2,2,2053,0,5.145068,12.4361,24.43875,-1
19,F,0,1,2,15,7,3,3,2120,0,4.108854,6.392072,37.86023,-1
19,F,0,1,2,16,5,4,4,4331,0,3.276981,6.562537,29.50291,-1
