Age, Gender, Awareness Type, Session, Block, Trial, Set, Pattern, Quadrant, Response Time, Num Mistakes, Distance From Target, Camera Distance From Target, Angle Error (Degrees), FC Response
18,M,0,1,1,1,1,4,4,1675,0,0.2501822,6.611303,2.072166,-1
18,M,0,1,1,2,2,1,1,3053,0,0.1602881,12.42219,0.7255072,-1
18,M,0,1,1,3,1,2,2,3509,0,0.5094731,6.593606,4.219326,-1
18,M,0,1,1,4,1,3,3,2175,0,0.1296467,6.399694,1.113642,-1
18,M,0,1,1,5,2,4,4,2631,0,5.418044E-09,12.57065,0,-1
18,M,0,1,1,6,1,1,1,3876,0,0.05037948,6.371056,0.4343124,-1
18,M,0,1,1,7,2,3,3,2220,0,0.5979271,12.36284,2.736094,-1
18,M,0,1,1,8,2,2,2,1209,0,0.3082966,12.5458,1.392127,-1
18,M,0,1,2,1,1,8,4,2186,0,0.4965121,6.602326,4.160619,-1
18,M,0,1,2,2,2,7,3,1531,0,0.2903576,12.36546,1.325004,-1
18,M,0,1,2,3,2,6,2,1009,0,0.3153933,12.54127,1.422991,-1
18,M,0,1,2,4,2,5,1,2075,0,3.449893E-08,12.42612,0,-1
18,M,0,1,2,5,1,6,2,5520,0,0.1718568,6.587723,1.422853,-1
18,M,0,1,2,6,1,5,1,1476,0,5.687894E-08,6.366189,0,-1
18,M,0,1,2,7,2,8,4,2420,0,0.6219668,12.55191,2.818765,-1
18,M,0,1,2,8,1,7,3,2298,0,0.06386279,6.414727,0.5432066,-1
18,M,0,1,3,1,1,10,2,3098,1,0.2357124,6.580028,1.953945,-1
18,M,0,1,3,2,1,9,1,1298,0,1.829064E-07,6.360346,0,-1
18,M,0,1,3,3,2,11,3,6986,1,0.1129473,12.35952,0.5147229,-1
18,M,0,1,3,4,2,12,4,2653,0,0.6136844,12.53666,2.776926,-1
18,M,0,1,3,5,1,11,3,3598,1,0.05590609,6.357911,0.4845679,-1
18,M,0,1,3,6,1,12,4,2131,0,0.4062343,6.592403,3.419649,-1
18,M,0,1,3,7,2,10,2,1420,0,0.3415656,12.52582,1.531102,-1
18,M,0,1,3,8,2,9,1,3820,0,0.3786961,12.43731,1.714178,-1
18,M,0,1,4,1,1,14,2,3453,1,0.07718164,6.586046,0.6440698,-1
18,M,0,1,4,2,2,13,1,6209,1,0.7945254,12.43889,3.641155,-1
18,M,0,1,4,3,1,15,3,3298,0,0.3980047,6.349419,3.457853,-1
18,M,0,1,4,4,1,16,4,2209,0,0.09625515,6.536659,0.8091505,-1
18,M,0,1,4,5,2,14,2,1253,1,0.4168404,12.47924,1.866764,-1
18,M,0,1,4,6,2,16,4,1753,0,0.5837238,12.49778,2.60902,-1
18,M,0,1,4,7,2,15,3,2265,0,0.5340433,12.33516,2.419051,-1
18,M,0,1,4,8,1,13,1,1765,0,0.4277069,6.339896,3.675516,-1
18,M,0,1,5,1,1,19,3,2498,0,0.161893,6.381747,1.395356,-1
18,M,0,1,5,2,1,18,2,3387,2,0.1678692,6.517322,1.418859,-1
18,M,0,1,5,3,2,20,4,1798,0,0.1629887,12.51088,0.7303458,-1
18,M,0,1,5,4,2,17,1,1420,0,0.9532253,12.39604,4.327305,-1
18,M,0,1,5,5,1,20,4,2420,0,0.01654457,6.542379,0.1370561,-1
18,M,0,1,5,6,1,17,1,7498,1,0.2493163,6.300629,2.201315,-1
18,M,0,1,5,7,2,19,3,3142,0,0.6140504,12.3298,2.804003,-1
18,M,0,1,5,8,2,18,2,4764,0,0.5116684,12.44247,2.325237,-1
18,M,0,1,6,1,2,21,1,1376,0,0.3610606,12.36863,1.646751,-1
18,M,0,1,6,2,2,22,2,1009,0,0.237024,12.45794,1.071919,-1
18,M,0,1,6,3,2,24,4,1665,0,0.1032512,12.49929,0.4635163,-1
18,M,0,1,6,4,2,23,3,1431,0,0.711831,12.3344,3.225372,-1
18,M,0,1,6,5,1,24,4,2631,0,0.2804335,6.534791,2.319253,-1
18,M,0,1,6,6,1,22,2,4875,1,0.003630561,6.512074,0.01978234,-1
18,M,0,1,6,7,1,21,1,1587,0,0.4733309,6.323451,4.088111,-1
18,M,0,1,6,8,1,23,3,2309,0,0.422812,6.348537,3.68828,-1
18,M,0,1,7,1,2,26,2,1831,1,0.8170279,12.46624,3.711249,-1
18,M,0,1,7,2,2,27,3,2076,0,0.2262577,12.32328,1.036088,-1
18,M,0,1,7,3,2,25,1,5976,3,0.3365217,12.35139,1.534931,-1
18,M,0,1,7,4,1,27,3,3953,1,0.4350513,6.321396,3.80385,-1
18,M,0,1,7,5,1,28,4,3009,1,0.06478013,6.528488,0.5388666,-1
18,M,0,1,7,6,1,25,1,1731,0,0.1290113,6.318362,1.122045,-1
18,M,0,1,7,7,1,26,2,1220,0,0.3164312,6.515697,2.669392,-1
18,M,0,1,7,8,2,28,4,1942,0,0.3754738,12.48205,1.681792,-1
18,M,0,1,8,1,2,29,1,1120,0,9.140286E-08,12.37018,0,-1
18,M,0,1,8,2,2,31,3,1876,0,0.2853439,12.31619,1.311495,-1
18,M,0,1,8,3,2,32,4,2276,0,0.6395184,12.48919,2.891982,-1
18,M,0,1,8,4,2,30,2,998,0,0.04628966,12.45786,0.2074791,-1
18,M,0,1,8,5,1,31,3,3153,0,0.005584185,6.337043,0.04423466,-1
18,M,0,1,8,6,1,29,1,1576,1,0.06134653,6.313965,0.5355885,-1
18,M,0,1,8,7,1,32,4,2253,0,1.318812E-07,6.532445,0.01978234,-1
18,M,0,1,8,8,1,30,2,2109,1,0.2823052,6.510276,2.363557,-1
18,M,0,1,9,1,1,35,3,1998,0,0.1500164,6.339845,1.283137,-1
18,M,0,1,9,2,2,33,1,909,0,0.1512683,12.38414,0.6847132,-1
18,M,0,1,9,3,1,34,2,4542,0,0.02136426,6.509531,0.1802258,-1
18,M,0,1,9,4,1,33,1,1353,0,0.3590498,6.345351,3.082356,-1
18,M,0,1,9,5,1,36,4,2098,0,0.2108296,6.532476,1.747981,-1
18,M,0,1,9,6,2,35,3,1709,0,0.4513004,12.32698,2.073771,-1
18,M,0,1,9,7,2,36,4,4709,3,0.5631697,12.48688,2.517073,-1
18,M,0,1,9,8,2,34,2,1087,0,0.3961267,12.46164,1.779493,-1
18,M,0,1,10,1,2,39,3,1798,0,0.2808671,12.32423,1.28983,-1
18,M,0,1,10,2,1,38,2,2698,1,0.1430857,6.518942,1.209175,-1
18,M,0,1,10,3,2,40,4,2242,1,0.4197125,12.49215,1.90793,-1
18,M,0,1,10,4,1,37,1,2286,1,0.2907953,6.321917,2.507802,-1
18,M,0,1,10,5,2,38,2,820,0,0.5703813,12.4656,2.544683,-1
18,M,0,1,10,6,1,39,3,2120,0,0.4985302,6.344909,4.352037,-1
18,M,0,1,10,7,1,40,4,2076,1,0.01806376,6.532316,0.1506579,-1
18,M,0,1,10,8,2,37,1,1065,0,8.44644E-08,12.36573,0,-1
18,M,0,1,11,1,2,43,3,1976,1,0.07241017,12.3147,0.3304307,-1
18,M,0,1,11,2,1,41,1,3498,0,1.066957E-07,6.311713,0,-1
18,M,0,1,11,3,2,44,4,3386,0,0.3816051,12.47613,1.710063,-1
18,M,0,1,11,4,1,43,3,2753,1,0.3603618,6.295772,3.166505,-1
18,M,0,1,11,5,1,42,2,3487,1,0.2550146,6.469417,2.148492,-1
18,M,0,1,11,6,1,44,4,2198,0,0.4685482,6.502877,3.874998,-1
18,M,0,1,11,7,2,41,1,1265,0,0.5412789,12.3765,2.456228,-1
18,M,0,1,11,8,2,42,2,1909,0,0.04736872,12.45178,0.2130625,-1
18,M,0,1,12,1,1,45,1,1409,0,0.1246083,6.297168,1.094679,-1
18,M,0,1,12,2,2,48,4,2376,0,0.7010923,12.47806,3.170891,-1
18,M,0,1,12,3,2,46,2,1876,0,0.6552452,12.44663,2.938915,-1
18,M,0,1,12,4,1,47,3,3109,0,8.340786E-08,6.327774,0,-1
18,M,0,1,12,5,1,48,4,1731,0,0.4917332,6.525665,4.147702,-1
18,M,0,1,12,6,1,46,2,1076,0,0.3068348,6.499434,2.572301,-1
18,M,0,1,12,7,2,45,1,964,0,0.2012501,12.36426,0.9123595,-1
18,M,0,1,12,8,2,47,3,1931,0,0.09694344,12.31052,0.4423477,-1
18,M,0,1,13,1,1,52,4,2465,0,0.2867101,6.758632,2.296269,-1
18,M,0,1,13,2,2,49,1,1098,0,1.018111,12.61358,4.53488,-1
18,M,0,1,13,3,2,50,2,1520,1,1.63556E-07,12.68847,0,-1
18,M,0,1,13,4,1,51,3,3020,0,0.107565,6.531182,0.9104272,-1
18,M,0,1,13,5,1,50,2,1209,0,0.2958789,6.700334,2.410053,-1
18,M,0,1,13,6,2,51,3,1698,0,0.4918875,12.56078,2.189637,-1
18,M,0,1,13,7,1,49,1,1942,1,0.4232712,6.501112,3.625202,-1
18,M,0,1,13,8,2,52,4,2042,0,2.667404E-07,12.73872,0,-1
18,M,0,1,14,1,1,55,3,2431,0,0.2712242,6.533633,2.283362,-1
18,M,0,1,14,2,1,56,4,2320,0,0.3744923,6.777909,3.040987,-1
18,M,0,1,14,3,2,53,1,1809,0,0.0422308,12.60846,0.1887116,-1
18,M,0,1,14,4,2,56,4,1553,0,0.7105829,12.75129,3.126248,-1
18,M,0,1,14,5,1,54,2,2931,0,2.657258E-07,6.715739,0,-1
18,M,0,1,14,6,1,53,1,1976,1,0.06103913,6.519109,0.5162413,-1
18,M,0,1,14,7,2,55,3,1553,0,0.3530144,12.54907,1.590532,-1
18,M,0,1,14,8,2,54,2,976,0,1.008322,12.69362,4.439149,-1
18,M,0,1,15,1,2,60,4,1209,0,0.03978375,12.74958,0.1769387,-1
18,M,0,1,15,2,2,57,1,998,0,0.3004941,12.61495,1.336034,-1
18,M,0,1,15,3,1,58,2,3365,0,0.397673,6.712997,3.266387,-1
18,M,0,1,15,4,2,59,3,2642,1,0.5210138,12.56076,2.356009,-1
18,M,0,1,15,5,1,57,1,4220,0,0.1017289,6.522211,0.8643403,-1
18,M,0,1,15,6,2,58,2,698,0,0.5608997,12.69251,2.504678,-1
18,M,0,1,15,7,1,60,4,2342,0,3.128339E-07,6.770909,0,-1
18,M,0,1,15,8,1,59,3,2842,0,0.4045136,6.528718,3.430738,-1
18,M,0,1,16,1,1,61,1,4253,0,0.4599935,6.541289,3.858184,-1
18,M,0,1,16,2,1,63,3,3898,0,0.3005899,6.533336,2.546836,-1
18,M,0,1,16,3,1,62,2,1265,0,0.1291452,6.721415,1.047545,-1
18,M,0,1,16,4,1,64,4,2176,0,0.01864669,6.768952,0.1506579,-1
18,M,0,1,16,5,2,63,3,1987,1,0.1321524,12.55486,0.5934729,-1
18,M,0,1,16,6,2,61,1,1254,0,0.6797644,12.62296,3.019993,-1
18,M,0,1,16,7,2,62,2,4787,0,0.3305051,12.71632,1.468604,-1
18,M,0,1,16,8,2,64,4,2631,0,0.4576804,12.75878,2.030376,-1
18,M,0,1,17,1,3,66,2,1820,1,1.417838E-07,6.715707,0,-1
18,M,0,1,17,2,4,68,4,1876,0,1.317857E-08,12.75346,0,-1
18,M,0,1,17,3,3,67,3,3042,1,0.03850404,6.546227,0.3238513,-1
18,M,0,1,17,4,3,65,1,3253,1,0.5231199,6.506276,4.38691,-1
18,M,0,1,17,5,4,66,2,7186,2,0.4927413,12.68898,2.163018,-1
18,M,0,1,17,6,4,67,3,2498,1,0.950739,12.57308,4.296417,-1
18,M,0,1,17,7,3,68,4,2709,0,0.1595593,6.800137,1.277788,-1
18,M,0,1,17,8,4,65,1,2687,1,0.1254584,12.61753,0.5584812,-1
18,M,0,1,18,1,4,71,3,2798,0,0.959341,12.57762,4.293088,-1
18,M,0,1,18,2,4,69,1,3553,0,3.148211E-08,12.63943,0,-1
18,M,0,1,18,3,4,72,4,2065,0,0.7187849,12.74115,3.207538,-1
18,M,0,1,18,4,3,69,1,1720,0,0.2862253,6.520553,2.402652,-1
18,M,0,1,18,5,3,72,4,3609,0,0.3927541,6.778115,3.124369,-1
18,M,0,1,18,6,3,70,2,1698,0,0.382483,6.726837,3.135128,-1
18,M,0,1,18,7,3,71,3,3842,2,0.5117877,6.537884,4.336212,-1
18,M,0,1,18,8,4,70,2,853,0,0.5805723,12.73732,2.572377,-1
18,M,0,1,19,1,3,75,3,2898,0,0.5007257,6.54044,4.240993,-1
18,M,0,1,19,2,4,74,2,1020,0,0.1594674,12.70092,0.7066523,-1
18,M,0,1,19,3,4,76,4,1431,0,9.358118E-08,12.7612,0,-1
18,M,0,1,19,4,3,73,1,2053,2,3.531308E-08,6.530635,0,-1
18,M,0,1,19,5,3,76,4,2887,0,1.109551E-07,6.779122,0.01978234,-1
18,M,0,1,19,6,4,75,3,1609,0,0.1776414,12.568,0.7940154,-1
18,M,0,1,19,7,4,73,1,854,0,0.6424568,12.64539,2.86949,-1
18,M,0,1,19,8,3,74,2,8920,4,0.1799022,6.733612,1.478299,-1
18,M,0,1,20,1,3,79,3,3275,1,0.558088,6.552889,4.680065,-1
18,M,0,1,20,2,4,80,4,1453,0,0.3955813,12.72012,1.732349,-1
18,M,0,1,20,3,3,77,1,1464,0,0.4813336,6.563217,4.02696,-1
18,M,0,1,20,4,4,79,3,1642,0,0.9389861,12.56201,4.172651,-1
18,M,0,1,20,5,3,80,4,2587,1,0.5596491,6.797138,4.554533,-1
18,M,0,1,20,6,4,78,2,653,0,0.5423811,12.72458,2.378252,-1
18,M,0,1,20,7,4,77,1,1842,0,0.6578259,12.69302,2.921881,-1
18,M,0,1,20,8,3,78,2,3276,3,0.007972416,6.727518,0.0656106,-1
18,M,0,1,20,1,2,80,4,2353,0,0.6088166,12.76921,2.663666,-1
18,M,0,1,20,2,2,78,2,842,0,0.8527915,12.725,3.725152,-1
18,M,0,1,20,3,1,77,1,4665,2,0.04806371,6.546048,0.403483,-1
18,M,0,1,20,4,2,79,3,2409,1,0.2190457,12.56552,0.98437,-1
18,M,0,1,20,5,1,80,4,2687,0,0.01017648,6.773647,0.07912937,-1
18,M,0,1,20,6,1,78,2,4353,2,0.1078293,6.749555,0.8807117,-1
18,M,0,1,20,7,2,77,1,1287,1,2.101354E-08,12.62302,0,-1
18,M,0,1,20,8,1,79,3,2609,1,0.384929,6.527144,3.265128,-1
18,M,0,1,21,1,2,81,1,987,2,0.1119889,12.37852,0.508604,-1
18,M,0,1,21,2,1,82,2,1998,0,9.40792E-08,6.452853,0,-1
18,M,0,1,21,3,1,84,4,1831,0,0.2717442,6.507781,2.256981,-1
18,M,0,1,21,4,1,83,3,2020,0,0.3420414,6.325265,2.990485,-1
18,M,0,1,21,5,2,82,2,1042,0,0.3255765,12.39995,1.465269,-1
18,M,0,1,21,6,2,83,3,4987,0,0.587079,12.27502,2.713898,-1
18,M,0,1,21,7,1,81,1,4642,1,0.1718791,6.271187,1.518138,-1
18,M,0,1,21,8,2,84,4,1476,0,1.033498,12.44426,4.64764,-1
18,M,0,1,22,1,2,86,2,987,0,0.6740712,12.41081,3.064138,-1
18,M,0,1,22,2,2,87,3,1531,0,1.005078,12.29431,4.571147,-1
18,M,0,1,22,3,1,86,2,1820,0,0.4352354,6.459467,3.67525,-1
18,M,0,1,22,4,1,88,4,3053,1,0.2124508,6.513014,1.766246,-1
18,M,0,1,22,5,2,85,1,1087,0,0.3223208,12.33142,1.465937,-1
18,M,0,1,22,6,1,87,3,3287,0,1.614403E-07,6.328022,0,-1
18,M,0,1,22,7,1,85,1,3342,1,0.4189113,6.279166,3.632864,-1
18,M,0,1,22,8,2,88,4,1486,0,1.023473,12.45094,4.576757,-1
18,M,0,1,23,1,1,90,2,4698,2,0.5491424,6.461551,4.673154,-1
18,M,0,1,23,2,1,89,1,1820,0,0.3633381,6.281697,3.181,-1
18,M,0,1,23,3,2,92,4,1409,0,0.8157043,12.45315,3.664098,-1
18,M,0,1,23,4,2,91,3,2487,1,1.021777,12.29216,4.648062,-1
18,M,0,1,23,5,1,92,4,3298,0,0.5286648,6.517545,4.443119,-1
18,M,0,1,23,6,2,90,2,1176,0,3.801079E-07,12.42072,0,-1
18,M,0,1,23,7,2,89,1,1109,0,0.1549761,12.34405,0.7038778,-1
18,M,0,1,23,8,1,91,3,3142,0,5.122831E-08,6.338388,0,-1
18,M,0,1,24,1,2,96,4,1942,0,0.7336664,12.45334,3.29509,-1
18,M,0,1,24,2,2,93,1,998,0,0.5861492,12.33588,2.666016,-1
18,M,0,1,24,3,1,96,4,2831,1,0.3209906,6.531418,2.655644,-1
18,M,0,1,24,4,2,95,3,1820,0,0.8178157,12.29931,3.735125,-1
18,M,0,1,24,5,1,93,1,1253,0,0.3950028,6.280831,3.424398,-1
18,M,0,1,24,6,1,94,2,3609,0,0.1498821,6.46541,1.269954,-1
18,M,0,1,24,7,1,95,3,4231,0,0.2240277,6.330325,1.958347,-1
18,M,0,1,24,8,2,94,2,887,0,0.06497177,12.40444,0.2940859,-1
18,M,0,1,25,1,1,97,1,1587,0,2.444959E-07,6.252315,0,-1
18,M,0,1,25,2,1,98,2,2420,0,0.5097988,6.438158,4.363857,-1
18,M,0,1,25,3,1,100,4,4320,3,0.2359595,6.497838,1.964534,-1
18,M,0,1,25,4,2,98,2,1609,0,0.7059268,12.39204,3.180077,-1
18,M,0,1,25,5,1,99,3,3964,1,0.4972107,6.305233,4.353072,-1
18,M,0,1,25,6,2,100,4,2053,1,0.8237114,12.42447,3.699041,-1
18,M,0,1,25,7,2,97,1,1298,0,0.1984309,12.30665,0.9050379,-1
18,M,0,1,25,8,2,99,3,2220,1,0.240857,12.25717,1.108711,-1
18,M,0,1,26,1,2,102,2,1365,0,0.9207218,12.38744,4.15077,-1
18,M,0,1,26,2,2,101,1,1664,0,0.4127012,12.3023,1.894859,-1
18,M,0,1,26,3,2,104,4,1231,0,0.9528228,12.43015,4.288889,-1
18,M,0,1,26,4,1,102,2,3842,1,0.2888632,6.445369,2.443444,-1
18,M,0,1,26,5,1,101,1,4375,0,6.407592E-08,6.250439,0,-1
18,M,0,1,26,6,2,103,3,2031,0,0.6060749,12.25524,2.809722,-1
18,M,0,1,26,7,1,104,4,4164,2,0.2805038,6.500008,2.331458,-1
18,M,0,1,26,8,1,103,3,5420,1,0.4546504,6.307704,3.978132,-1
18,M,0,1,27,1,1,108,4,2953,1,0.3528207,6.502814,2.938383,-1
18,M,0,1,27,2,2,107,3,2442,0,0.258673,12.26313,1.185312,-1
18,M,0,1,27,3,2,106,2,1031,0,0.9030519,12.39231,4.069386,-1
18,M,0,1,27,4,1,107,3,3198,0,0.01334447,6.312006,0.1153499,-1
18,M,0,1,27,5,1,105,1,2720,0,0.02466579,6.246218,0.2167048,-1
18,M,0,1,27,6,1,106,2,2509,0,0.5499027,6.43765,4.708191,-1
18,M,0,1,27,7,2,108,4,3287,1,1.041829,12.42311,4.673406,-1
18,M,0,1,27,8,2,105,1,1375,0,0.732899,12.3105,3.38628,-1
18,M,0,1,28,1,1,111,3,3187,1,0.3156511,6.313742,2.758325,-1
18,M,0,1,28,2,2,112,4,2409,1,0.3054565,12.42757,1.374301,-1
18,M,0,1,28,3,2,111,3,2098,1,0.3378087,12.26058,1.551291,-1
18,M,0,1,28,4,1,109,1,1831,0,0.4102591,6.257947,3.583264,-1
18,M,0,1,28,5,1,112,4,3776,1,0.2289642,6.507634,1.912643,-1
18,M,0,1,28,6,1,110,2,2187,1,0.5100954,6.443045,4.363049,-1
18,M,0,1,28,7,2,109,1,1331,0,1.070956E-07,12.31385,0,-1
18,M,0,1,28,8,2,110,2,1320,0,0.2969431,12.40393,1.349877,-1
18,M,0,1,29,1,1,113,1,2042,0,0.4199196,6.263279,3.756557,-1
18,M,0,1,29,2,2,115,3,2453,0,1.03267,12.26413,4.736731,-1
18,M,0,1,29,3,2,116,4,1520,0,0.4724195,12.42855,2.125504,-1
18,M,0,1,29,4,2,113,1,1742,2,0.5515077,12.30442,2.521967,-1
18,M,0,1,29,5,2,114,2,1098,0,0.7926074,12.38801,3.575715,-1
18,M,0,1,29,6,1,115,3,2898,0,0.4051555,6.317348,3.521144,-1
18,M,0,1,29,7,1,116,4,3064,0,2.562841E-07,6.496798,0,-1
18,M,0,1,29,8,1,114,2,3442,1,0.5207015,6.449619,4.404911,-1
18,M,0,1,30,1,2,119,3,2387,1,0.5774835,12.25985,2.631803,-1
18,M,0,1,30,2,2,117,1,1442,1,0.6079864,12.31414,2.766262,-1
18,M,0,1,30,3,2,118,2,1042,0,0.9664838,12.39434,4.414772,-1
18,M,0,1,30,4,2,120,4,1376,0,2.488107E-07,12.43014,0,-1
18,M,0,1,30,5,1,117,1,1476,1,0.5349627,6.261941,4.653579,-1
18,M,0,1,30,6,1,118,2,2053,2,0.4317713,6.451522,3.650285,-1
18,M,0,1,30,7,1,120,4,3098,0,6.098887E-08,6.498507,0,-1
18,M,0,1,30,8,1,119,3,4320,2,0.4499362,6.323946,3.929196,-1
18,M,0,1,31,1,2,122,2,1220,0,0.2830291,12.39891,1.2874,-1
18,M,0,1,31,2,2,121,1,842,0,0.7375529,12.31821,3.355905,-1
18,M,0,1,31,3,2,124,4,1698,0,0.3696375,12.43443,1.677948,-1
18,M,0,1,31,4,1,122,2,2165,0,0.4145511,6.448874,3.51725,-1
18,M,0,1,31,5,1,124,4,2876,0,1.914611E-07,6.499355,0,-1
18,M,0,1,31,6,1,123,3,3676,0,0.05261817,6.311503,0.4562834,-1
18,M,0,1,31,7,1,121,1,1376,0,0.3241023,6.24964,2.822582,-1
18,M,0,1,31,8,2,123,3,2220,0,0.7515309,12.2672,3.434845,-1
18,M,0,1,32,1,2,126,2,2187,2,0.924135,12.39711,4.1742,-1
18,M,0,1,32,2,2,128,4,1776,0,0.8868194,12.43248,4.034442,-1
18,M,0,1,32,3,1,125,1,1764,0,0.2231817,6.254849,1.950035,-1
18,M,0,1,32,4,2,127,3,2564,0,0.6397319,12.26903,2.918261,-1
18,M,0,1,32,5,1,128,4,3053,0,0.4480009,6.507988,3.732188,-1
18,M,0,1,32,6,1,126,2,1509,0,0.2486434,6.45048,2.111184,-1
18,M,0,1,32,7,1,127,3,2687,0,0.4231972,6.315595,3.71146,-1
18,M,0,1,32,8,2,125,1,5098,2,0.3488515,12.31791,1.586959,-1
18,M,0,1,33,1,1,131,3,3198,0,0.4042491,6.311655,3.542985,-1
18,M,0,1,33,2,2,129,1,1198,0,0.1951322,12.31048,0.8891146,-1
18,M,0,1,33,3,1,132,4,3265,1,0.3249979,6.493115,2.710722,-1
18,M,0,1,33,4,1,129,1,1820,1,0.5178421,6.247053,4.509108,-1
18,M,0,1,33,5,2,132,4,1387,0,1.343068E-07,12.42872,0,-1
18,M,0,1,33,6,2,130,2,2331,1,0.7027296,12.38479,3.167618,-1
18,M,0,1,33,7,2,131,3,1976,0,0.8369599,12.24543,3.904649,-1
18,M,0,1,33,8,1,130,2,4898,1,0.2952499,6.435242,2.526852,-1
18,M,0,1,34,1,1,135,3,2476,0,0.02097109,6.320361,0.1802258,-1
18,M,0,1,34,2,2,136,4,2120,0,0.2487585,12.73267,1.101984,-1
18,M,0,1,34,3,2,134,2,3053,3,8.068308E-08,12.6571,0,-1
18,M,0,1,34,4,1,133,1,1742,0,0.5192597,6.485239,4.370002,-1
18,M,0,1,34,5,1,136,4,2431,0,0.3617268,6.804736,2.886765,-1
18,M,0,1,34,6,1,134,2,5298,3,0.5610028,6.649856,4.604578,-1
18,M,0,1,34,7,2,135,3,2087,0,1.348395E-07,12.56221,0,-1
18,M,0,1,34,8,2,133,1,1531,0,1.175882E-07,12.60355,0,-1
18,M,0,1,35,1,2,140,4,1942,0,0.1736069,12.76334,0.7679582,-1
18,M,0,1,35,2,1,139,3,3476,2,0.5401501,6.577636,4.55178,-1
18,M,0,1,35,3,1,138,2,2976,0,0.3715264,6.68905,3.030863,-1
18,M,0,1,35,4,1,140,4,2609,0,1.707754E-07,6.806454,0,-1
18,M,0,1,35,5,1,137,1,2331,1,0.3785122,6.504856,3.17786,-1
18,M,0,1,35,6,2,138,2,1598,0,0.4199441,12.69808,1.84642,-1
18,M,0,1,35,7,2,139,3,1920,0,9.214524E-08,12.57035,0,-1
18,M,0,1,35,8,2,137,1,1376,0,0.4107987,12.61235,1.827456,-1
18,M,0,1,37,1,3,147,3,4142,0,0.2418644,6.590816,2.015962,-1
18,M,0,1,37,2,4,148,4,1942,0,0.3923906,12.73098,1.71703,-1
18,M,0,1,37,3,3,145,1,2320,1,0.2500789,6.518854,2.107844,-1
18,M,0,1,37,4,4,146,2,1176,0,0.9617539,12.69716,4.240485,-1
18,M,0,1,37,5,3,148,4,2753,0,0.1290404,6.808292,1.031545,-1
18,M,0,1,37,6,4,145,1,1520,0,0.5358449,12.63171,2.386467,-1
18,M,0,1,37,7,4,147,3,1342,0,2.611914E-07,12.56341,0,-1
18,M,0,1,37,8,3,146,2,5242,0,0.4316372,6.671849,3.499782,-1
18,M,0,1,38,1,4,149,1,1465,0,0.07747731,12.65551,0.3443497,-1
18,M,0,1,38,2,4,152,4,1631,0,0.3128448,12.74229,1.374728,-1
18,M,0,1,38,3,3,150,2,4964,3,0.1661644,6.671386,1.355375,-1
18,M,0,1,38,4,3,151,3,3565,0,0.1855737,6.57022,1.562853,-1
18,M,0,1,38,5,3,152,4,2909,0,0.07058416,6.816934,0.563365,-1
18,M,0,1,38,6,4,150,2,1576,0,1.085443,12.67908,4.76514,-1
18,M,0,1,38,7,4,151,3,1309,0,0.6040089,12.53505,2.680441,-1
18,M,0,1,38,8,3,149,1,2887,1,0.5195733,6.528636,4.35622,-1
18,M,0,1,39,1,4,154,2,1309,0,0.5845041,12.65694,2.560403,-1
18,M,0,1,39,2,3,155,3,3131,0,0.5277164,6.578036,4.446115,-1
18,M,0,1,39,3,4,153,1,2064,1,0.5789205,12.66513,2.577242,-1
18,M,0,1,39,4,4,156,4,1976,0,0.4286711,12.77811,1.876489,-1
18,M,0,1,39,5,3,154,2,6031,5,0.0258075,6.673229,0.2112177,-1
18,M,0,1,39,6,3,156,4,2409,0,0.3101259,6.82171,2.445606,-1
18,M,0,1,39,7,4,155,3,1809,1,0.9582819,12.53287,4.266822,-1
18,M,0,1,39,8,3,153,1,7464,0,0.4544986,6.526274,3.807966,-1
18,M,0,1,40,1,3,158,2,3053,2,0.536819,6.722562,4.404822,-1
18,M,0,1,40,2,3,159,3,4453,2,0.1120406,6.5797,0.9362817,-1
18,M,0,1,40,3,4,158,2,1187,0,0.4550155,12.72693,2.002325,-1
18,M,0,1,40,4,4,159,3,3264,0,0.893429,12.58411,3.995079,-1
18,M,0,1,40,5,3,160,4,3109,0,0.1872831,6.821742,1.510902,-1
18,M,0,1,40,6,4,157,1,2076,0,0.1805297,12.65372,0.8052719,-1
18,M,0,1,40,7,4,160,4,1498,0,0.03730265,12.79316,0.1643245,-1
18,M,0,1,40,8,3,157,1,2320,1,0.245263,6.49964,2.056903,-1
18,M,0,1,41,1,1,162,2,2321,0,0.3925465,6.729809,3.216254,-1
18,M,0,1,41,2,2,161,1,1298,0,0.1574126,12.60825,0.7022079,-1
18,M,0,1,41,3,1,163,3,4787,3,0.2439673,6.524342,2.067533,-1
18,M,0,1,41,4,2,164,4,1342,0,0.527065,12.7877,2.301633,-1
18,M,0,1,41,5,2,162,2,2320,0,0.8839258,12.71908,3.883075,-1
18,M,0,1,41,6,1,161,1,2709,0,0.3228712,6.530944,2.699651,-1
18,M,0,1,41,7,2,163,3,3920,2,0.4451552,12.57659,1.990758,-1
18,M,0,1,41,8,1,164,4,2687,0,0.4776881,6.832376,3.811102,-1
18,M,0,1,42,1,1,166,2,3287,1,0.2023888,6.758319,1.641275,-1
18,M,0,1,42,2,1,167,3,2731,0,0.5415232,6.548708,4.58142,-1
18,M,0,1,42,3,2,166,2,1065,0,0.2184002,12.7462,0.9624583,-1
18,M,0,1,42,4,1,165,1,3331,0,0.1573331,6.531784,1.324265,-1
18,M,0,1,42,5,1,168,4,2887,1,0.5768245,6.845503,4.521557,-1
18,M,0,1,42,6,2,165,1,1265,0,0.4639803,12.63262,2.060041,-1
18,M,0,1,42,7,2,167,3,1875,0,1.374434E-07,12.57026,0,-1
18,M,0,1,42,8,2,168,4,1242,0,0.3574494,12.81406,1.582019,-1
18,M,0,1,43,1,2,171,3,2476,1,0.3634599,12.57507,1.623291,-1
18,M,0,1,43,2,2,172,4,1054,0,0.5069108,12.8168,2.234496,-1
18,M,0,1,43,3,2,170,2,1775,0,1.060693,12.73951,4.643128,-1
18,M,0,1,43,4,2,169,1,998,0,0.9591345,12.62508,4.267465,-1
18,M,0,1,43,5,1,171,3,4609,1,0.5437477,6.545978,4.601429,-1
18,M,0,1,43,6,1,169,1,4020,1,0.4746228,6.429802,4.131806,-1
18,M,0,1,43,7,1,170,2,1942,0,0.4598325,6.712539,3.776987,-1
18,M,0,1,43,8,1,172,4,2520,1,0.5211673,6.800981,4.197874,-1
18,M,0,1,44,1,2,175,3,1609,0,0.3938814,12.57541,1.77233,-1
18,M,0,1,44,2,2,174,2,1964,2,0.5741212,12.72843,2.511234,-1
18,M,0,1,44,3,2,173,1,931,0,0.2172676,12.63029,0.964895,-1
18,M,0,1,44,4,1,174,2,3598,1,0.2609983,6.722927,2.139729,-1
18,M,0,1,44,5,2,176,4,1276,0,0.3823752,12.78652,1.672691,-1
18,M,0,1,44,6,1,173,1,1920,0,0.3076543,6.543552,2.56735,-1
18,M,0,1,44,7,1,175,3,3176,2,0.2524049,6.551807,2.132582,-1
18,M,0,1,44,8,1,176,4,2576,0,0.1308912,6.803362,1.046798,-1
18,M,0,1,45,1,1,178,2,4631,1,0.1489822,6.6733,1.229715,-1
18,M,0,1,45,2,1,179,3,3398,0,0.3519298,6.533292,2.97927,-1
18,M,0,1,45,3,2,177,1,1131,0,0.7939562,12.59724,3.566614,-1
18,M,0,1,45,4,2,180,4,1320,0,0.4075698,12.76068,1.809808,-1
18,M,0,1,45,5,2,179,3,3153,1,0.4087536,12.54909,1.834724,-1
18,M,0,1,45,6,1,177,1,3976,0,1.150172E-08,6.495947,0,-1
18,M,0,1,45,7,2,178,2,1365,0,0.620425,12.6802,2.732443,-1
18,M,0,1,45,8,1,180,4,4376,1,7.892665E-08,6.804173,0,-1
18,M,0,1,46,1,1,182,2,1642,0,0.5161874,6.678061,4.262,-1
18,M,0,1,46,2,1,181,1,1631,0,0.1344609,6.500975,1.134359,-1
18,M,0,1,46,3,2,184,4,1309,0,0.5989425,12.76544,2.61883,-1
18,M,0,1,46,4,1,183,3,3442,2,0.5443006,6.553041,4.597766,-1
18,M,0,1,46,5,2,181,1,1053,0,0.7030624,12.60339,3.169595,-1
18,M,0,1,46,6,1,184,4,3431,1,0.5143207,6.791054,4.151855,-1
18,M,0,1,46,7,2,182,2,1542,0,0.7569932,12.71683,3.325195,-1
18,M,0,1,46,8,2,183,3,1865,0,0.7909247,12.57399,3.53463,-1
18,M,0,1,47,1,2,188,4,2042,1,0.6416577,12.77995,2.849432,-1
18,M,0,1,47,2,2,187,3,2376,1,0.2061111,12.55774,0.9261956,-1
18,M,0,1,47,3,2,185,1,2187,0,0.4685058,12.60716,2.104126,-1
18,M,0,1,47,4,1,187,3,3720,0,0.3483914,6.533,2.949089,-1
18,M,0,1,47,5,2,186,2,6952,0,1.02087,12.7112,4.488513,-1
18,M,0,1,47,6,1,188,4,5287,3,0.3791771,6.793448,3.056398,-1
18,M,0,1,47,7,1,186,2,2909,0,0.5575225,6.721886,4.575516,-1
18,M,0,1,47,8,1,185,1,2265,1,1.983381E-07,6.514874,0,-1
18,M,0,1,48,1,2,192,4,2553,1,0.1848126,12.77732,0.8106001,-1
18,M,0,1,48,2,1,191,3,3398,1,0.3746827,6.537761,3.173792,-1
18,M,0,1,48,3,1,192,4,1909,0,0.2420272,6.826202,1.922237,-1
18,M,0,1,48,4,1,189,1,1698,1,9.535931E-08,6.483483,0,-1
18,M,0,1,48,5,1,190,2,3542,0,0.2509483,6.689936,2.066775,-1
18,M,0,1,48,6,2,189,1,1376,0,0.5614543,12.60691,2.497635,-1
18,M,0,1,48,7,2,190,2,1487,0,6.009567E-08,12.6991,0,-1
18,M,0,1,48,8,2,191,3,2820,0,0.1640573,12.57352,0.7338206,-1
18,M,0,1,49,1,1,196,4,2765,0,0.1312351,6.890247,1.054991,-1
18,M,0,1,49,2,2,193,1,898,0,0.002949374,12.71985,0,-1
18,M,0,1,49,3,1,194,2,3242,0,0.2960883,6.773592,2.388025,-1
18,M,0,1,49,4,2,195,3,1909,0,0.4303914,12.68847,1.905981,-1
18,M,0,1,49,5,1,193,1,1342,0,0.5560943,6.642753,4.588768,-1
18,M,0,1,49,6,1,195,3,1987,0,0.02094242,6.680051,0.1724585,-1
18,M,0,1,49,7,2,196,4,2298,0,0.8506347,12.87028,3.750559,-1
18,M,0,1,49,8,2,194,2,2831,2,0.2153489,12.75614,0.9505931,-1
18,M,0,1,50,1,2,199,3,2187,2,0.1683239,12.67507,0.7467723,-1
18,M,0,1,50,2,1,200,4,2620,0,3.842349E-07,6.897781,0,-1
18,M,0,1,50,3,1,199,3,3642,0,0.3319241,6.65026,2.764421,-1
18,M,0,1,50,4,2,197,1,1076,0,0.7485859,12.71072,3.310206,-1
18,M,0,1,50,5,2,198,2,920,0,1.000334,12.78871,4.361567,-1
18,M,0,1,50,6,2,200,4,2098,1,0.4953077,12.87643,2.18086,-1
18,M,0,1,50,7,1,197,1,2276,2,0.4763096,6.613974,3.929744,-1
18,M,0,1,50,8,1,198,2,5087,2,0.474792,6.768109,3.83073,-1
18,M,0,1,51,1,2,203,3,1764,0,0.2733245,12.68185,1.211923,-1
18,M,0,1,51,2,1,204,4,2853,0,0.08881295,6.89669,0.7022079,-1
18,M,0,1,51,3,1,202,2,2998,1,0.4248267,6.774962,3.433705,-1
18,M,0,1,51,4,2,204,4,1342,0,0.4182806,12.87051,1.818438,-1
18,M,0,1,51,5,2,201,1,1198,0,0.1778634,12.71437,0.7853427,-1
18,M,0,1,51,6,1,203,3,2342,0,0.3820026,6.661714,3.176874,-1
18,M,0,1,51,7,1,201,1,4231,1,0.1642611,6.618479,1.381685,-1
18,M,0,1,51,8,2,202,2,1187,0,0.4557292,12.77382,1.987905,-1
18,M,0,1,52,1,2,208,4,1853,0,1.530857E-07,12.85821,0,-1
18,M,0,1,52,2,1,206,2,2965,1,0.3592905,6.776202,2.92302,-1
18,M,0,1,52,3,2,205,1,1331,0,0.6764631,12.71769,2.996501,-1
18,M,0,1,52,4,2,207,3,1875,0,0.5885447,12.67641,2.596084,-1
18,M,0,1,52,5,1,208,4,2809,0,7.018441E-08,6.906326,0,-1
18,M,0,1,52,6,2,206,2,1331,0,0.09770513,12.79832,0.427501,-1
18,M,0,1,52,7,1,205,1,1865,1,0.4759706,6.61513,3.926354,-1
18,M,0,1,52,8,1,207,3,3242,1,0.2489852,6.664331,2.069425,-1
18,M,0,1,53,1,2,209,1,5355,0,1.014219,12.71711,4.538464,-1
18,M,0,1,53,2,2,210,2,2020,0,0.7512068,12.78556,3.282231,-1
18,M,0,1,53,3,2,212,4,2276,1,0.526711,12.87867,2.285333,-1
18,M,0,1,53,4,2,211,3,2220,0,0.04236965,12.69154,0.1887116,-1
18,M,0,1,53,5,1,209,1,3698,0,0.2051197,6.626819,1.700769,-1
18,M,0,1,53,6,1,212,4,7442,1,0.1697724,6.895166,1.342026,-1
18,M,0,1,53,7,1,210,2,1986,0,0.5120755,6.791754,4.121033,-1
18,M,0,1,53,8,1,211,3,2709,1,0.4974558,6.666193,4.132849,-1
18,M,0,1,54,1,2,216,4,1809,0,0.8138075,12.93769,3.575332,-1
18,M,0,1,54,2,1,215,3,4509,1,0.1844363,6.694828,1.518911,-1
18,M,0,1,54,3,2,214,2,1453,0,1.025862,12.82522,4.464448,-1
18,M,0,1,54,4,1,213,1,1565,0,0.471659,6.645957,3.88025,-1
18,M,0,1,54,5,1,214,2,1709,1,0.5394017,6.807256,4.329839,-1
18,M,0,1,54,6,2,213,1,942,0,0.2311578,12.75076,1.017411,-1
18,M,0,1,54,7,1,216,4,2498,0,0.4620598,6.942707,3.616659,-1
18,M,0,1,54,8,2,215,3,1509,0,0.1601756,12.73971,0.7072059,-1
18,M,0,1,55,1,2,220,4,1698,0,1.93756E-07,12.94057,0.01978234,-1
18,M,0,1,55,2,1,217,1,2254,0,0.1444108,6.661395,1.190254,-1
18,M,0,1,55,3,1,219,3,2142,0,0.4057277,6.722679,3.344334,-1
18,M,0,1,55,4,2,218,2,2042,0,0.9500677,12.84197,4.134128,-1
18,M,0,1,55,5,1,220,4,2365,0,0.141412,6.930246,1.117851,-1
18,M,0,1,55,6,1,218,2,2142,0,0.4819211,6.808795,3.902994,-1
18,M,0,1,55,7,2,219,3,2187,0,0.2668489,12.74508,1.179685,-1
18,M,0,1,55,8,2,217,1,931,0,0.8100986,12.77499,3.565516,-1
18,M,0,1,56,1,2,222,2,1087,0,1.033816,12.84156,4.499758,-1
18,M,0,1,56,2,2,224,4,1620,0,0.2712541,12.93997,1.18399,-1
18,M,0,1,56,3,2,221,1,898,0,0.5189152,12.77434,2.280274,-1
18,M,0,1,56,4,1,223,3,2787,1,0.3376631,6.708444,2.788463,-1
18,M,0,1,56,5,1,224,4,6420,4,0.5880137,6.891057,4.635528,-1
18,M,0,1,56,6,1,222,2,4853,5,0.4782117,6.714502,3.924958,-1
18,M,0,1,56,7,2,223,3,1620,0,0.009577653,12.70333,0.03956468,-1
18,M,0,1,56,8,1,221,1,1576,0,0.06039166,6.598237,0.5039662,-1
18,M,0,1,57,1,4,226,2,1287,0,0.4863454,12.56838,2.166002,-1
18,M,0,1,57,2,4,225,1,1020,0,0.2145145,12.5284,0.9655032,-1
18,M,0,1,57,3,3,227,3,2120,0,2.021421E-07,6.452494,0,-1
18,M,0,1,57,4,4,228,4,1420,0,0.4600057,12.59123,2.043252,-1
18,M,0,1,57,5,3,226,2,2498,0,0.2770051,6.566149,2.324058,-1
18,M,0,1,57,6,4,227,3,5230,0,0.09538241,12.40608,0.4329587,-1
18,M,0,1,57,7,3,225,1,1176,0,0.5470147,6.42162,4.832213,-1
18,M,0,1,57,8,3,228,4,3187,0,0.09813581,6.631434,0.806971,-1
18,M,0,1,58,1,3,231,3,4509,1,0.1994947,6.445715,1.713493,-1
18,M,0,1,58,2,3,229,1,5220,0,0.1667873,6.430284,1.423678,-1
18,M,0,1,58,3,3,230,2,2753,0,0.3831818,6.572209,3.181123,-1
18,M,0,1,58,4,4,232,4,6464,0,0.2480502,12.58945,1.112236,-1
18,M,0,1,58,5,4,230,2,1576,1,0.7752098,12.51366,3.440882,-1
18,M,0,1,58,6,4,231,3,1176,0,0.6592582,12.38349,2.99454,-1
18,M,0,1,58,7,3,232,4,2165,0,0.3108157,6.629948,2.567045,-1
18,M,0,1,58,8,4,229,1,1076,0,0.8812896,12.50312,3.971728,-1
18,M,0,1,59,1,3,234,2,1753,0,0.4487763,6.570162,3.75322,-1
18,M,0,1,59,2,3,233,1,1231,0,0.2238563,6.373601,1.914382,-1
18,M,0,1,59,3,3,236,4,2820,1,0.2753774,6.648519,2.280961,-1
18,M,0,1,59,4,3,235,3,2220,0,0.0746353,6.435551,0.6404136,-1
18,M,0,1,59,5,4,233,1,1331,1,0.6178455,12.5263,2.801489,-1
18,M,0,1,59,6,4,236,4,1720,0,9.910119E-08,12.55052,0,-1
18,M,0,1,59,7,4,235,3,1720,0,0.6425884,12.4204,2.918932,-1
18,M,0,1,59,8,4,234,2,2053,0,0.4251684,12.54156,1.915506,-1
18,M,0,1,60,1,4,237,1,1153,0,0.7966684,12.49992,3.581187,-1
18,M,0,1,60,2,4,238,2,1209,0,0.5327098,12.54094,2.396371,-1
18,M,0,1,60,3,3,237,1,3287,0,0.4880638,6.395296,4.154259,-1
18,M,0,1,60,4,4,240,4,1331,0,0.2751113,12.5901,1.234639,-1
18,M,0,1,60,5,4,239,3,1176,0,0.2829623,12.43328,1.277482,-1
18,M,0,1,60,6,3,238,2,3587,3,0.2930038,6.569437,2.428902,-1
18,M,0,1,60,7,3,239,3,3398,1,0.4072477,6.465701,3.4604,-1
18,M,0,1,60,8,3,240,4,1853,0,0.3580798,6.668905,2.942843,-1
18,M,0,1,61,1,1,241,1,1176,0,0.3760122,6.599701,3.109924,-1
18,M,0,1,61,2,2,244,4,1176,0,0.3233275,12.86086,1.425052,-1
18,M,0,1,61,3,2,243,3,1942,0,0.4961691,12.70248,2.194637,-1
18,M,0,1,61,4,1,242,2,1909,0,0.319515,6.76616,2.580961,-1
18,M,0,1,61,5,1,243,3,1809,0,0.1256196,6.670244,1.034197,-1
18,M,0,1,61,6,2,241,1,1131,0,0.5389893,12.74357,2.372401,-1
18,M,0,1,61,7,1,244,4,2142,0,0.0008638441,6.893926,0,-1
18,M,0,1,61,8,2,242,2,954,0,0.2112901,12.81617,0.9240804,-1
18,M,0,1,62,1,2,248,4,1398,0,0.2907643,12.89352,1.26362,-1
18,M,0,1,62,2,1,245,1,4220,0,0.2290404,6.654574,1.8872,-1
18,M,0,1,62,3,2,246,2,2064,1,0.4554741,12.80326,1.983174,-1
18,M,0,1,62,4,1,247,3,2342,0,0.2762635,6.676709,2.274344,-1
18,M,0,1,62,5,1,248,4,2142,0,0.2129687,6.899106,1.701574,-1
18,M,0,1,62,6,1,246,2,2831,0,0.2362788,6.779493,1.902281,-1
18,M,0,1,62,7,2,245,1,1153,0,0.3564332,12.74919,1.568104,-1
18,M,0,1,62,8,2,247,3,1742,0,0.4267804,12.71572,1.887097,-1
18,M,0,1,1,1,7,2,2,4652,0,2.868864,6.802554,23.69116,-1
18,M,0,1,1,2,5,4,4,1653,0,3.57026,6.935064,29.50772,-1
18,M,0,1,1,3,7,3,3,3398,0,3.490953,6.713629,30.18008,-1
18,M,0,1,1,4,7,1,1,1331,0,1.81876,6.682735,15.55709,-1
18,M,0,1,1,5,7,4,4,1265,0,5.013374,6.940229,46.25004,-1
18,M,0,1,1,6,6,2,2,1487,0,1.433276,12.83514,6.247895,-1
18,M,0,1,1,7,8,1,1,1642,0,0.9751965,12.79306,4.289255,-1
18,M,0,1,1,8,8,4,4,5042,0,5.220458,12.90131,23.86892,-1
18,M,0,1,1,9,5,1,1,687,0,2.653484,6.687857,23.37588,-1
18,M,0,1,1,10,8,2,2,1031,0,3.415319,12.81463,15.0898,-1
18,M,0,1,1,11,8,3,3,465,0,4.683286,12.74166,21.56503,-1
18,M,0,1,1,12,6,4,4,498,0,3.27402,12.91793,14.45717,-1
18,M,0,1,1,13,5,3,3,620,0,5.336477,6.740991,52.33958,-1
18,M,0,1,1,14,5,2,2,1031,0,4.85103,6.824036,45.30607,-1
18,M,0,1,1,15,6,1,1,3875,0,6.568883,12.80051,30.87546,-1
18,M,0,1,1,16,6,3,3,2331,0,5.361509,12.75905,24.84798,-1
18,M,0,1,2,1,8,4,4,2365,0,5.07825,12.90521,23.1727,-1
18,M,0,1,2,2,8,3,3,6120,0,4.648248,12.74401,21.39157,-1
18,M,0,1,2,3,5,1,1,920,0,2.879849,6.696014,25.47289,-1
18,M,0,1,2,4,7,2,2,776,0,3.619577,6.810966,30.67458,-1
18,M,0,1,2,5,5,3,3,4864,0,2.09435,6.723412,17.52318,-1
18,M,0,1,2,6,5,4,4,1153,0,5.801106,6.96433,56.40546,-1
18,M,0,1,2,7,8,2,2,976,0,4.772346,12.83549,21.70325,-1
18,M,0,1,2,8,6,3,3,520,0,5.174692,12.76512,23.91477,-1
18,M,0,1,2,9,7,4,4,709,0,5.110819,6.940271,47.42569,-1
18,M,0,1,2,10,6,1,1,798,0,4.8344,12.79974,22.19099,-1
18,M,0,1,2,11,6,4,4,576,0,4.366825,12.92579,19.7452,-1
18,M,0,1,2,12,7,1,1,820,0,1.947223,6.694647,16.77121,-1
18,M,0,1,2,13,5,2,2,676,0,3.678301,6.805627,31.40794,-1
18,M,0,1,2,14,7,3,3,1409,0,4.501045,6.735368,40.83295,-1
18,M,0,1,2,15,8,1,1,1020,0,5.929285,12.82414,27.48397,-1
18,M,0,1,2,16,6,2,2,953,0,9.95034,12.86775,50.64908,-1
