Age, Gender, Awareness Type, Session, Block, Trial, Set, Pattern, Quadrant, Response Time, Num Mistakes, Distance From Target, Camera Distance From Target, Angle Error (Degrees), FC Response
24,F,0,1,1,1,2,2,2,5820,1,0.5102683,12.14942,2.34652,-1
24,F,0,1,1,2,2,4,4,9999,2,-1,-1,-1,-1
24,F,0,1,1,3,2,3,3,2497,0,0.1117919,12.04014,0.5192646,-1
24,F,0,1,1,4,1,4,4,1920,0,0.2905684,6.342057,2.534818,-1
24,F,0,1,1,5,1,2,2,4275,2,0.4821646,6.314481,4.186474,-1
24,F,0,1,1,6,2,1,1,3597,0,7.10556E-08,12.07008,0,-1
24,F,0,1,1,7,1,3,3,4464,2,0.2990195,5.933057,2.736595,-1
24,F,0,1,1,8,1,1,1,2676,0,0.4829776,5.990571,4.378107,-1
24,F,0,1,2,1,2,7,3,1586,0,0.3374231,12.03235,1.573336,-1
24,F,0,1,2,2,2,8,4,2576,1,0.1240783,12.17033,0.5753932,-1
24,F,0,1,2,3,1,5,1,5764,3,0.2109842,5.982132,1.914075,-1
24,F,0,1,2,4,1,8,4,2920,1,0.2430103,6.320371,2.12486,-1
24,F,0,1,2,5,1,6,2,4742,1,0.3856093,6.290643,3.312748,-1
24,F,0,1,2,6,2,5,1,9999,2,-1,-1,-1,-1
24,F,0,1,2,7,1,7,3,2220,0,0.3972852,5.867677,3.671199,-1
24,F,0,1,2,8,2,6,2,2398,0,0.5732539,12.09811,2.647302,-1
24,F,0,1,3,1,2,12,4,9999,3,-1,-1,-1,-1
24,F,0,1,3,2,2,10,2,1509,0,0.9343402,12.12822,4.31316,-1
24,F,0,1,3,3,2,11,3,3376,0,8.375643E-08,11.96776,0,-1
24,F,0,1,3,4,2,9,1,2798,0,0.2680933,12.00257,1.260674,-1
24,F,0,1,3,5,1,10,2,7876,4,0.246996,6.297416,2.146122,-1
24,F,0,1,3,6,1,12,4,3409,0,0.5249001,6.31941,4.510193,-1
24,F,0,1,3,7,1,9,1,6098,3,0.02155513,5.959314,0.1958353,-1
24,F,0,1,3,8,1,11,3,1698,0,0.1771727,5.849184,1.645443,-1
24,F,0,1,4,1,2,16,4,1398,0,0.08841383,12.16428,0.4092611,-1
24,F,0,1,4,2,2,14,2,1975,0,0.6351649,12.10006,2.974864,-1
24,F,0,1,4,3,1,13,1,6031,3,0.4891092,5.891614,4.487117,-1
24,F,0,1,4,4,2,15,3,2064,0,0.9584282,11.97296,4.524502,-1
24,F,0,1,4,5,1,14,2,2787,0,0.5396842,6.301343,4.795139,-1
24,F,0,1,4,6,2,13,1,3098,0,0.7727169,11.98908,3.650607,-1
24,F,0,1,4,7,1,16,4,4098,0,8.51162E-08,6.268393,0,-1
24,F,0,1,4,8,1,15,3,2364,1,0.2285624,5.870356,2.114055,-1
24,F,0,1,5,1,2,17,1,3509,2,0.3062782,12.03092,1.432585,-1
24,F,0,1,5,2,2,19,3,1854,0,0.5005081,11.98278,2.319253,-1
24,F,0,1,5,3,1,17,1,3020,2,0.4944307,5.939223,4.515922,-1
24,F,0,1,5,4,2,20,4,1753,1,0.2733067,12.13402,1.272263,-1
24,F,0,1,5,5,2,18,2,4720,2,0.9604364,12.09103,4.422971,-1
24,F,0,1,5,6,1,19,3,2153,1,0.2234834,5.851256,2.073676,-1
24,F,0,1,5,7,1,20,4,2064,0,4.780739E-08,6.262182,0,-1
24,F,0,1,5,8,1,18,2,1820,0,0.4123556,6.279987,3.650929,-1
24,F,0,1,6,1,2,21,1,2731,1,0.7343292,12.0085,3.44793,-1
24,F,0,1,6,2,2,23,3,2153,0,0.8086677,11.97525,3.813824,-1
24,F,0,1,6,3,2,24,4,1353,0,0.9956696,12.12117,4.6449,-1
24,F,0,1,6,4,1,23,3,1398,0,0.1265551,5.851868,1.180846,-1
24,F,0,1,6,5,2,22,2,2842,1,0.9190073,12.09056,4.289939,-1
24,F,0,1,6,6,1,24,4,2487,1,0.2975917,6.245661,2.592085,-1
24,F,0,1,6,7,1,21,1,1953,0,0.1849389,5.959449,1.684466,-1
24,F,0,1,6,8,1,22,2,2486,0,0.2211951,6.271611,1.930163,-1
24,F,0,1,7,1,2,28,4,2520,1,0.1546929,12.11716,0.719821,-1
24,F,0,1,7,2,1,27,3,1476,0,0.3634115,5.83429,3.457117,-1
24,F,0,1,7,3,2,26,2,2409,1,0.4985659,12.0935,2.306475,-1
24,F,0,1,7,4,2,25,1,6353,6,0.7633024,12.03895,3.548507,-1
24,F,0,1,7,5,1,26,2,1598,0,0.2740609,6.292226,2.415164,-1
24,F,0,1,7,6,1,28,4,1887,0,0.07692904,6.270638,0.6685182,-1
24,F,0,1,7,7,1,25,1,2598,1,0.5024793,5.99586,4.554533,-1
24,F,0,1,7,8,2,27,3,2020,0,0.3692022,11.968,1.74125,-1
24,F,0,1,8,1,1,29,1,2676,0,0.383929,5.973295,3.517973,-1
24,F,0,1,8,2,2,30,2,1253,0,0.8306385,12.09105,3.845271,-1
24,F,0,1,8,3,1,32,4,2298,0,1.276035E-07,6.262627,0,-1
24,F,0,1,8,4,2,29,1,2776,1,0.174919,12.01097,0.8166127,-1
24,F,0,1,8,5,2,32,4,1709,0,0.354613,12.12211,1.650194,-1
24,F,0,1,8,6,2,31,3,2887,0,0.03239461,11.9807,0.1519511,-1
24,F,0,1,8,7,1,30,2,1453,0,0.08692817,6.272706,0.7556288,-1
24,F,0,1,8,8,1,31,3,1476,0,0.4017911,5.871962,3.71014,-1
24,F,0,1,9,1,1,33,1,3220,1,0.4729981,5.95191,4.316383,-1
24,F,0,1,9,2,2,34,2,1709,0,0.2404841,12.09302,1.121696,-1
24,F,0,1,9,3,1,36,4,3354,1,0.1940727,6.278829,1.682257,-1
24,F,0,1,9,4,2,33,1,2631,1,1.379275E-07,12.01135,0,-1
24,F,0,1,9,5,1,35,3,1320,0,0.2935907,5.832368,2.729935,-1
24,F,0,1,9,6,1,34,2,2509,0,0.1035552,6.263632,0.9056864,-1
24,F,0,1,9,7,2,35,3,3976,0,0.4261556,11.96771,2.005255,-1
24,F,0,1,9,8,2,36,4,1187,0,0.02113785,12.12225,0.09487279,-1
24,F,0,1,10,1,2,37,1,1776,0,0.336551,11.99985,1.580287,-1
24,F,0,1,10,2,1,40,4,1998,0,0.1825026,6.270765,1.590655,-1
24,F,0,1,10,3,2,39,3,2265,0,0.148249,11.98556,0.6926687,-1
24,F,0,1,10,4,1,38,2,1554,0,0.298794,6.261159,2.612469,-1
24,F,0,1,10,5,1,37,1,4487,2,0.01075861,5.916785,0.09891172,-1
24,F,0,1,10,6,2,38,2,1976,0,0.9512107,12.07461,4.410377,-1
24,F,0,1,10,7,2,40,4,1265,0,0.4577103,12.10259,2.142745,-1
24,F,0,1,10,8,1,39,3,1764,0,0.008369864,5.847984,0.07912937,-1
24,F,0,1,11,1,2,41,1,1531,0,0.5946001,11.97165,2.77749,-1
24,F,0,1,11,2,1,43,3,1476,0,0.2837525,5.839171,2.636485,-1
24,F,0,1,11,3,2,42,2,2309,1,0.643796,12.05083,2.987079,-1
24,F,0,1,11,4,1,44,4,1698,0,0.3360458,6.248532,2.97493,-1
24,F,0,1,11,5,1,41,1,9999,11,-1,-1,-1,-1
24,F,0,1,11,6,2,44,4,1709,1,0.109838,12.16117,0.5089886,-1
24,F,0,1,11,7,1,42,2,3753,2,0.09543978,6.28935,0.8313365,-1
24,F,0,1,11,8,2,43,3,1675,0,0.4572127,12.02081,2.13515,-1
24,F,0,1,12,1,2,46,2,2154,0,9.736244E-08,12.10231,0,-1
24,F,0,1,12,2,1,45,1,4842,2,0.4065977,5.975348,3.683658,-1
24,F,0,1,12,3,1,48,4,3753,0,1.139701E-07,6.26874,0,-1
24,F,0,1,12,4,1,47,3,1876,0,0.05207945,5.883193,0.4821389,-1
24,F,0,1,12,5,1,46,2,1509,0,0.3911626,6.265644,3.379334,-1
24,F,0,1,12,6,2,48,4,1464,1,0.3736725,12.13106,1.729069,-1
24,F,0,1,12,7,2,47,3,2042,0,0.8197648,11.98653,3.8469,-1
24,F,0,1,12,8,2,45,1,2576,0,0.7276154,12.02261,3.402718,-1
24,F,0,1,13,1,1,51,3,1231,0,0.4697498,5.900713,4.318334,-1
24,F,0,1,13,2,2,49,1,3242,2,0.7034543,12.02769,3.272793,-1
24,F,0,1,13,3,2,51,3,2109,0,0.4107962,11.99426,1.92295,-1
24,F,0,1,13,4,1,49,1,9999,10,-1,-1,-1,-1
24,F,0,1,13,5,2,50,2,2187,1,0.2168161,12.10119,1.003662,-1
24,F,0,1,13,6,1,52,4,2298,0,0.09909222,6.253433,0.8688563,-1
24,F,0,1,13,7,1,50,2,5598,5,0.08952127,6.329554,0.7720242,-1
24,F,0,1,13,8,2,52,4,1442,0,0.6656982,12.13824,3.058447,-1
24,F,0,1,14,1,2,54,2,3364,1,0.3078033,12.10929,1.421752,-1
24,F,0,1,14,2,2,53,1,4709,2,0.857271,12.03085,3.988554,-1
24,F,0,1,14,3,1,54,2,5264,3,0.1808847,6.320892,1.564105,-1
24,F,0,1,14,4,2,56,4,2398,1,0.9281128,12.14574,4.275305,-1
24,F,0,1,14,5,2,55,3,3831,1,0.7169165,11.99528,3.35398,-1
24,F,0,1,14,6,1,53,1,3242,1,0.1936019,5.941309,1.764584,-1
24,F,0,1,14,7,1,55,3,1298,0,0.09129604,5.871961,0.8547791,-1
24,F,0,1,14,8,1,56,4,2153,0,0.3825415,6.28196,3.367437,-1
24,F,0,1,15,1,2,57,1,1787,0,0.4123261,12.01649,1.929655,-1
24,F,0,1,15,2,1,59,3,1087,0,0.2128268,5.874357,2.00125,-1
24,F,0,1,15,3,2,58,2,2887,0,0.8046957,12.1002,3.712409,-1
24,F,0,1,15,4,1,60,4,3053,2,0.04281707,6.282413,0.3716771,-1
24,F,0,1,15,5,2,59,3,3864,0,8.009838E-08,11.98716,0,-1
24,F,0,1,15,6,1,57,1,1920,0,0.4069163,5.977106,3.697029,-1
24,F,0,1,15,7,1,58,2,3254,2,0.1837584,6.268452,1.592376,-1
24,F,0,1,15,8,2,60,4,1142,0,0.7074252,12.13188,3.299958,-1
24,F,0,1,16,1,2,61,1,1620,0,0.5525466,12.03676,2.592916,-1
24,F,0,1,16,2,2,63,3,1598,0,0.4577518,11.99125,2.155404,-1
24,F,0,1,16,3,1,64,4,3531,0,0.4464928,6.293467,3.930342,-1
24,F,0,1,16,4,1,62,2,4420,3,0.2418492,6.283857,2.107286,-1
24,F,0,1,16,5,1,63,3,1453,0,7.292507E-08,5.887259,0,-1
24,F,0,1,16,6,1,61,1,4131,2,0.2190433,5.977326,2.00974,-1
24,F,0,1,16,7,2,64,4,1009,0,0.8217677,12.1413,3.825819,-1
24,F,0,1,16,8,2,62,2,3131,1,0.301232,12.12115,1.390016,-1
24,F,0,1,17,1,3,67,3,1176,0,0.2067139,5.898877,1.901046,-1
24,F,0,1,17,2,3,68,4,2420,1,0.294547,6.289329,2.56895,-1
24,F,0,1,17,3,4,65,1,1476,0,0.4476852,12.04585,2.079896,-1
24,F,0,1,17,4,4,67,3,1864,0,0.5540238,11.98521,2.61741,-1
24,F,0,1,17,5,4,66,2,1687,0,7.031703E-08,12.10345,0,-1
24,F,0,1,17,6,4,68,4,1220,0,0.5445735,12.14397,2.533737,-1
24,F,0,1,17,7,3,65,1,3876,2,0.01933792,6.001504,0.1769387,-1
24,F,0,1,17,8,3,66,2,3142,0,0.3598188,6.298381,3.121548,-1
24,F,0,1,18,1,4,69,1,2676,0,0.8479531,11.99487,3.989929,-1
24,F,0,1,18,2,3,71,3,1631,0,0.2539432,5.93044,2.392938,-1
24,F,0,1,18,3,3,69,1,2309,1,0.1371668,6.005517,1.240331,-1
24,F,0,1,18,4,4,70,2,5698,0,0.2654317,12.12895,1.221573,-1
24,F,0,1,18,5,4,72,4,1176,0,0.9513057,12.14424,4.465632,-1
24,F,0,1,18,6,4,71,3,1542,0,0.7661262,11.98841,3.620284,-1
24,F,0,1,18,7,3,70,2,2098,0,0.3181199,6.283985,2.740098,-1
24,F,0,1,18,8,3,72,4,2876,0,0.1794157,6.29674,1.577684,-1
24,F,0,1,19,1,4,74,2,1465,0,0.3269869,12.0739,1.50805,-1
24,F,0,1,19,2,4,76,4,1764,0,0.3520982,12.10078,1.624858,-1
24,F,0,1,19,3,4,75,3,2886,0,0.2819573,12.03841,1.30731,-1
24,F,0,1,19,4,3,76,4,3353,1,0.0950268,6.300106,0.8199606,-1
24,F,0,1,19,5,4,73,1,2776,1,0.9118587,11.97272,4.315794,-1
24,F,0,1,19,6,3,75,3,1209,0,0.3702628,5.913788,3.466844,-1
24,F,0,1,19,7,3,74,2,2231,0,1.747967E-07,6.286743,0,-1
24,F,0,1,19,8,3,73,1,1731,0,0.3799556,6.006427,3.491381,-1
24,F,0,1,20,1,3,78,2,2775,1,0.4641102,6.310513,4.041717,-1
24,F,0,1,20,2,3,77,1,1587,0,0.08237181,6.027921,0.751474,-1
24,F,0,1,20,3,3,79,3,1153,0,0.02422981,5.903918,0.2246844,-1
24,F,0,1,20,4,3,80,4,1942,0,0.3964357,6.304372,3.446113,-1
24,F,0,1,20,5,4,77,1,1220,0,0.5239629,11.99468,2.473855,-1
24,F,0,1,20,6,4,78,2,1742,0,0.3891042,12.10048,1.794824,-1
24,F,0,1,20,7,4,79,3,3198,0,0.2448641,11.99445,1.139523,-1
24,F,0,1,20,8,4,80,4,1275,0,0.6929349,12.0907,3.171941,-1
24,F,0,1,20,1,1,79,3,1920,0,0.1149892,5.90748,1.074836,-1
24,F,0,1,20,2,2,78,2,1376,0,0.8265613,12.11946,3.883579,-1
24,F,0,1,20,3,2,80,4,1187,0,0.2287155,12.14523,1.063489,-1
24,F,0,1,20,4,2,79,3,8353,6,0.783348,11.931,3.646958,-1
24,F,0,1,20,5,1,77,1,2531,1,0.248619,5.975016,2.251337,-1
24,F,0,1,20,6,1,80,4,1831,0,0.1104367,6.293566,0.9571576,-1
24,F,0,1,20,7,2,77,1,1587,0,0.3828243,12.03167,1.801245,-1
24,F,0,1,20,8,1,78,2,1709,0,0.3605344,6.28857,3.139558,-1
24,F,0,1,21,1,1,83,3,3731,0,9.7465E-08,5.898576,0,-1
24,F,0,1,21,2,1,81,1,3376,0,0.3668588,5.980793,3.326078,-1
24,F,0,1,21,3,2,84,4,1054,0,0.37627,12.13584,1.751224,-1
24,F,0,1,21,4,2,81,1,2964,0,0.9216062,12.03314,4.286469,-1
24,F,0,1,21,5,2,82,2,1542,0,0.7251405,12.10386,3.352695,-1
24,F,0,1,21,6,2,83,3,6687,4,0.9649138,11.97338,4.554362,-1
24,F,0,1,21,7,1,82,2,1398,0,0.4222515,6.287138,3.636365,-1
24,F,0,1,21,8,1,84,4,3342,0,0.3161363,6.286798,2.770857,-1
24,F,0,1,22,1,1,85,1,2042,0,0.2432488,6.001564,2.197043,-1
24,F,0,1,22,2,2,87,3,6909,2,0.7186721,11.98196,3.368541,-1
24,F,0,1,22,3,2,88,4,4076,0,0.1752118,12.15738,0.814213,-1
24,F,0,1,22,4,1,87,3,1420,0,0.3481266,5.922211,3.189544,-1
24,F,0,1,22,5,1,86,2,1531,0,0.2357185,6.290321,2.027193,-1
24,F,0,1,22,6,1,88,4,3309,2,0.155409,6.301387,1.337498,-1
24,F,0,1,22,7,2,85,1,2131,0,0.3309862,12.04739,1.536715,-1
24,F,0,1,22,8,2,86,2,1487,0,0.7860781,12.12342,3.629089,-1
24,F,0,1,23,1,1,91,3,1465,0,0.2796154,5.930837,2.559867,-1
24,F,0,1,23,2,1,90,2,1353,0,0.2341477,6.302123,2.023714,-1
24,F,0,1,23,3,2,89,1,5387,0,0.9871457,12.06458,4.631258,-1
24,F,0,1,23,4,1,92,4,2109,0,0.1020633,6.318898,0.8858072,-1
24,F,0,1,23,5,1,89,1,2431,0,0.2348883,5.999761,2.125136,-1
24,F,0,1,23,6,2,91,3,3153,0,0.2019705,12.00571,0.9427382,-1
24,F,0,1,23,7,2,92,4,1176,0,0.03164034,12.15222,0.1467098,-1
24,F,0,1,23,8,2,90,2,1309,0,0.9095326,12.11874,4.201557,-1
24,F,0,1,24,1,1,95,3,2253,1,0.247553,5.927318,2.257848,-1
24,F,0,1,24,2,1,96,4,3709,0,0.2019299,6.309394,1.769014,-1
24,F,0,1,24,3,2,95,3,2442,0,0.05358468,11.97741,0.25101,-1
24,F,0,1,24,4,1,93,1,3809,2,0.01257081,5.991879,0.1136409,-1
24,F,0,1,24,5,2,94,2,5153,5,1.005583,12.0961,4.654926,-1
24,F,0,1,24,6,2,93,1,2431,0,0.8670667,12.0315,4.066257,-1
24,F,0,1,24,7,1,94,2,1698,0,0.4661731,6.286006,4.065197,-1
24,F,0,1,24,8,2,96,4,1287,0,0.2044342,12.13653,0.9503872,-1
24,F,0,1,25,1,2,98,2,2009,0,0.5106794,12.10886,2.354347,-1
24,F,0,1,25,2,1,97,1,2198,0,0.3190022,6.000724,2.887104,-1
24,F,0,1,25,3,1,100,4,1909,0,0.02491858,6.276862,0.2158,-1
24,F,0,1,25,4,2,99,3,1564,0,0.7191135,11.97878,3.378697,-1
24,F,0,1,25,5,1,98,2,1642,0,0.4275825,6.275741,3.688916,-1
24,F,0,1,25,6,2,97,1,9999,11,-1,-1,-1,-1
24,F,0,1,25,7,1,99,3,1342,0,0.09479573,5.857845,0.8871316,-1
24,F,0,1,25,8,2,100,4,9999,0,-1,-1,-1,-1
24,F,0,1,26,1,1,101,1,3442,2,0.4146327,5.957862,3.766916,-1
24,F,0,1,26,2,2,104,4,1331,0,0.1622764,12.12961,0.7501709,-1
24,F,0,1,26,3,1,103,3,1920,0,5.032992E-08,5.878046,0.01978234,-1
24,F,0,1,26,4,2,101,1,2009,0,0.4710221,12.02775,2.20256,-1
24,F,0,1,26,5,1,102,2,3465,1,0.3688326,6.284465,3.177367,-1
24,F,0,1,26,6,1,104,4,2976,1,0.1577025,6.28041,1.384939,-1
24,F,0,1,26,7,2,103,3,4687,2,0.1321484,11.96883,0.6183397,-1
24,F,0,1,26,8,2,102,2,1453,0,0.7207723,12.13832,3.323369,-1
24,F,0,1,27,1,2,108,4,1109,0,0.7572176,12.1436,3.481103,-1
24,F,0,1,27,2,2,105,1,3598,1,0.4837523,12.05602,2.24472,-1
24,F,0,1,27,3,2,106,2,8876,7,0.897927,12.04977,4.164101,-1
24,F,0,1,27,4,2,107,3,2142,0,0.6032584,11.9193,2.835728,-1
24,F,0,1,27,5,1,108,4,3353,0,0.3553922,6.265496,3.095855,-1
24,F,0,1,27,6,1,107,3,1353,0,2.051937E-07,5.843399,0.01978234,-1
24,F,0,1,27,7,1,105,1,2465,0,0.109613,5.975801,1.000147,-1
24,F,0,1,27,8,1,106,2,1487,0,0.2943332,6.271914,2.539832,-1
24,F,0,1,28,1,1,112,4,3853,2,0.1270581,6.261808,1.106061,-1
24,F,0,1,28,2,2,110,2,1876,0,0.7762967,12.09637,3.591778,-1
24,F,0,1,28,3,2,109,1,3298,1,0.910467,12.00433,4.255745,-1
24,F,0,1,28,4,2,111,3,2420,0,0.4728312,11.94226,2.222199,-1
24,F,0,1,28,5,1,110,2,2287,1,0.1755149,6.258206,1.522128,-1
24,F,0,1,28,6,1,109,1,3165,0,0.2557908,5.973095,2.324058,-1
24,F,0,1,28,7,2,112,4,1498,0,0.1529999,12.12272,0.7124436,-1
24,F,0,1,28,8,1,111,3,2464,0,0.1569595,5.864498,1.474323,-1
24,F,0,1,29,1,1,113,1,2042,0,0.488476,5.971554,4.439811,-1
24,F,0,1,29,2,1,114,2,1309,0,0.2857798,6.283494,2.490258,-1
24,F,0,1,29,3,2,113,1,1698,0,0.813432,12.01526,3.797101,-1
24,F,0,1,29,4,2,114,2,1465,0,0.7728321,12.09307,3.576755,-1
24,F,0,1,29,5,1,115,3,1476,0,0.04189873,5.873452,0.3901695,-1
24,F,0,1,29,6,2,116,4,1498,0,7.844006E-08,12.13157,0,-1
24,F,0,1,29,7,2,115,3,2364,1,0.5261555,11.97135,2.468073,-1
24,F,0,1,29,8,1,116,4,3331,2,0.4447777,6.248906,3.875301,-1
24,F,0,1,30,1,2,119,3,1531,0,0.5217856,11.97468,2.444806,-1
24,F,0,1,30,2,2,117,1,1787,0,0.2750796,12.03272,1.279166,-1
24,F,0,1,30,3,1,119,3,1331,0,1.845551E-07,5.882224,0,-1
24,F,0,1,30,4,1,120,4,4453,2,0.1570978,6.28334,1.360419,-1
24,F,0,1,30,5,1,118,2,2131,1,0.2482828,6.28757,2.146669,-1
24,F,0,1,30,6,2,120,4,1553,1,0.1927621,12.13077,0.8965662,-1
24,F,0,1,30,7,1,117,1,3664,2,0.4784954,5.977792,4.334766,-1
24,F,0,1,30,8,2,118,2,2598,1,0.7929474,12.1118,3.664419,-1
24,F,0,1,31,1,2,123,3,2265,0,3.716198E-07,11.97585,0,-1
24,F,0,1,31,2,1,124,4,3398,0,0.2227978,6.270113,1.962739,-1
24,F,0,1,31,3,2,121,1,9297,7,0.5073906,11.99356,2.366619,-1
24,F,0,1,31,4,2,122,2,1564,0,0.8039416,12.10543,3.700576,-1
24,F,0,1,31,5,1,123,3,1375,0,2.295264E-07,5.869891,0,-1
24,F,0,1,31,6,2,124,4,2164,0,0.6990824,12.12987,3.283782,-1
24,F,0,1,31,7,1,121,1,2420,1,0.4389777,5.997667,3.964128,-1
24,F,0,1,31,8,1,122,2,1509,0,0.1730717,6.292045,1.492921,-1
24,F,0,1,32,1,1,128,4,2031,0,0.1083625,6.267997,0.9416999,-1
24,F,0,1,32,2,1,125,1,5431,4,0.3758479,6.037479,3.374754,-1
24,F,0,1,32,3,2,128,4,1109,0,0.1188275,12.13044,0.5503638,-1
24,F,0,1,32,4,2,126,2,1298,0,0.8337855,12.11055,3.85214,-1
24,F,0,1,32,5,1,127,3,1642,0,0.07243619,5.873471,0.6714388,-1
24,F,0,1,32,6,2,125,1,1698,0,0.8888183,12.05094,4.128724,-1
24,F,0,1,32,7,1,126,2,2487,1,0.5020426,6.279948,4.329974,-1
24,F,0,1,32,8,2,127,3,2287,0,0.9231039,11.97279,4.35622,-1
24,F,0,1,33,1,1,132,4,4042,1,0.2469192,6.271193,2.173038,-1
24,F,0,1,33,2,1,130,2,2742,2,0.1427207,6.283157,1.243955,-1
24,F,0,1,33,3,2,132,4,2486,1,0.6715465,12.13565,3.142113,-1
24,F,0,1,33,4,1,129,1,2609,0,0.009767401,5.974504,0.09065409,-1
24,F,0,1,33,5,2,130,2,1209,0,0.9612079,12.10334,4.425672,-1
24,F,0,1,33,6,2,131,3,1787,0,0.001059585,11.97684,0,-1
24,F,0,1,33,7,2,129,1,2587,0,0.1876452,12.02497,0.8784871,-1
24,F,0,1,33,8,1,131,3,1142,0,0.1054022,5.86742,0.9779881,-1
24,F,0,1,34,1,2,133,1,1309,0,0.648726,12.01367,3.020252,-1
24,F,0,1,34,2,1,136,4,1964,0,0.3308618,6.277381,2.917255,-1
24,F,0,1,34,3,2,135,3,1676,0,0.4830059,11.96994,2.245418,-1
24,F,0,1,34,4,1,133,1,4742,3,0.4621629,5.948402,4.212451,-1
24,F,0,1,34,5,2,134,2,1220,0,0.7068761,12.09962,3.261168,-1
24,F,0,1,34,6,2,136,4,831,0,0.4509772,12.12304,2.111276,-1
24,F,0,1,34,7,1,135,3,2198,1,0.4464715,5.881621,4.106465,-1
24,F,0,1,34,8,1,134,2,2598,1,0.529543,6.267324,4.576543,-1
24,F,0,1,35,1,2,140,4,1420,0,0.8129795,12.10876,3.752751,-1
24,F,0,1,35,2,1,138,2,1176,0,0.4618889,6.268688,3.98988,-1
24,F,0,1,35,3,1,137,1,5775,3,0.3013409,5.97487,2.751717,-1
24,F,0,1,35,4,2,139,3,1476,0,0.9762264,12.00629,4.595294,-1
24,F,0,1,35,5,2,138,2,1864,0,0.3681311,12.0909,1.704332,-1
24,F,0,1,35,6,1,140,4,3653,2,0.1714581,6.260008,1.472862,-1
24,F,0,1,35,7,1,139,3,3376,0,0.0452324,5.884802,0.4210443,-1
24,F,0,1,35,8,2,137,1,1753,0,0.4385906,12.03385,2.054809,-1
24,F,0,1,37,1,4,147,3,4664,0,0.2424144,12.04128,1.135911,-1
24,F,0,1,37,2,3,145,1,2487,1,0.1325347,5.994711,1.209984,-1
24,F,0,1,37,3,4,146,2,2687,0,4.473288E-07,12.10184,0,-1
24,F,0,1,37,4,4,148,4,1165,0,0.5032952,12.08169,2.356342,-1
24,F,0,1,37,5,4,145,1,9999,0,-1,-1,-1,-1
24,F,0,1,37,6,3,147,3,1620,0,0.2228935,5.903733,2.098351,-1
24,F,0,1,37,7,3,146,2,2876,0,0.1266149,6.336973,1.097179,-1
24,F,0,1,37,8,3,148,4,2953,1,0.3432416,6.277133,2.959625,-1
24,F,0,1,38,1,3,149,1,2809,1,0.4336104,6.038549,3.865638,-1
24,F,0,1,38,2,3,151,3,1431,0,0.0896989,5.914148,0.8244823,-1
24,F,0,1,38,3,3,152,4,2898,0,0.3622055,6.298309,3.176874,-1
24,F,0,1,38,4,4,149,1,1720,0,0.7531077,12.04446,3.469723,-1
24,F,0,1,38,5,4,152,4,1042,0,0.7000477,12.12418,3.275185,-1
24,F,0,1,38,6,4,150,2,2887,0,0.4534639,12.13314,2.084689,-1
24,F,0,1,38,7,4,151,3,1920,0,0.8319088,12.02503,3.851174,-1
24,F,0,1,38,8,3,150,2,1576,0,0.3044834,6.311345,2.614192,-1
24,F,0,1,39,1,4,153,1,5187,4,0.9363924,12.03326,4.384499,-1
24,F,0,1,39,2,3,156,4,1898,0,8.522466E-08,6.276005,0,-1
24,F,0,1,39,3,3,153,1,1842,0,0.4139424,6.056295,3.751498,-1
24,F,0,1,39,4,3,154,2,1787,0,0.2600089,6.289197,2.257328,-1
24,F,0,1,39,5,3,155,3,1387,0,0.02344024,5.940171,0.2158,-1
24,F,0,1,39,6,4,156,4,1275,0,0.9458794,12.10292,4.433145,-1
24,F,0,1,39,7,4,154,2,3776,3,0.3968056,12.13989,1.835364,-1
24,F,0,1,39,8,4,155,3,1987,0,0.1054738,11.98036,0.4925778,-1
24,F,0,1,40,1,4,158,2,1442,0,0.9361694,12.12711,4.333004,-1
24,F,0,1,40,2,4,159,3,2365,0,0.4595153,12.00814,2.145757,-1
24,F,0,1,40,3,3,157,1,2076,0,0.4755868,6.082936,4.304797,-1
24,F,0,1,40,4,3,160,4,2898,0,0.4580511,6.281614,4.055164,-1
24,F,0,1,40,5,3,159,3,1465,0,1.343597E-07,5.955091,0,-1
24,F,0,1,40,6,3,158,2,1287,0,0.3654116,6.310867,3.140306,-1
24,F,0,1,40,7,4,160,4,1131,0,0.1497661,12.10445,0.6906884,-1
24,F,0,1,40,8,4,157,1,2775,1,0.8366569,12.07401,3.878685,-1
24,F,0,1,41,1,2,162,2,2765,2,0.3817976,12.12869,1.759586,-1
24,F,0,1,41,2,1,161,1,4865,3,0.3763409,5.993944,3.410189,-1
24,F,0,1,41,3,1,162,2,2031,0,2.352399E-08,6.295449,0,-1
24,F,0,1,41,4,2,163,3,1287,0,0.3728999,11.99548,1.725671,-1
24,F,0,1,41,5,2,164,4,865,0,0.5430477,12.15097,2.505147,-1
24,F,0,1,41,6,2,161,1,1920,0,0.4552152,12.04954,2.113222,-1
24,F,0,1,41,7,1,163,3,1609,0,1.120723E-07,5.916694,0,-1
24,F,0,1,41,8,1,164,4,2787,0,1.201002E-07,6.303421,0,-1
24,F,0,1,42,1,2,165,1,5820,4,0.6593028,12.03927,3.064394,-1
24,F,0,1,42,2,1,167,3,1131,0,0.3841748,5.877256,3.653181,-1
24,F,0,1,42,3,2,168,4,4453,1,1.103442E-07,12.15119,0,-1
24,F,0,1,42,4,2,167,3,3565,0,0.9990531,11.99568,4.71472,-1
24,F,0,1,42,5,1,166,2,1165,0,0.3568739,6.281275,3.075553,-1
24,F,0,1,42,6,1,168,4,2031,0,0.4614829,6.291688,4.064764,-1
24,F,0,1,42,7,1,165,1,1853,0,0.4440095,6.012714,4.012003,-1
24,F,0,1,42,8,2,166,2,1198,0,0.8811377,12.12838,4.082599,-1
24,F,0,1,43,1,1,172,4,2231,0,0.2944716,6.291079,2.592463,-1
24,F,0,1,43,2,2,171,3,2387,0,0.08403105,12.00214,0.3916712,-1
24,F,0,1,43,3,1,169,1,7564,7,0.4981557,6.008656,4.493617,-1
24,F,0,1,43,4,1,171,3,1298,0,1.231395E-07,5.868323,0.01978234,-1
24,F,0,1,43,5,2,170,2,998,0,0.9758692,12.11454,4.588213,-1
24,F,0,1,43,6,2,172,4,1131,0,0.3811086,12.12415,1.779823,-1
24,F,0,1,43,7,1,170,2,3631,3,0.5375596,6.276828,4.764482,-1
24,F,0,1,43,8,2,169,1,9999,0,-1,-1,-1,-1
24,F,0,1,44,1,1,176,4,1854,0,9.255069E-08,6.284722,0,-1
24,F,0,1,44,2,1,175,3,1398,0,0.1599423,5.941629,1.461525,-1
24,F,0,1,44,3,2,174,2,1453,0,0.7649428,12.15437,3.573798,-1
24,F,0,1,44,4,2,173,1,5798,3,0.8531415,12.07261,3.966695,-1
24,F,0,1,44,5,2,176,4,3720,1,0.7595965,12.16532,3.532635,-1
24,F,0,1,44,6,2,175,3,3031,1,0.3597807,12.01659,1.679114,-1
24,F,0,1,44,7,1,173,1,1687,0,0.46533,6.004511,4.19806,-1
24,F,0,1,44,8,1,174,2,9999,8,-1,-1,-1,-1
24,F,0,1,45,1,2,177,1,4009,0,0.5891811,12.08659,2.727567,-1
24,F,0,1,45,2,1,180,4,2698,0,0.1954332,6.367506,1.699733,-1
24,F,0,1,45,3,1,179,3,1131,0,5.093934E-08,5.935895,0,-1
24,F,0,1,45,4,1,178,2,8542,5,0.4545395,6.295272,4.011222,-1
24,F,0,1,45,5,2,179,3,8409,6,1.231667E-07,11.86048,0,-1
24,F,0,1,45,6,2,178,2,2387,0,0.8224761,12.05102,3.819826,-1
24,F,0,1,45,7,2,180,4,1353,0,0.5639234,12.08702,2.613518,-1
24,F,0,1,45,8,1,177,1,4964,3,0.1623492,5.965337,1.475517,-1
24,F,0,1,46,1,1,183,3,1465,0,0.1393387,5.862861,1.306562,-1
24,F,0,1,46,2,1,184,4,4120,0,0.1434504,6.267409,1.245841,-1
24,F,0,1,46,3,1,181,1,1520,0,0.47904,5.978524,4.338831,-1
24,F,0,1,46,4,2,182,2,1398,0,0.2045004,12.11051,0.9460534,-1
24,F,0,1,46,5,2,183,3,1331,0,0.9861374,11.9834,4.589878,-1
24,F,0,1,46,6,2,184,4,1109,0,0.8959725,12.134,4.186381,-1
24,F,0,1,46,7,2,181,1,2620,0,0.171591,12.03583,0.8003972,-1
24,F,0,1,46,8,1,182,2,3042,2,0.30273,6.274987,2.671224,-1
24,F,0,1,47,1,2,187,3,1754,0,1.011403,11.98211,4.770276,-1
24,F,0,1,47,2,2,185,1,1587,0,0.1829936,12.03946,0.8522572,-1
24,F,0,1,47,3,2,188,4,964,0,1.006584,12.12208,4.695401,-1
24,F,0,1,47,4,1,186,2,9064,6,0.522594,6.261164,4.529175,-1
24,F,0,1,47,5,1,185,1,4276,2,0.3001926,6.004427,2.721029,-1
24,F,0,1,47,6,2,186,2,1542,0,0.4565157,12.11611,2.104684,-1
24,F,0,1,47,7,1,187,3,1720,0,0.227567,5.906244,2.142654,-1
24,F,0,1,47,8,1,188,4,3564,0,0.1984576,6.296968,1.705365,-1
24,F,0,1,48,1,2,190,2,1987,0,0.6058846,12.11492,2.803934,-1
24,F,0,1,48,2,1,192,4,1987,0,0.2435169,6.284658,2.132582,-1
24,F,0,1,48,3,1,191,3,1109,0,0.3916358,5.918351,3.590796,-1
24,F,0,1,48,4,1,190,2,2076,1,0.3826739,6.279203,3.338475,-1
24,F,0,1,48,5,2,189,1,1687,0,0.7610019,12.05052,3.533411,-1
24,F,0,1,48,6,2,191,3,1598,0,0.07204634,12.0037,0.3363003,-1
24,F,0,1,48,7,2,192,4,1120,0,1.026816,12.15007,4.727417,-1
24,F,0,1,48,8,1,189,1,6264,4,0.4401617,6.013882,4.012687,-1
24,F,0,1,49,1,2,196,4,898,0,0.554499,12.14872,2.547988,-1
24,F,0,1,49,2,1,193,1,2298,1,0.4915562,6.014425,4.441002,-1
24,F,0,1,49,3,2,194,2,1186,0,0.6766003,12.13192,3.111309,-1
24,F,0,1,49,4,2,195,3,2353,0,1.281962E-07,12.00752,0,-1
24,F,0,1,49,5,2,193,1,3576,1,0.7097983,12.03066,3.304286,-1
24,F,0,1,49,6,1,194,2,2142,1,0.3477536,6.277947,3.032671,-1
24,F,0,1,49,7,1,195,3,1365,0,1.249201E-07,5.905842,0,-1
24,F,0,1,49,8,1,196,4,3420,0,6.51361E-08,6.293595,0,-1
24,F,0,1,50,1,1,198,2,1742,1,0.3988696,6.279087,3.453377,-1
24,F,0,1,50,2,1,199,3,1720,0,0.006923678,5.92246,0.06255726,-1
24,F,0,1,50,3,1,197,1,3398,1,0.3641576,6.023035,3.284199,-1
24,F,0,1,50,4,1,200,4,1898,0,1.859813E-07,6.307008,0,-1
24,F,0,1,50,5,2,198,2,1976,0,0.8123337,12.09311,3.814183,-1
24,F,0,1,50,6,2,197,1,2042,0,0.697856,12.02836,3.268004,-1
24,F,0,1,50,7,2,199,3,2153,0,1.008145E-08,11.9822,0,-1
24,F,0,1,50,8,2,200,4,1198,0,1.357923E-07,12.12527,0,-1
24,F,0,1,51,1,1,203,3,1742,0,8.928901E-08,5.886998,0,-1
24,F,0,1,51,2,1,201,1,2442,1,0.1607908,5.987669,1.457502,-1
24,F,0,1,51,3,1,204,4,3386,0,7.931067E-08,6.2874,0.01978234,-1
24,F,0,1,51,4,2,202,2,1309,0,0.3228138,12.1086,1.491085,-1
24,F,0,1,51,5,2,203,3,2053,0,0.5016273,11.97638,2.364964,-1
24,F,0,1,51,6,1,202,2,1298,0,0.4273752,6.265117,3.693213,-1
24,F,0,1,51,7,2,201,1,1853,0,0.6884633,12.02795,3.217898,-1
24,F,0,1,51,8,2,204,4,9999,2,-1,-1,-1,-1
24,F,0,1,52,1,2,205,1,1720,0,0.2110093,12.00344,0.9889315,-1
24,F,0,1,52,2,2,207,3,3364,0,0.8663325,11.994,4.012003,-1
24,F,0,1,52,3,1,208,4,2876,1,0.466342,6.27496,4.102505,-1
24,F,0,1,52,4,1,207,3,1364,0,6.641154E-08,5.95546,0,-1
24,F,0,1,52,5,2,206,2,1676,0,0.4350722,12.11734,2.006328,-1
24,F,0,1,52,6,2,208,4,1298,0,0.05318203,12.15246,0.2462884,-1
24,F,0,1,52,7,1,205,1,2731,1,0.2832294,6.006712,2.560632,-1
24,F,0,1,52,8,1,206,2,6975,5,0.4462086,6.327215,3.830935,-1
24,F,0,1,53,1,1,212,4,3842,0,0.4359476,6.264633,3.835379,-1
24,F,0,1,53,2,2,210,2,1609,0,0.1777898,12.11932,0.8218675,-1
24,F,0,1,53,3,1,209,1,2520,1,0.1717376,6.012534,1.548766,-1
24,F,0,1,53,4,2,212,4,931,0,0.5478418,12.15058,2.55696,-1
24,F,0,1,53,5,1,210,2,2798,2,0.4397699,6.289604,3.786308,-1
24,F,0,1,53,6,1,211,3,1431,0,2.030796E-08,5.900735,0,-1
24,F,0,1,53,7,2,209,1,2620,0,0.9425729,12.04653,4.379045,-1
24,F,0,1,53,8,2,211,3,3031,0,1.491762E-07,11.99658,0,-1
24,F,0,1,54,1,2,214,2,2742,0,0.1267651,12.11684,0.5865081,-1
24,F,0,1,54,2,2,215,3,2520,0,0.374448,12.0083,1.748988,-1
24,F,0,1,54,3,1,214,2,2576,1,0.375172,6.284243,3.232103,-1
24,F,0,1,54,4,2,213,1,2153,0,0.8793722,12.04604,4.086195,-1
24,F,0,1,54,5,1,216,4,4053,0,0.01154592,6.281949,0.09891172,-1
24,F,0,1,54,6,1,213,1,6587,4,0.1956076,6.016819,1.760142,-1
24,F,0,1,54,7,2,216,4,1876,0,0.3310489,12.13696,1.542942,-1
24,F,0,1,54,8,1,215,3,1598,0,0.296825,5.881306,2.796244,-1
24,F,0,1,55,1,1,220,4,3087,0,0.1684836,6.287448,1.463131,-1
24,F,0,1,55,2,1,218,2,1987,1,0.3994795,6.287344,3.441906,-1
24,F,0,1,55,3,2,219,3,3365,0,0.3294666,11.99894,1.541039,-1
24,F,0,1,55,4,2,217,1,1987,0,0.2152564,12.06392,1.000538,-1
24,F,0,1,55,5,2,218,2,1698,0,0.3161299,12.12646,1.458442,-1
24,F,0,1,55,6,2,220,4,1609,0,0.1826601,12.13533,0.8437192,-1
24,F,0,1,55,7,1,217,1,3409,2,9.759913E-08,6.003132,0,-1
24,F,0,1,55,8,1,219,3,1253,0,0.273685,5.904587,2.516451,-1
24,F,0,1,56,1,1,221,1,2987,2,0.2405652,6.006824,2.1974,-1
24,F,0,1,56,2,1,222,2,2098,1,0.3443314,6.290831,2.963128,-1
24,F,0,1,56,3,1,223,3,1331,0,8.803877E-08,5.903376,0,-1
24,F,0,1,56,4,2,224,4,1164,0,0.5279785,12.14512,2.461004,-1
24,F,0,1,56,5,2,222,2,1620,0,0.6089438,12.11873,2.842347,-1
24,F,0,1,56,6,1,224,4,2209,0,0.3951941,6.269022,3.446169,-1
24,F,0,1,56,7,2,223,3,2720,0,0.9651098,11.97375,4.504848,-1
24,F,0,1,56,8,2,221,1,1753,0,0.5699221,12.05296,2.645601,-1
24,F,0,1,57,1,4,226,2,3375,2,0.6303217,12.06182,2.939315,-1
24,F,0,1,57,2,3,225,1,1920,0,0.4307353,6.053176,3.891236,-1
24,F,0,1,57,3,4,227,3,2198,0,0.9787351,11.96404,4.628593,-1
24,F,0,1,57,4,3,228,4,3731,1,0.2608761,6.267382,2.269261,-1
24,F,0,1,57,5,3,226,2,3620,1,2.539416E-08,6.288485,0,-1
24,F,0,1,57,6,4,228,4,1264,0,0.8156607,12.07717,3.76468,-1
24,F,0,1,57,7,4,225,1,2253,0,0.9234381,11.98203,4.294822,-1
24,F,0,1,57,8,3,227,3,2542,1,0.3517074,5.922887,3.250525,-1
24,F,0,1,58,1,4,230,2,1865,0,0.8931784,12.10565,4.145293,-1
24,F,0,1,58,2,4,231,3,2098,0,0.02038222,11.97744,0.09278741,-1
24,F,0,1,58,3,3,229,1,3820,1,0.2171924,6.018525,1.986625,-1
24,F,0,1,58,4,3,232,4,3042,0,0.4221499,6.2696,3.690031,-1
24,F,0,1,58,5,3,231,3,2220,0,0.07620998,5.856524,0.708588,-1
24,F,0,1,58,6,4,232,4,2353,0,0.7682568,12.05633,3.607498,-1
24,F,0,1,58,7,4,229,1,2509,1,0.9748181,11.95517,4.527575,-1
24,F,0,1,58,8,3,230,2,2420,1,0.533537,6.302124,4.682785,-1
24,F,0,1,59,1,4,235,3,2642,1,0.1541419,11.97703,0.7203645,-1
24,F,0,1,59,2,3,233,1,2798,1,1.536418E-07,5.975575,0,-1
24,F,0,1,59,3,3,235,3,1742,0,0.06430707,5.866524,0.6013339,-1
24,F,0,1,59,4,4,234,2,1853,0,0.600879,12.06074,2.83338,-1
24,F,0,1,59,5,3,236,4,2742,0,0.1097538,6.291578,0.9602193,-1
24,F,0,1,59,6,4,233,1,1676,0,0.2652632,12.00536,1.234955,-1
24,F,0,1,59,7,3,234,2,2409,1,0.442251,6.231639,3.813156,-1
24,F,0,1,59,8,4,236,4,1231,0,0.8626577,12.06249,4.045446,-1
24,F,0,1,60,1,3,238,2,2042,1,0.2516707,6.279683,2.199003,-1
24,F,0,1,60,2,4,240,4,1387,0,0.9555429,12.06001,4.493878,-1
24,F,0,1,60,3,4,237,1,9999,0,-1,-1,-1,-1
24,F,0,1,60,4,3,240,4,2298,0,0.2093665,6.262752,1.843025,-1
24,F,0,1,60,5,4,238,2,1287,0,0.7228549,12.05269,3.356197,-1
24,F,0,1,60,6,3,239,3,1853,0,0.06097055,5.850132,0.5699261,-1
24,F,0,1,60,7,3,237,1,1731,0,0.1665063,6.115804,1.500244,-1
24,F,0,1,60,8,4,239,3,2720,1,0.1727901,12.0345,0.8064859,-1
24,F,0,1,61,1,2,242,2,1587,0,0.8687007,12.10508,4.006728,-1
24,F,0,1,61,2,2,241,1,1842,0,0.5237706,12.0286,2.458458,-1
24,F,0,1,61,3,1,242,2,5165,4,0.1620542,6.293412,1.409449,-1
24,F,0,1,61,4,1,243,3,1098,0,0.244957,5.887931,2.303418,-1
24,F,0,1,61,5,1,244,4,1765,0,3.158424E-07,6.26977,0,-1
24,F,0,1,61,6,2,243,3,2276,0,0.3092665,12.00373,1.44442,-1
24,F,0,1,61,7,1,241,1,4776,3,0.1020595,5.992626,0.9287274,-1
24,F,0,1,61,8,2,244,4,1153,0,0.6285422,12.13645,2.929575,-1
24,F,0,1,62,1,2,245,1,2687,0,0.9802754,12.04974,4.571019,-1
24,F,0,1,62,2,1,247,3,1476,0,0.1314359,5.894603,1.213053,-1
24,F,0,1,62,3,1,246,2,3076,2,0.4671949,6.302388,4.060714,-1
24,F,0,1,62,4,1,248,4,2020,0,0.5013242,6.269442,4.33847,-1
24,F,0,1,62,5,2,246,2,1676,0,0.6920647,12.11704,3.196411,-1
24,F,0,1,62,6,2,247,3,3575,1,0.4362848,11.95188,2.036824,-1
24,F,0,1,62,7,2,248,4,1731,0,0.762552,12.12325,3.555122,-1
24,F,0,1,62,8,1,245,1,6187,3,0.1456997,5.983497,1.317747,-1
24,F,0,1,1,1,8,3,3,2441,0,2.640783,12.04605,12.32695,-1
24,F,0,1,1,2,5,4,4,1631,0,6.335966,6.354939,85.5714,-1
24,F,0,1,1,3,8,2,2,3709,0,0.7913001,12.08394,3.718364,-1
24,F,0,1,1,4,5,3,3,3231,0,2.747851,5.939837,26.84968,-1
24,F,0,1,1,5,8,1,1,4664,0,4.911781,12.00738,24.13993,-1
24,F,0,1,1,6,7,2,2,4975,0,2.894121,6.305012,26.76292,-1
24,F,0,1,1,7,6,1,1,3198,0,9.98533,12.10565,55.57024,-1
24,F,0,1,1,8,5,2,2,1442,0,0.3664855,6.307053,3.146161,-1
24,F,0,1,1,9,6,4,4,1942,0,5.500173,12.15978,26.89295,-1
24,F,0,1,1,10,7,1,1,2153,0,2.241338,6.066307,20.6941,-1
24,F,0,1,1,11,7,4,4,2987,0,4.8722,6.323112,48.4343,-1
24,F,0,1,1,12,6,2,2,3242,0,6.116508,12.143,30.24553,-1
24,F,0,1,1,13,6,3,3,4509,0,5.388611,12.01034,26.65775,-1
24,F,0,1,1,14,5,1,1,5353,0,5.809208,6.104709,72.10001,-1
24,F,0,1,1,15,8,4,4,8220,0,1.703941,12.14358,8.017093,-1
24,F,0,1,1,16,7,3,3,1976,0,3.582957,5.976021,36.83807,-1
24,F,0,1,2,1,7,3,3,3408,0,3.592021,5.972271,36.9738,-1
24,F,0,1,2,2,5,1,1,2898,0,5.710702,6.149371,68.22756,-1
24,F,0,1,2,3,8,2,2,3342,0,2.085121,12.08447,9.574913,-1
24,F,0,1,2,4,5,3,3,2476,0,2.616445,5.936738,26.1499,-1
24,F,0,1,2,5,7,4,4,5342,0,2.274268,6.250532,20.57791,-1
24,F,0,1,2,6,7,1,1,1453,0,3.397559,6.098156,33.85861,-1
24,F,0,1,2,7,5,4,4,1431,0,6.087739,6.297144,75.18262,-1
24,F,0,1,2,8,6,2,2,3553,0,2.536547,12.16104,11.95499,-1
24,F,0,1,2,9,8,4,4,1742,0,1.920782,12.1138,8.938021,-1
24,F,0,1,2,10,8,3,3,4942,0,3.622973,12.01452,17.37148,-1
24,F,0,1,2,11,6,1,1,1231,0,9.05905,12.09058,48.50694,-1
24,F,0,1,2,12,6,3,3,2464,0,0.9220403,11.95527,4.358153,-1
24,F,0,1,2,13,5,2,2,3031,0,0.6768451,6.309331,5.900067,-1
24,F,0,1,2,14,6,4,4,3198,0,4.225607,12.15731,20.21367,-1
24,F,0,1,2,15,7,2,2,2053,0,2.063029,6.250659,18.16117,-1
24,F,0,1,2,16,8,1,1,2287,0,2.553871,11.96496,12.17668,-1
