Age, Gender, Awareness Type, Session, Block, Trial, Set, Pattern, Quadrant, Response Time, Num Mistakes, Distance From Target, Camera Distance From Target, Angle Error (Degrees), FC Response
21,F,0,1,1,1,2,2,2,9999,1,-1,-1,-1,-1
21,F,0,1,1,2,1,4,4,4009,1,0.3008584,6.3973,2.547604,-1
21,F,0,1,1,3,2,3,3,2009,0,1.056767E-07,12.15844,0,-1
21,F,0,1,1,4,1,1,1,1464,0,0.3465765,6.21135,3.05005,-1
21,F,0,1,1,5,1,2,2,4164,1,0.4970057,6.537742,4.16316,-1
21,F,0,1,1,6,2,4,4,4487,2,0.9436633,12.37594,4.250957,-1
21,F,0,1,1,7,2,1,1,2042,0,0.7024985,12.2841,3.175333,-1
21,F,0,1,1,8,1,3,3,1520,0,1.41705E-07,6.157048,0,-1
21,F,0,1,2,1,1,6,2,4231,2,0.3818149,6.536409,3.197758,-1
21,F,0,1,2,2,1,5,1,2142,0,0.2081513,6.208567,1.832376,-1
21,F,0,1,2,3,1,8,4,3598,1,0.4611526,6.394555,3.886402,-1
21,F,0,1,2,4,2,5,1,5720,1,0.7656728,12.26942,3.533134,-1
21,F,0,1,2,5,2,7,3,3287,0,0.6150214,12.1475,2.878616,-1
21,F,0,1,2,6,2,6,2,2476,0,1.043874,12.31891,4.712475,-1
21,F,0,1,2,7,1,7,3,1809,1,0.036792,6.154916,0.3268584,-1
21,F,0,1,2,8,2,8,4,2220,1,1.585465E-07,12.3737,0,-1
21,F,0,1,3,1,2,11,3,1753,0,2.035365E-07,12.16055,0,-1
21,F,0,1,3,2,2,12,4,5742,2,0.5690868,12.36634,2.562389,-1
21,F,0,1,3,3,2,9,1,2709,1,0.2549677,12.27388,1.159272,-1
21,F,0,1,3,4,1,10,2,1876,0,0.4265009,6.529448,3.53834,-1
21,F,0,1,3,5,1,11,3,1609,0,0.2353746,6.157285,2.089472,-1
21,F,0,1,3,6,2,10,2,1431,0,0.7871776,12.32666,3.565186,-1
21,F,0,1,3,7,1,12,4,3187,2,0.04443055,6.400678,0.3774237,-1
21,F,0,1,3,8,1,9,1,1609,0,0.1068957,6.201774,0.953881,-1
21,F,0,1,4,1,1,16,4,3543,1,0.125419,6.393268,1.077745,-1
21,F,0,1,4,2,1,15,3,2098,0,0.2428111,6.164542,2.166273,-1
21,F,0,1,4,3,2,14,2,3609,0,0.1748937,12.3337,0.7981939,-1
21,F,0,1,4,4,2,15,3,2376,0,0.769376,12.14741,3.565955,-1
21,F,0,1,4,5,2,13,1,2431,0,0.6118326,12.28794,2.766898,-1
21,F,0,1,4,6,1,14,2,2120,1,0.5389238,6.527519,4.521861,-1
21,F,0,1,4,7,1,13,1,1598,0,0.09589612,6.189458,0.8494976,-1
21,F,0,1,4,8,2,16,4,1898,0,0.4344068,12.37156,1.978431,-1
21,F,0,1,5,1,1,17,1,1331,0,0.07364534,6.20768,0.6513204,-1
21,F,0,1,5,2,1,18,2,1653,1,0.5379243,6.52768,4.453994,-1
21,F,0,1,5,3,2,17,1,1320,0,0.3286948,12.2779,1.506362,-1
21,F,0,1,5,4,2,20,4,1898,0,0.507167,12.35913,2.289868,-1
21,F,0,1,5,5,2,19,3,1976,0,6.440688E-08,12.14596,0,-1
21,F,0,1,5,6,2,18,2,3131,0,0.4007315,12.32101,1.816608,-1
21,F,0,1,5,7,1,20,4,2642,1,0.4300172,6.389692,3.720207,-1
21,F,0,1,5,8,1,19,3,1354,0,7.145139E-08,6.152671,0,-1
21,F,0,1,6,1,1,22,2,2787,0,1.101125E-07,6.542196,0,-1
21,F,0,1,6,2,1,23,3,1365,0,0.1753927,6.155126,1.551291,-1
21,F,0,1,6,3,2,24,4,2576,1,0.2920416,12.36377,1.335009,-1
21,F,0,1,6,4,2,21,1,1576,0,0.9182533,12.28564,4.153788,-1
21,F,0,1,6,5,2,23,3,1309,0,0.07518568,12.14954,0.3483046,-1
21,F,0,1,6,6,1,24,4,1920,1,0.474939,6.383699,4.091415,-1
21,F,0,1,6,7,2,22,2,1376,0,0.6870733,12.32439,3.098446,-1
21,F,0,1,6,8,1,21,1,2309,1,6.46037E-08,6.205476,0,-1
21,F,0,1,7,1,2,26,2,1876,0,0.8231257,12.33422,3.709877,-1
21,F,0,1,7,2,1,28,4,3053,1,0.1264938,6.385514,1.089483,-1
21,F,0,1,7,3,1,25,1,1598,0,0.05515369,6.19376,0.4889896,-1
21,F,0,1,7,4,1,27,3,1442,0,0.08870821,6.152102,0.7875819,-1
21,F,0,1,7,5,2,28,4,3431,2,0.9309332,12.37622,4.19129,-1
21,F,0,1,7,6,2,25,1,1142,0,0.4765944,12.29123,2.171417,-1
21,F,0,1,7,7,1,26,2,1476,0,0.3306082,6.531627,2.769656,-1
21,F,0,1,7,8,2,27,3,4609,0,0.4016377,12.15583,1.872521,-1
21,F,0,1,8,1,2,32,4,1398,0,0.8387595,12.36616,3.800967,-1
21,F,0,1,8,2,1,30,2,1620,0,0.2486512,6.529067,2.072355,-1
21,F,0,1,8,3,1,31,3,1176,0,0.1115331,6.157504,0.9869508,-1
21,F,0,1,8,4,1,29,1,1742,1,0.3307664,6.202311,2.956514,-1
21,F,0,1,8,5,2,31,3,1298,0,0.6295115,12.15937,2.948624,-1
21,F,0,1,8,6,2,30,2,1176,0,0.6753857,12.32385,3.045811,-1
21,F,0,1,8,7,1,32,4,2642,1,0.3493101,6.393082,3.019409,-1
21,F,0,1,8,8,2,29,1,2320,2,0.7820432,12.26463,3.574893,-1
21,F,0,1,9,1,1,34,2,2676,0,0.3469034,6.549139,2.876371,-1
21,F,0,1,9,2,1,33,1,998,0,0.05137375,6.219916,0.453703,-1
21,F,0,1,9,3,2,35,3,1265,0,0.351431,12.1612,1.621482,-1
21,F,0,1,9,4,1,36,4,3042,1,0.2124232,6.397464,1.833337,-1
21,F,0,1,9,5,1,35,3,1065,0,0.303172,6.168548,2.734448,-1
21,F,0,1,9,6,2,33,1,1020,0,0.9180301,12.29316,4.149873,-1
21,F,0,1,9,7,2,36,4,2209,0,0.4679743,12.37388,2.111184,-1
21,F,0,1,9,8,2,34,2,1720,1,0.7931201,12.33863,3.58856,-1
21,F,0,1,10,1,1,40,4,2209,0,0.4094603,6.400679,3.532857,-1
21,F,0,1,10,2,2,39,3,2287,0,0.1108721,12.16748,0.5116726,-1
21,F,0,1,10,3,2,40,4,1053,0,0.6061384,12.3838,2.737095,-1
21,F,0,1,10,4,1,38,2,1453,0,0.2064715,6.544964,1.726464,-1
21,F,0,1,10,5,1,37,1,1209,0,0.2368682,6.231331,2.075657,-1
21,F,0,1,10,6,2,38,2,2031,0,0.8534918,12.32622,3.849343,-1
21,F,0,1,10,7,2,37,1,1798,0,0.9791657,12.28947,4.428504,-1
21,F,0,1,10,8,1,39,3,1587,0,5.29142E-08,6.172336,0,-1
21,F,0,1,11,1,1,42,2,1586,0,0.04808895,6.547228,0.4010509,-1
21,F,0,1,11,2,2,43,3,1720,0,0.4125068,12.1733,1.905056,-1
21,F,0,1,11,3,2,41,1,1109,0,0.512816,12.3083,2.314522,-1
21,F,0,1,11,4,2,44,4,1309,0,0.2798994,12.37709,1.261916,-1
21,F,0,1,11,5,1,43,3,1665,0,0.2163031,6.167503,1.911927,-1
21,F,0,1,11,6,1,44,4,2520,2,0.226319,6.398075,1.92529,-1
21,F,0,1,11,7,1,41,1,1054,0,0.155002,6.225358,1.370308,-1
21,F,0,1,11,8,2,42,2,1564,0,0.3046756,12.33598,1.375866,-1
21,F,0,1,12,1,1,47,3,1409,0,1.732988E-07,6.171394,0,-1
21,F,0,1,12,2,2,45,1,1387,0,0.7736491,12.28912,3.494071,-1
21,F,0,1,12,3,2,46,2,1675,0,0.6517506,12.34108,2.935183,-1
21,F,0,1,12,4,1,48,4,1398,0,0.4213627,6.398473,3.639702,-1
21,F,0,1,12,5,2,47,3,1087,0,0.2890967,12.16281,1.343775,-1
21,F,0,1,12,6,1,45,1,1009,0,0.2687136,6.222673,2.399636,-1
21,F,0,1,12,7,1,46,2,2498,0,0.3249825,6.554511,2.714186,-1
21,F,0,1,12,8,2,48,4,942,0,0.4948401,12.38969,2.229409,-1
21,F,0,1,13,1,2,51,3,1242,0,0.01419977,12.17024,0.06255726,-1
21,F,0,1,13,2,1,50,2,998,0,0.4364621,6.54884,3.60804,-1
21,F,0,1,13,3,1,52,4,2064,1,0.4001445,6.402486,3.454114,-1
21,F,0,1,13,4,2,49,1,820,0,0.4767726,12.3052,2.156221,-1
21,F,0,1,13,5,1,51,3,2053,0,0.5268556,6.174819,4.689097,-1
21,F,0,1,13,6,1,49,1,1231,0,1.26768E-07,6.219748,0,-1
21,F,0,1,13,7,2,52,4,2753,0,0.6545693,12.37981,2.957904,-1
21,F,0,1,13,8,2,50,2,9999,0,-1,-1,-1,-1
21,F,0,1,14,1,2,56,4,1487,0,0.6077486,12.37903,2.739883,-1
21,F,0,1,14,2,2,55,3,1209,0,4.338884E-08,12.16682,0,-1
21,F,0,1,14,3,1,56,4,2165,1,0.3325358,6.395392,2.872899,-1
21,F,0,1,14,4,1,53,1,1076,0,0.04502685,6.227437,0.3976209,-1
21,F,0,1,14,5,2,54,2,1287,0,0.9536729,12.34227,4.273839,-1
21,F,0,1,14,6,2,53,1,1153,0,0.2162833,12.29481,0.9881397,-1
21,F,0,1,14,7,1,55,3,2098,0,3.355637E-07,6.167065,0,-1
21,F,0,1,14,8,1,54,2,2376,0,0.4827327,6.54951,4.031286,-1
21,F,0,1,15,1,1,59,3,1909,0,0.1583065,6.171032,1.410698,-1
21,F,0,1,15,2,2,58,2,1387,0,0.9776486,12.34651,4.402065,-1
21,F,0,1,15,3,1,60,4,2298,0,0.5402278,6.39752,4.669296,-1
21,F,0,1,15,4,2,59,3,1665,0,0.3340043,12.16843,1.551543,-1
21,F,0,1,15,5,2,57,1,1098,0,0.1023412,12.30034,0.4660423,-1
21,F,0,1,15,6,2,60,4,1509,1,0.2794168,12.38341,1.25881,-1
21,F,0,1,15,7,1,57,1,3565,0,2.751815E-08,6.219139,0,-1
21,F,0,1,15,8,1,58,2,1331,0,0.2974364,6.541403,2.488764,-1
21,F,0,1,16,1,2,61,1,942,0,0.5538895,12.29714,2.540834,-1
21,F,0,1,16,2,1,62,2,1409,0,0.4396496,6.551942,3.674504,-1
21,F,0,1,16,3,2,64,4,1142,0,0.5144346,12.3795,2.319253,-1
21,F,0,1,16,4,2,63,3,1276,0,0.3276504,12.167,1.511161,-1
21,F,0,1,16,5,1,64,4,2909,2,0.1761278,6.398645,1.496979,-1
21,F,0,1,16,6,2,62,2,5020,1,0.3129679,12.33723,1.417617,-1
21,F,0,1,16,7,1,61,1,1676,0,0.005863195,6.219113,0.04845664,-1
21,F,0,1,16,8,1,63,3,2020,0,0.02348106,6.160446,0.20842,-1
21,F,0,1,17,1,3,66,2,2553,3,0.2237706,6.545767,1.862671,-1
21,F,0,1,17,2,4,67,3,3542,0,0.2221663,12.13142,1.026029,-1
21,F,0,1,17,3,4,65,1,964,0,0.09409025,12.2977,0.4288719,-1
21,F,0,1,17,4,3,67,3,1476,0,0.3583978,6.142282,3.178476,-1
21,F,0,1,17,5,3,68,4,2920,2,0.4373435,6.412934,3.738636,-1
21,F,0,1,17,6,4,66,2,2353,0,0.6541616,12.34209,2.958963,-1
21,F,0,1,17,7,4,68,4,1109,0,0.6312108,12.39137,2.847851,-1
21,F,0,1,17,8,3,65,1,1865,0,0.3140183,6.20644,2.754703,-1
21,F,0,1,18,1,4,71,3,1165,0,0.7262507,12.15175,3.377132,-1
21,F,0,1,18,2,4,72,4,1420,0,0.4702323,12.38027,2.120249,-1
21,F,0,1,18,3,4,69,1,1209,0,0.5889034,12.33346,2.666897,-1
21,F,0,1,18,4,4,70,2,1242,0,0.7534758,12.36749,3.409156,-1
21,F,0,1,18,5,3,71,3,1809,1,0.1492499,6.138844,1.335155,-1
21,F,0,1,18,6,3,69,1,1198,0,0.4424933,6.181113,4.031675,-1
21,F,0,1,18,7,3,70,2,1209,0,0.4286135,6.532697,3.567437,-1
21,F,0,1,18,8,3,72,4,1909,1,0.2447629,6.40983,2.069425,-1
21,F,0,1,19,1,4,75,3,1042,0,0.8655639,12.18276,4.036092,-1
21,F,0,1,19,2,4,73,1,1098,0,2.201996E-07,12.30771,0.01978234,-1
21,F,0,1,19,3,3,75,3,1309,0,0.1347724,6.143342,1.192718,-1
21,F,0,1,19,4,3,76,4,1987,1,0.2887961,6.399209,2.443204,-1
21,F,0,1,19,5,3,74,2,1254,0,0.543043,6.568583,4.548509,-1
21,F,0,1,19,6,3,73,1,1576,0,0.2402533,6.225163,2.138082,-1
21,F,0,1,19,7,4,74,2,3998,0,1.035906,12.37537,4.686214,-1
21,F,0,1,19,8,4,76,4,1587,0,1.007689,12.37823,4.550618,-1
21,F,0,1,20,1,4,79,3,1431,0,0.1926235,12.1674,0.8930672,-1
21,F,0,1,20,2,3,77,1,1220,0,0.3719082,6.182971,3.368599,-1
21,F,0,1,20,3,4,78,2,4120,0,0.811422,12.33809,3.655966,-1
21,F,0,1,20,4,3,80,4,1898,0,0.2775864,6.406368,2.367694,-1
21,F,0,1,20,5,4,77,1,920,0,0.9996242,12.30717,4.608107,-1
21,F,0,1,20,6,4,80,4,1131,0,0.296261,12.3589,1.354797,-1
21,F,0,1,20,7,3,79,3,1587,0,0.3515157,6.132445,3.1794,-1
21,F,0,1,20,8,3,78,2,1198,0,0.4965421,6.558085,4.154589,-1
21,F,0,1,20,1,2,77,1,1065,0,0.8871365,12.2833,4.010002,-1
21,F,0,1,20,2,2,78,2,831,0,1.052865,12.34502,4.720449,-1
21,F,0,1,20,3,1,77,1,1176,0,0.06559669,6.218646,0.5787839,-1
21,F,0,1,20,4,2,80,4,1287,0,0.3647838,12.38734,1.658592,-1
21,F,0,1,20,5,1,78,2,1976,0,0.1013837,6.550203,0.8451096,-1
21,F,0,1,20,6,2,79,3,1364,0,0.5787392,12.16096,2.702043,-1
21,F,0,1,20,7,1,80,4,2865,0,0.2177178,6.400765,1.8409,-1
21,F,0,1,20,8,1,79,3,1309,0,6.94278E-08,6.166411,0,-1
21,F,0,1,21,1,1,81,1,1287,0,3.597884E-08,6.228884,0,-1
21,F,0,1,21,2,2,82,2,1698,0,0.09548209,12.3469,0.4329587,-1
21,F,0,1,21,3,1,83,3,1120,0,4.248237E-08,6.160898,0,-1
21,F,0,1,21,4,2,84,4,1009,0,0.7696365,12.38061,3.526978,-1
21,F,0,1,21,5,2,83,3,2064,0,0.4840596,12.15695,2.26062,-1
21,F,0,1,21,6,1,84,4,1609,0,0.168722,6.399688,1.428618,-1
21,F,0,1,21,7,2,81,1,1742,2,0.3830658,12.29544,1.743945,-1
21,F,0,1,21,8,1,82,2,2420,3,0.4455433,6.54741,3.689235,-1
21,F,0,1,22,1,1,87,3,1387,1,0.1118972,6.137348,0.9950465,-1
21,F,0,1,22,2,1,88,4,2509,1,0.0909403,6.38973,0.7860898,-1
21,F,0,1,22,3,1,85,1,1153,0,0.2422073,6.221744,2.169072,-1
21,F,0,1,22,4,2,88,4,1265,0,0.2018453,12.38703,0.9117159,-1
21,F,0,1,22,5,2,86,2,1687,2,0.3500404,12.34335,1.586836,-1
21,F,0,1,22,6,2,87,3,1231,0,0.3374736,12.16476,1.56648,-1
21,F,0,1,22,7,1,86,2,1354,0,0.3126934,6.553914,2.590197,-1
21,F,0,1,22,8,2,85,1,1709,1,0.5480408,12.28952,2.528091,-1
21,F,0,1,23,1,1,91,3,1553,0,1.423798E-07,6.159204,0,-1
21,F,0,1,23,2,1,90,2,2098,2,0.2544374,6.54357,2.102638,-1
21,F,0,1,23,3,2,89,1,1664,1,0.8587487,12.28506,3.964473,-1
21,F,0,1,23,4,1,92,4,1865,0,0.1085818,6.396521,0.9215358,-1
21,F,0,1,23,5,1,89,1,1287,0,0.1517901,6.210033,1.341151,-1
21,F,0,1,23,6,2,92,4,1442,0,0.841749,12.37617,3.798544,-1
21,F,0,1,23,7,2,90,2,1453,0,0.5249636,12.33449,2.365461,-1
21,F,0,1,23,8,2,91,3,1731,0,0.7715108,12.15954,3.60424,-1
21,F,0,1,24,1,2,96,4,1687,0,0.3176185,12.37725,1.43395,-1
21,F,0,1,24,2,2,94,2,3587,1,0.2710167,12.33755,1.224293,-1
21,F,0,1,24,3,1,95,3,1387,0,1.382324E-08,6.161051,0,-1
21,F,0,1,24,4,1,94,2,1042,0,0.5048756,6.54651,4.223826,-1
21,F,0,1,24,5,2,93,1,4909,1,0.3524416,12.29138,1.607665,-1
21,F,0,1,24,6,1,96,4,2531,1,0.325401,6.401351,2.809026,-1
21,F,0,1,24,7,2,95,3,3709,2,0.9619339,12.15068,4.519694,-1
21,F,0,1,24,8,1,93,1,3553,0,0.4800489,6.194703,4.294092,-1
21,F,0,1,25,1,1,99,3,1842,0,0.2554554,6.16213,2.256547,-1
21,F,0,1,25,2,1,97,1,1175,0,0.2309901,6.210398,2.073393,-1
21,F,0,1,25,3,1,100,4,1853,0,0.09681677,6.386231,0.8230571,-1
21,F,0,1,25,4,2,97,1,3875,0,0.6719152,12.29074,3.070967,-1
21,F,0,1,25,5,2,100,4,1320,0,0.148026,12.3906,0.6728944,-1
21,F,0,1,25,6,2,98,2,1087,0,0.899659,12.3414,4.044816,-1
21,F,0,1,25,7,2,99,3,1253,0,0.4899509,12.16763,2.258281,-1
21,F,0,1,25,8,1,98,2,1765,1,9.927966E-08,6.53935,0,-1
21,F,0,1,26,1,2,101,1,1087,0,0.9638339,12.28402,4.42868,-1
21,F,0,1,26,2,2,104,4,1653,0,0.1695413,12.38295,0.7717707,-1
21,F,0,1,26,3,2,102,2,1709,1,0.5979113,12.34494,2.68686,-1
21,F,0,1,26,4,1,101,1,3420,0,0.08098161,6.213831,0.7203645,-1
21,F,0,1,26,5,2,103,3,1498,1,0.0266684,12.15056,0.1235407,-1
21,F,0,1,26,6,1,104,4,2142,0,0.5474073,6.396904,4.732055,-1
21,F,0,1,26,7,1,103,3,2376,1,0.09334052,6.159009,0.8320423,-1
21,F,0,1,26,8,1,102,2,1076,0,0.2895924,6.54531,2.421639,-1
21,F,0,1,27,1,1,105,1,1398,0,0.3670036,6.193019,3.334896,-1
21,F,0,1,27,2,2,108,4,998,0,0.8117237,12.37648,3.696023,-1
21,F,0,1,27,3,1,106,2,1331,0,0.4050705,6.539701,3.391133,-1
21,F,0,1,27,4,1,107,3,3920,0,0.1046214,6.161566,0.9306217,-1
21,F,0,1,27,5,1,108,4,2820,0,0.278902,6.404604,2.405827,-1
21,F,0,1,27,6,2,106,2,1620,0,0.2071909,12.34186,0.9360726,-1
21,F,0,1,27,7,2,107,3,1764,0,0.7504104,12.15025,3.507606,-1
21,F,0,1,27,8,2,105,1,1064,0,0.9965441,12.28195,4.593333,-1
21,F,0,1,28,1,2,112,4,1076,0,0.1784277,12.38263,0.8060005,-1
21,F,0,1,28,2,1,111,3,1320,0,0.004003515,6.156885,0.02797646,-1
21,F,0,1,28,3,2,109,1,898,0,0.468352,12.28914,2.147945,-1
21,F,0,1,28,4,2,110,2,1076,0,0.4777682,12.33877,2.148127,-1
21,F,0,1,28,5,2,111,3,1042,0,0.8409271,12.14793,3.932036,-1
21,F,0,1,28,6,1,109,1,1654,0,0.08496012,6.216147,0.749649,-1
21,F,0,1,28,7,1,110,2,2554,3,0.1409387,6.540066,1.175032,-1
21,F,0,1,28,8,1,112,4,1820,0,0.2974498,6.397903,2.56895,-1
21,F,0,1,29,1,1,113,1,1287,0,0.3089145,6.218857,2.715196,-1
21,F,0,1,29,2,2,114,2,1364,0,0.7201715,12.41207,3.240028,-1
21,F,0,1,29,3,2,115,3,1220,0,0.5019624,12.2367,2.328265,-1
21,F,0,1,29,4,2,113,1,931,0,1.001025,12.35926,4.50263,-1
21,F,0,1,29,5,1,114,2,1031,0,0.4320616,6.584,3.593522,-1
21,F,0,1,29,6,2,116,4,1387,0,0.763217,12.44126,3.48071,-1
21,F,0,1,29,7,1,115,3,1831,0,0.103272,6.209749,0.9164255,-1
21,F,0,1,29,8,1,116,4,2887,0,0.3075561,6.425977,2.586113,-1
21,F,0,1,30,1,2,117,1,887,0,0.2417907,12.34613,1.101096,-1
21,F,0,1,30,2,2,120,4,1420,0,0.03153327,12.42845,0.1440177,-1
21,F,0,1,30,3,1,118,2,1331,0,0.2653455,6.587582,2.204869,-1
21,F,0,1,30,4,1,119,3,954,0,1.49805E-07,6.214011,0,-1
21,F,0,1,30,5,1,120,4,1653,0,0.2182318,6.42761,1.875445,-1
21,F,0,1,30,6,2,119,3,1076,0,0.9788229,12.21802,4.552211,-1
21,F,0,1,30,7,2,118,2,1120,0,0.3871405,12.38516,1.736861,-1
21,F,0,1,30,8,1,117,1,1187,0,4.703801E-08,6.260827,0,-1
21,F,0,1,31,1,2,122,2,998,0,0.2313731,12.37871,1.045114,-1
21,F,0,1,31,2,1,124,4,1742,0,0.2065077,6.432199,1.772109,-1
21,F,0,1,31,3,1,122,2,1297,0,0.2911909,6.581481,2.399391,-1
21,F,0,1,31,4,2,121,1,1398,0,0.6423537,12.33429,2.924024,-1
21,F,0,1,31,5,1,123,3,3342,0,0.1867112,6.219096,1.64687,-1
21,F,0,1,31,6,2,124,4,1198,0,0.05474585,12.43383,0.2462884,-1
21,F,0,1,31,7,2,123,3,1031,0,0.3504063,12.21788,1.621844,-1
21,F,0,1,31,8,1,121,1,1087,0,0.2284671,6.25454,2.033554,-1
21,F,0,1,32,1,1,128,4,2187,0,0.2275884,6.43215,1.954646,-1
21,F,0,1,32,2,2,126,2,1153,0,0.2357348,12.38177,1.06091,-1
21,F,0,1,32,3,1,125,1,2965,0,8.025099E-08,6.252796,0,-1
21,F,0,1,32,4,1,127,3,1742,0,0.3559673,6.210774,3.153433,-1
21,F,0,1,32,5,2,125,1,1664,1,0.8578977,12.33489,3.944666,-1
21,F,0,1,32,6,1,126,2,1831,0,0.42974,6.581192,3.575824,-1
21,F,0,1,32,7,2,128,4,2265,2,0.8806278,12.42938,3.956067,-1
21,F,0,1,32,8,2,127,3,1220,0,0.2799244,12.20935,1.293012,-1
21,F,0,1,33,1,2,130,2,3520,3,0.7871218,12.37244,3.536679,-1
21,F,0,1,33,2,1,129,1,2798,0,0.1277983,6.266953,1.117501,-1
21,F,0,1,33,3,1,132,4,3942,0,0.3309019,6.427879,2.780448,-1
21,F,0,1,33,4,1,130,2,1309,0,0.1680427,6.587039,1.385645,-1
21,F,0,1,33,5,1,131,3,1842,0,0.2039867,6.210257,1.806453,-1
21,F,0,1,33,6,2,132,4,1631,1,0.4401023,12.4302,1.977244,-1
21,F,0,1,33,7,2,131,3,953,0,0.3365359,12.22184,1.560974,-1
21,F,0,1,33,8,2,129,1,3309,0,0.4875263,12.34169,2.227038,-1
21,F,0,1,34,1,1,135,3,1365,0,0.01274026,6.203395,0.1136409,-1
21,F,0,1,34,2,2,136,4,976,0,0.6045704,12.42979,2.713898,-1
21,F,0,1,34,3,1,133,1,1120,0,1.313601E-07,6.26015,0,-1
21,F,0,1,34,4,2,135,3,1642,1,0.02661723,12.20227,0.1219466,-1
21,F,0,1,34,5,2,134,2,1154,0,0.4859256,12.38034,2.191871,-1
21,F,0,1,34,6,2,133,1,1087,0,0.5546016,12.32827,2.533968,-1
21,F,0,1,34,7,1,136,4,3109,0,0.0258867,6.438633,0.2193969,-1
21,F,0,1,34,8,1,134,2,2409,0,0.5429987,6.584839,4.499454,-1
21,F,0,1,35,1,2,140,4,1776,0,0.832436,12.41734,3.748051,-1
21,F,0,1,35,2,2,139,3,1853,0,0.7796561,12.21168,3.62774,-1
21,F,0,1,35,3,1,138,2,1009,0,0.3420112,6.58742,2.842485,-1
21,F,0,1,35,4,2,137,1,987,0,0.9496573,12.32707,4.287473,-1
21,F,0,1,35,5,2,138,2,4420,2,1.035843,12.38426,4.632569,-1
21,F,0,1,35,6,1,137,1,964,0,0.4400073,6.252354,3.848987,-1
21,F,0,1,35,7,1,139,3,2887,0,0.08014251,6.202098,0.7072059,-1
21,F,0,1,35,8,1,140,4,2431,0,0.4307266,6.433821,3.700258,-1
21,F,0,1,37,1,4,145,1,898,0,0.9129806,12.34731,4.117515,-1
21,F,0,1,37,2,3,147,3,2076,0,0.08964349,6.182127,0.7895671,-1
21,F,0,1,37,3,3,145,1,1187,0,0.4587134,6.26188,3.984477,-1
21,F,0,1,37,4,4,146,2,1498,0,0.2537475,12.38296,1.141753,-1
21,F,0,1,37,5,4,147,3,1231,0,0.5039166,12.17884,2.342262,-1
21,F,0,1,37,6,4,148,4,1809,0,0.6379371,12.44371,2.868671,-1
21,F,0,1,37,7,3,146,2,1931,0,0.375315,6.587308,3.119666,-1
21,F,0,1,37,8,3,148,4,2487,1,0.2302892,6.439074,1.959946,-1
21,F,0,1,38,1,4,151,3,1131,0,0.1618068,12.19538,0.7465102,-1
21,F,0,1,38,2,4,150,2,1420,0,1.766473E-07,12.40437,0,-1
21,F,0,1,38,3,3,149,1,1142,0,0.04411883,6.235324,0.3876539,-1
21,F,0,1,38,4,3,151,3,1842,0,0.07543612,6.170291,0.6696879,-1
21,F,0,1,38,5,4,152,4,2353,0,0.2312228,12.44919,1.040423,-1
21,F,0,1,38,6,4,149,1,3976,0,0.3503633,12.33886,1.585603,-1
21,F,0,1,38,7,3,152,4,2298,0,1.982684E-07,6.436112,0,-1
21,F,0,1,38,8,3,150,2,2053,1,0.0889812,6.570197,0.7359507,-1
21,F,0,1,39,1,3,156,4,2787,0,0.2262734,6.447911,1.948127,-1
21,F,0,1,39,2,3,154,2,1365,0,0.5180302,6.59622,4.320782,-1
21,F,0,1,39,3,3,155,3,2720,0,1.395506E-07,6.199264,0,-1
21,F,0,1,39,4,3,153,1,1042,0,0.4226713,6.232015,3.668051,-1
21,F,0,1,39,5,4,154,2,976,0,0.8255715,12.39563,3.711671,-1
21,F,0,1,39,6,4,155,3,1165,0,0.5706024,12.19887,2.618083,-1
21,F,0,1,39,7,4,156,4,1364,0,0.5896382,12.40992,2.684017,-1
21,F,0,1,39,8,4,153,1,1131,0,0.1958837,12.37022,0.8924097,-1
21,F,0,1,40,1,3,159,3,3109,0,0.08640695,6.189839,0.7633579,-1
21,F,0,1,40,2,4,158,2,3998,0,0.7177098,12.37775,3.223065,-1
21,F,0,1,40,3,4,160,4,1642,0,0.009809021,12.42381,0.04423466,-1
21,F,0,1,40,4,3,158,2,2298,0,0.4632247,6.588002,3.843743,-1
21,F,0,1,40,5,4,157,1,1664,1,0.5983279,12.36727,2.740597,-1
21,F,0,1,40,6,4,159,3,975,0,0.5423359,12.20448,2.517228,-1
21,F,0,1,40,7,3,160,4,3631,0,0.02257562,6.438975,0.1897456,-1
21,F,0,1,40,8,3,157,1,1898,0,0.2407202,6.242791,2.10152,-1
21,F,0,1,41,1,1,163,3,2520,0,0.4913683,6.208578,4.34821,-1
21,F,0,1,41,2,1,161,1,2331,0,0.5218441,6.268394,4.555093,-1
21,F,0,1,41,3,1,162,2,1176,0,0.242306,6.584948,2.014311,-1
21,F,0,1,41,4,2,164,4,1209,0,0.2933864,12.4147,1.337644,-1
21,F,0,1,41,5,2,161,1,698,0,0.6441835,12.34624,2.895499,-1
21,F,0,1,41,6,2,163,3,887,0,0.4547131,12.21995,2.111276,-1
21,F,0,1,41,7,1,164,4,2264,0,0.2901533,6.425102,2.440559,-1
21,F,0,1,41,8,2,162,2,1109,0,0.7088844,12.38659,3.181247,-1
21,F,0,1,42,1,2,165,1,1687,0,0.7317258,12.32883,3.295506,-1
21,F,0,1,42,2,2,167,3,1176,0,0.7302259,12.20781,3.397305,-1
21,F,0,1,42,3,2,168,4,2142,0,0.6424697,12.43192,2.917456,-1
21,F,0,1,42,4,2,166,2,1031,0,1.796408E-07,12.38095,0,-1
21,F,0,1,42,5,1,167,3,3164,0,0.2489744,6.203038,2.20096,-1
21,F,0,1,42,6,1,168,4,1787,0,0.06490597,6.427071,0.5489398,-1
21,F,0,1,42,7,1,166,2,2309,2,6.994722E-08,6.589167,0,-1
21,F,0,1,42,8,1,165,1,1287,0,0.2010756,6.259997,1.763807,-1
21,F,0,1,43,1,1,171,3,1420,0,6.770244E-08,6.206371,0,-1
21,F,0,1,43,2,2,169,1,1009,0,0.5475316,12.33039,2.474409,-1
21,F,0,1,43,3,1,172,4,2642,0,0.1376794,6.432123,1.153857,-1
21,F,0,1,43,4,1,169,1,1331,0,0.1713138,6.260172,1.497633,-1
21,F,0,1,43,5,2,172,4,2487,0,0.400774,12.42068,1.817685,-1
21,F,0,1,43,6,1,170,2,1176,0,0.4536157,6.579716,3.775691,-1
21,F,0,1,43,7,2,171,3,1965,0,0.9543011,12.21077,4.434558,-1
21,F,0,1,43,8,2,170,2,876,0,1.024166,12.38222,4.600322,-1
21,F,0,1,44,1,2,175,3,1887,0,0.2675155,12.20049,1.231782,-1
21,F,0,1,44,2,1,173,1,987,0,0.3946342,6.258195,3.434332,-1
21,F,0,1,44,3,1,175,3,1331,0,0.2182323,6.205271,1.914791,-1
21,F,0,1,44,4,2,176,4,2076,0,0.237257,12.41818,1.079197,-1
21,F,0,1,44,5,2,174,2,1109,0,0.9891645,12.38076,4.442899,-1
21,F,0,1,44,6,1,176,4,2142,0,0.05021811,6.429079,0.4288719,-1
21,F,0,1,44,7,2,173,1,1076,0,0.05869021,12.33203,0.2661444,-1
21,F,0,1,44,8,1,174,2,2120,1,0.1063687,6.575963,0.8813781,-1
21,F,0,1,45,1,2,180,4,1009,0,1.043038,12.42566,4.765181,-1
21,F,0,1,45,2,1,178,2,754,0,0.3608278,6.559904,3.011099,-1
21,F,0,1,45,3,1,179,3,1587,0,1.676841E-08,6.209548,0.01978234,-1
21,F,0,1,45,4,2,178,2,1120,0,0.5113963,12.36423,2.298399,-1
21,F,0,1,45,5,1,180,4,1809,0,0.4278006,6.43667,3.674184,-1
21,F,0,1,45,6,1,177,1,1065,0,0.3521602,6.244534,3.145041,-1
21,F,0,1,45,7,2,179,3,3209,0,0.5758584,12.22454,2.680368,-1
21,F,0,1,45,8,2,177,1,764,0,0.6497699,12.32733,2.988782,-1
21,F,0,1,46,1,2,183,3,1453,0,0.3443041,12.20775,1.594832,-1
21,F,0,1,46,2,2,182,2,1220,0,0.7428652,12.36527,3.339472,-1
21,F,0,1,46,3,2,184,4,1376,0,0.331617,12.4281,1.488721,-1
21,F,0,1,46,4,1,182,2,2109,1,0.09828919,6.578865,0.8187665,-1
21,F,0,1,46,5,2,181,1,1531,1,0.6586614,12.3193,2.968408,-1
21,F,0,1,46,6,1,183,3,2431,0,0.02943298,6.220007,0.2594432,-1
21,F,0,1,46,7,1,184,4,2542,0,0.06668063,6.439722,0.5695826,-1
21,F,0,1,46,8,1,181,1,1109,0,2.99846E-08,6.253335,0,-1
21,F,0,1,47,1,2,187,3,1309,0,0.3358978,12.20423,1.556077,-1
21,F,0,1,47,2,2,185,1,1598,1,0.6238279,12.32732,2.810488,-1
21,F,0,1,47,3,2,188,4,1253,0,0.1502156,12.42381,0.6772422,-1
21,F,0,1,47,4,1,186,2,1442,0,0.2904281,6.583002,2.40664,-1
21,F,0,1,47,5,1,188,4,1576,0,0.07543942,6.437523,0.6370438,-1
21,F,0,1,47,6,1,185,1,998,0,1.718339E-07,6.23711,0,-1
21,F,0,1,47,7,2,186,2,1031,0,0.975557,12.37095,4.394628,-1
21,F,0,1,47,8,1,187,3,2031,0,1.100918E-07,6.215189,0,-1
21,F,0,1,48,1,2,190,2,1998,2,0.8003904,12.37878,3.610482,-1
21,F,0,1,48,2,1,192,4,1720,0,0.06564532,6.447698,0.5574291,-1
21,F,0,1,48,3,1,189,1,1053,0,1.572932E-07,6.248598,0.01978234,-1
21,F,0,1,48,4,1,191,3,1709,0,0.134277,6.213785,1.189597,-1
21,F,0,1,48,5,2,192,4,1098,0,0.5954719,12.43102,2.673568,-1
21,F,0,1,48,6,2,191,3,1120,0,0.5123457,12.20928,2.382445,-1
21,F,0,1,48,7,1,190,2,1409,0,0.217713,6.584326,1.8097,-1
21,F,0,1,48,8,2,189,1,1220,0,0.7612793,12.32097,3.452583,-1
21,F,0,1,49,1,1,194,2,809,0,0.2256503,6.567478,1.880448,-1
21,F,0,1,49,2,1,193,1,876,0,0.05209822,6.249756,0.4584226,-1
21,F,0,1,49,3,2,194,2,887,0,0.7434742,12.36904,3.337537,-1
21,F,0,1,49,4,2,193,1,909,0,0.7799554,12.32717,3.515635,-1
21,F,0,1,49,5,1,196,4,1376,0,0.03800194,6.443286,0.3226406,-1
21,F,0,1,49,6,1,195,3,1731,0,0.1504598,6.220188,1.329279,-1
21,F,0,1,49,7,2,196,4,920,0,0.5868286,12.42291,2.636336,-1
21,F,0,1,49,8,2,195,3,887,0,0.8647099,12.20822,4.040942,-1
21,F,0,1,50,1,2,197,1,842,0,0.4986543,12.33425,2.246638,-1
21,F,0,1,50,2,1,200,4,1364,0,0.4394563,6.444364,3.769878,-1
21,F,0,1,50,3,1,197,1,2842,0,0.1920174,6.246672,1.681094,-1
21,F,0,1,50,4,1,199,3,1231,0,0.03040402,6.216387,0.2676108,-1
21,F,0,1,50,5,1,198,2,1087,0,0.3428073,6.575491,2.854099,-1
21,F,0,1,50,6,2,200,4,965,0,1.870227E-07,12.43219,0,-1
21,F,0,1,50,7,2,198,2,909,0,0.4992775,12.3698,2.248989,-1
21,F,0,1,50,8,2,199,3,1287,0,0.7799692,12.19415,3.632918,-1
21,F,0,1,51,1,1,204,4,1931,0,0.3585775,6.442837,3.076126,-1
21,F,0,1,51,2,1,202,2,1487,0,9.886248E-09,6.58583,0,-1
21,F,0,1,51,3,1,201,1,1265,0,0.05076464,6.231543,0.4498048,-1
21,F,0,1,51,4,2,204,4,1298,0,0.1377074,12.42598,0.6192883,-1
21,F,0,1,51,5,1,203,3,2798,0,1.105823E-07,6.219452,0,-1
21,F,0,1,51,6,2,201,1,698,0,0.0714893,12.32959,0.3262592,-1
21,F,0,1,51,7,2,203,3,920,0,0.2460993,12.20887,1.137804,-1
21,F,0,1,51,8,2,202,2,965,0,1.020082,12.36653,4.58753,-1
21,F,0,1,52,1,1,205,1,1009,0,0.3542916,6.237249,3.097941,-1
21,F,0,1,52,2,2,208,4,1065,0,0.6631991,12.42875,2.972165,-1
21,F,0,1,52,3,1,206,2,1465,1,0.291834,6.566887,2.432526,-1
21,F,0,1,52,4,1,208,4,1642,0,0.5231646,6.44208,4.400908,-1
21,F,0,1,52,5,2,207,3,1020,0,0.4835213,12.21367,2.244371,-1
21,F,0,1,52,6,2,205,1,865,0,0.9134579,12.33233,4.115944,-1
21,F,0,1,52,7,2,206,2,876,0,0.2332555,12.37372,1.051461,-1
21,F,0,1,52,8,1,207,3,1331,0,0.1366216,6.214414,1.203498,-1
21,F,0,1,53,1,2,210,2,3054,0,0.6252829,12.45032,2.786075,-1
21,F,0,1,53,2,1,211,3,976,0,0.2290806,6.278162,2.001836,-1
21,F,0,1,53,3,1,212,4,1676,0,0.5484968,6.486281,4.675794,-1
21,F,0,1,53,4,2,211,3,1065,0,8.010418E-08,12.29177,0,-1
21,F,0,1,53,5,1,209,1,920,0,0.4141664,6.325683,3.567272,-1
21,F,0,1,53,6,2,212,4,820,0,1.176175E-07,12.50758,0,-1
21,F,0,1,53,7,1,210,2,2531,0,0.2156922,6.627292,1.781581,-1
21,F,0,1,53,8,2,209,1,776,0,0.9502262,12.39755,4.258644,-1
21,F,0,1,54,1,2,216,4,1176,0,0.08718679,12.50319,0.3921704,-1
21,F,0,1,54,2,2,213,1,1487,2,0.3729276,12.38787,1.691307,-1
21,F,0,1,54,3,1,216,4,2398,0,0.167725,6.500219,1.421477,-1
21,F,0,1,54,4,2,215,3,1165,0,0.6993716,12.29471,3.207721,-1
21,F,0,1,54,5,2,214,2,853,0,0.5281309,12.43583,2.363226,-1
21,F,0,1,54,6,1,213,1,1398,0,1.137488E-07,6.310702,0,-1
21,F,0,1,54,7,1,214,2,1453,1,0.5116089,6.633985,4.225031,-1
21,F,0,1,54,8,1,215,3,1187,0,0.2506224,6.286484,2.193567,-1
21,F,0,1,55,1,2,218,2,887,0,0.3368293,12.42726,1.514912,-1
21,F,0,1,55,2,2,220,4,1209,0,0.8934407,12.48759,4.060473,-1
21,F,0,1,55,3,1,217,1,1865,1,1.964161E-07,6.306639,0,-1
21,F,0,1,55,4,1,219,3,1053,0,0.04349453,6.274371,0.3789758,-1
21,F,0,1,55,5,1,218,2,1298,1,0.1075722,6.633724,0.8875727,-1
21,F,0,1,55,6,2,217,1,2598,3,0.5523109,12.3805,2.529562,-1
21,F,0,1,55,7,2,219,3,1187,0,0.3838705,12.26581,1.776301,-1
21,F,0,1,55,8,1,220,4,2920,0,0.09010196,6.487549,0.7643827,-1
21,F,0,1,56,1,2,223,3,2454,0,0.222206,12.27861,1.022016,-1
21,F,0,1,56,2,2,224,4,1009,0,0.7573234,12.49845,3.380088,-1
21,F,0,1,56,3,1,223,3,3364,0,0.2102002,6.279099,1.836004,-1
21,F,0,1,56,4,2,221,1,1920,0,0.609358,12.39486,2.732873,-1
21,F,0,1,56,5,1,222,2,2098,1,0.5496796,6.626901,4.544761,-1
21,F,0,1,56,6,1,224,4,2920,1,0.2863915,6.490863,2.435983,-1
21,F,0,1,56,7,2,222,2,1309,0,0.2862206,12.43663,1.281,-1
21,F,0,1,56,8,1,221,1,1442,0,4.340136E-08,6.30374,0,-1
21,F,0,1,57,1,4,226,2,1831,2,0.7009058,12.44897,3.142612,-1
21,F,0,1,57,2,4,227,3,987,0,0.3354553,12.27991,1.54459,-1
21,F,0,1,57,3,3,226,2,1976,1,0.04001194,6.614731,0.3304307,-1
21,F,0,1,57,4,3,228,4,2087,0,0.1127034,6.500855,0.9501812,-1
21,F,0,1,57,5,3,225,1,1142,0,8.562824E-08,6.269291,0,-1
21,F,0,1,57,6,4,228,4,2020,0,0.2099827,12.51002,0.9404523,-1
21,F,0,1,57,7,3,227,3,2098,0,0.1016123,6.249355,0.8917516,-1
21,F,0,1,57,8,4,225,1,1287,0,0.9835383,12.37926,4.413751,-1
21,F,0,1,58,1,3,232,4,1553,0,0.2298055,6.496343,1.9434,-1
21,F,0,1,58,2,3,230,2,1376,0,0.1636263,6.643606,1.352484,-1
21,F,0,1,58,3,3,231,3,2153,0,0.1666001,6.271844,1.457368,-1
21,F,0,1,58,4,3,229,1,920,0,0.3460753,6.300924,3.006805,-1
21,F,0,1,58,5,4,231,3,2009,0,0.07201878,12.28374,0.3304307,-1
21,F,0,1,58,6,4,232,4,1842,0,0.3300437,12.50807,1.492003,-1
21,F,0,1,58,7,4,229,1,965,0,0.6020923,12.38808,2.711517,-1
21,F,0,1,58,8,4,230,2,1042,0,0.3658384,12.44416,1.661775,-1
21,F,0,1,59,1,4,236,4,931,0,0.4898719,12.47252,2.183192,-1
21,F,0,1,59,2,3,233,1,1065,0,0.2403541,6.288327,2.089097,-1
21,F,0,1,59,3,4,235,3,1365,0,0.388581,12.27368,1.791659,-1
21,F,0,1,59,4,3,234,2,1953,0,0.2123985,6.637919,1.758807,-1
21,F,0,1,59,5,4,233,1,842,0,0.6702871,12.38986,3.011554,-1
21,F,0,1,59,6,3,235,3,1164,0,0.007587336,6.252249,0.0656106,-1
21,F,0,1,59,7,4,234,2,798,0,0.203154,12.43099,0.9187712,-1
21,F,0,1,59,8,3,236,4,3087,0,0.1689246,6.495822,1.438855,-1
21,F,0,1,60,1,3,237,1,1587,1,8.543897E-08,6.276825,0,-1
21,F,0,1,60,2,3,238,2,3142,0,0.410992,6.611765,3.355905,-1
21,F,0,1,60,3,3,239,3,2309,0,1.057775E-07,6.24911,0,-1
21,F,0,1,60,4,4,238,2,1053,0,1.794612E-07,12.42652,0,-1
21,F,0,1,60,5,3,240,4,2720,0,0.05537777,6.506035,0.4668813,-1
21,F,0,1,60,6,4,239,3,1009,0,0.945235,12.29672,4.389633,-1
21,F,0,1,60,7,4,240,4,1420,0,0.6782569,12.47393,3.028925,-1
21,F,0,1,60,8,4,237,1,1287,0,1.014327,12.38078,4.661654,-1
21,F,0,1,61,1,1,242,2,842,0,7.223954E-08,6.63526,0,-1
21,F,0,1,61,2,1,243,3,976,0,0.4296007,6.256313,3.849953,-1
21,F,0,1,61,3,2,242,2,1676,1,0.7166856,12.43253,3.218749,-1
21,F,0,1,61,4,2,244,4,1176,0,0.3601566,12.48131,1.634944,-1
21,F,0,1,61,5,1,241,1,1376,0,0.3298579,6.302335,2.854922,-1
21,F,0,1,61,6,1,244,4,1553,0,0.3103747,6.480328,2.646341,-1
21,F,0,1,61,7,2,243,3,1231,0,0.8123578,12.27726,3.758798,-1
21,F,0,1,61,8,2,241,1,2009,2,1.020896,12.38775,4.676464,-1
21,F,0,1,62,1,1,246,2,1031,0,0.01342589,6.63344,0.1119058,-1
21,F,0,1,62,2,1,248,4,1798,0,0.2576692,6.475868,2.194548,-1
21,F,0,1,62,3,2,246,2,1187,0,0.6254451,12.43848,2.832551,-1
21,F,0,1,62,4,2,245,1,1165,0,0.2399809,12.38285,1.095573,-1
21,F,0,1,62,5,1,247,3,1442,0,0.1454292,6.260952,1.269491,-1
21,F,0,1,62,6,2,248,4,1220,0,0.7543674,12.486,3.391999,-1
21,F,0,1,62,7,2,247,3,1920,1,0.7135374,12.27675,3.301085,-1
21,F,0,1,62,8,1,245,1,1020,0,0.3412284,6.31711,2.954461,-1
21,F,0,1,1,1,5,4,4,5819,0,5.853158,6.555318,63.2383,-1
21,F,0,1,1,2,8,3,3,5276,0,2.883059,12.34902,13.44308,-1
21,F,0,1,1,3,7,1,1,5342,0,1.811107,6.350708,16.19603,-1
21,F,0,1,1,4,6,4,4,7242,0,4.38849,12.55024,20.19753,-1
21,F,0,1,1,5,8,2,2,3231,0,2.999475,12.52894,13.51686,-1
21,F,0,1,1,6,7,3,3,3553,0,1.553061,6.322705,13.68906,-1
21,F,0,1,1,7,5,1,1,2376,0,2.029308,6.38047,18.50927,-1
21,F,0,1,1,8,6,2,2,2364,0,4.440138,12.48994,20.63677,-1
21,F,0,1,1,9,5,3,3,4509,0,2.025553,6.337404,17.93592,-1
21,F,0,1,1,10,6,1,1,2409,0,0.94473,12.44652,4.219837,-1
21,F,0,1,1,11,7,4,4,3498,0,2.058589,6.535111,17.67964,-1
21,F,0,1,1,12,7,2,2,1442,0,2.152013,6.684905,17.88241,-1
21,F,0,1,1,13,8,4,4,5198,0,6.367051,12.53539,30.52579,-1
21,F,0,1,1,14,5,2,2,4164,0,3.447061,6.684563,30.81489,-1
21,F,0,1,1,15,6,3,3,1320,0,4.646747,12.23076,22.32891,-1
21,F,0,1,1,16,8,1,1,4898,0,11.41882,12.42614,66.7709,-1
21,F,0,1,2,1,7,3,3,1809,0,5.444466,6.295525,59.86161,-1
21,F,0,1,2,2,7,1,1,2031,0,1.035606,6.300216,8.95958,-1
21,F,0,1,2,3,7,4,4,2364,0,3.644223,6.490002,32.77917,-1
21,F,0,1,2,4,7,2,2,1598,0,2.712571,6.631203,22.96104,-1
21,F,0,1,2,5,8,3,3,5342,0,2.702502,12.30185,12.62701,-1
21,F,0,1,2,6,6,1,1,1109,0,1.932052,12.40342,8.674642,-1
21,F,0,1,2,7,5,3,3,4665,0,5.776915,6.318842,66.09751,-1
21,F,0,1,2,8,6,4,4,6342,0,10.1589,12.50576,54.32495,-1
21,F,0,1,2,9,5,1,1,3353,0,1.621692,6.324964,14.19673,-1
21,F,0,1,2,10,8,2,2,1165,0,3.032809,12.49148,13.7072,-1
21,F,0,1,2,11,5,4,4,1442,0,5.115986,6.509106,51.37252,-1
21,F,0,1,2,12,5,2,2,2453,0,5.621227,6.652559,57.66895,-1
21,F,0,1,2,13,8,1,1,1864,0,0.7807986,12.42014,3.506657,-1
21,F,0,1,2,14,8,4,4,2898,0,6.110402,12.50355,29.25473,-1
21,F,0,1,2,15,6,3,3,1209,0,3.727624,12.29502,17.64879,-1
21,F,0,1,2,16,6,2,2,3687,0,2.742778,12.44557,12.34076,-1
