Age, Gender, Awareness Type, Session, Block, Trial, Set, Pattern, Quadrant, Response Time, Num Mistakes, Distance From Target, Camera Distance From Target, Angle Error (Degrees), FC Response
19,F,0,1,1,1,1,1,1,2864,0,0.381126,6.291494,3.318535,-1
19,F,0,1,1,2,1,3,3,9999,4,-1,-1,-1,-1
19,F,0,1,1,3,2,2,2,1764,0,0.1462087,12.4586,0.6602717,-1
19,F,0,1,1,4,1,4,4,4097,0,0.02716521,6.542117,0.2264194,-1
19,F,0,1,1,5,2,1,1,2365,0,0.5931737,12.25616,2.748728,-1
19,F,0,1,1,6,1,2,2,3841,0,0.1726396,6.635686,1.418169,-1
19,F,0,1,1,7,2,4,4,1887,0,0.4543858,12.38682,2.027965,-1
19,F,0,1,1,8,2,3,3,2553,0,0.4974055,12.33556,2.252814,-1
19,F,0,1,2,1,2,8,4,2209,0,0.4543384,12.39003,2.027096,-1
19,F,0,1,2,2,2,6,2,2409,0,0.9988717,12.46271,4.558746,-1
19,F,0,1,2,3,1,8,4,7809,1,0.1967828,6.557287,1.625219,-1
19,F,0,1,2,4,2,5,1,3442,1,0.2218085,12.2537,1.020291,-1
19,F,0,1,2,5,1,6,2,3076,0,0.4620487,6.638709,3.820647,-1
19,F,0,1,2,6,2,7,3,3219,0,0.4723947,12.34014,2.138631,-1
19,F,0,1,2,7,1,5,1,3220,1,0.3067827,6.26924,2.669318,-1
19,F,0,1,2,8,1,7,3,3565,0,0.2020342,6.256024,1.775309,-1
19,F,0,1,3,1,1,9,1,1598,0,0.486884,6.27915,4.208078,-1
19,F,0,1,3,2,2,12,4,2187,0,0.5372913,12.39024,2.455032,-1
19,F,0,1,3,3,2,9,1,2331,0,0.1215842,12.26806,0.55778,-1
19,F,0,1,3,4,2,10,2,1331,0,0.8404318,12.46109,3.765772,-1
19,F,0,1,3,5,1,11,3,3664,0,0.4158319,6.257761,3.692895,-1
19,F,0,1,3,6,1,12,4,5020,0,0.3634034,6.546632,3.06286,-1
19,F,0,1,3,7,2,11,3,5342,2,0.8259583,12.09573,3.858641,-1
19,F,0,1,3,8,1,10,2,3042,0,0.4976257,6.621459,4.136496,-1
19,F,0,1,4,1,1,16,4,2731,1,0.2028492,6.546157,1.703528,-1
19,F,0,1,4,2,2,13,1,5509,1,0.3206414,12.06725,1.499069,-1
19,F,0,1,4,3,1,15,3,2765,0,0.3841751,6.269119,3.348839,-1
19,F,0,1,4,4,2,14,2,1886,0,0.4529762,12.45823,2.052331,-1
19,F,0,1,4,5,1,13,1,2031,1,0.4374977,6.272514,3.816493,-1
19,F,0,1,4,6,2,16,4,1764,0,0.4612048,12.39377,2.062035,-1
19,F,0,1,4,7,1,14,2,2564,1,0.3745658,6.629202,3.083372,-1
19,F,0,1,4,8,2,15,3,2664,0,6.505395E-08,12.34701,0,-1
19,F,0,1,5,1,1,18,2,3153,0,0.1206579,6.634146,0.9972074,-1
19,F,0,1,5,2,1,17,1,4942,3,0.1135018,6.27326,1.001711,-1
19,F,0,1,5,3,2,18,2,2275,1,0.2987909,12.43352,1.352195,-1
19,F,0,1,5,4,2,19,3,1897,0,0.7259578,12.34806,3.321424,-1
19,F,0,1,5,5,2,17,1,2254,1,0.826912,12.25598,3.836655,-1
19,F,0,1,5,6,1,20,4,2853,0,0.3705503,6.562132,3.116401,-1
19,F,0,1,5,7,1,19,3,2453,0,1.167139E-08,6.267218,0,-1
19,F,0,1,5,8,2,20,4,4886,1,0.2413639,12.39693,1.097714,-1
19,F,0,1,6,1,1,23,3,3309,0,0.09771603,6.269,0.85638,-1
19,F,0,1,6,2,2,21,1,4864,1,0.706796,12.21154,3.287238,-1
19,F,0,1,6,3,1,22,2,4786,0,1.23473E-07,6.645615,0,-1
19,F,0,1,6,4,1,21,1,1775,0,0.4139636,6.273032,3.57982,-1
19,F,0,1,6,5,1,24,4,2309,0,0.1059013,6.569858,0.8888945,-1
19,F,0,1,6,6,2,23,3,5208,0,0.3433482,12.35849,1.568977,-1
19,F,0,1,6,7,2,24,4,2275,1,0.1708322,12.41085,0.7661725,-1
19,F,0,1,6,8,2,22,2,4031,0,0.4539653,12.47024,2.054999,-1
19,F,0,1,7,1,2,25,1,1897,0,0.830622,12.2686,3.857676,-1
19,F,0,1,7,2,1,28,4,2409,0,0.4070076,6.576568,3.415926,-1
19,F,0,1,7,3,2,27,3,3009,1,0.3428273,12.36539,1.565981,-1
19,F,0,1,7,4,1,26,2,2609,1,0.2060372,6.651099,1.726918,-1
19,F,0,1,7,5,1,25,1,3531,3,0.2663938,6.26241,2.329022,-1
19,F,0,1,7,6,2,26,2,7931,0,0.534913,12.45382,2.393265,-1
19,F,0,1,7,7,2,28,4,2298,1,0.7728026,12.39996,3.523645,-1
19,F,0,1,7,8,1,27,3,3898,0,0.1380272,6.291222,1.207394,-1
19,F,0,1,8,1,1,32,4,3953,2,0.09639208,6.577221,0.8047857,-1
19,F,0,1,8,2,2,29,1,4353,6,0.9089813,12.04408,4.300928,-1
19,F,0,1,8,3,2,31,3,4364,1,0.8459965,12.35993,3.872723,-1
19,F,0,1,8,4,1,30,2,2720,0,0.3298547,6.649447,2.722323,-1
19,F,0,1,8,5,1,29,1,3697,3,0.5192444,6.293429,4.502978,-1
19,F,0,1,8,6,2,30,2,2997,0,0.5335174,12.47699,2.397106,-1
19,F,0,1,8,7,2,32,4,2542,0,0.4900535,12.41075,2.217173,-1
19,F,0,1,8,8,1,31,3,3319,0,0.1643154,6.273092,1.456965,-1
19,F,0,1,9,1,2,34,2,1820,0,0.4121887,12.48409,1.844511,-1
19,F,0,1,9,2,1,33,1,4042,4,0.4846451,6.288986,4.222898,-1
19,F,0,1,9,3,2,36,4,2164,0,0.1575814,12.41605,0.711894,-1
19,F,0,1,9,4,2,33,1,2187,1,1.044345,12.27403,4.863209,-1
19,F,0,1,9,5,1,36,4,3409,0,0.01128295,6.591438,0.09278741,-1
19,F,0,1,9,6,1,35,3,3342,0,0.149557,6.280386,1.323526,-1
19,F,0,1,9,7,1,34,2,2920,1,0.2887442,6.658101,2.378746,-1
19,F,0,1,9,8,2,35,3,4364,1,0.3632486,12.36137,1.65989,-1
19,F,0,1,10,1,1,40,4,2653,0,0.1622702,6.581366,1.35205,-1
19,F,0,1,10,2,1,38,2,3109,0,0.1398092,6.662431,1.143294,-1
19,F,0,1,10,3,1,37,1,4876,5,0.4582861,6.139769,4.20426,-1
19,F,0,1,10,4,2,38,2,2531,1,0.5384105,12.42754,2.445766,-1
19,F,0,1,10,5,2,39,3,3586,0,0.4647731,12.37188,2.121726,-1
19,F,0,1,10,6,2,40,4,2098,0,0.676706,12.43586,3.007326,-1
19,F,0,1,10,7,2,37,1,1720,0,0.6979249,12.27066,3.240813,-1
19,F,0,1,10,8,1,39,3,3431,0,0.06383244,6.293317,0.5581307,-1
19,F,0,1,11,1,2,41,1,2920,4,0.4004192,12.26817,1.840369,-1
19,F,0,1,11,2,1,42,2,2253,0,0.2246639,6.646628,1.854352,-1
19,F,0,1,11,3,2,43,3,2831,0,0.310632,12.37854,1.417065,-1
19,F,0,1,11,4,2,44,4,1554,0,0.04341898,12.43595,0.1958353,-1
19,F,0,1,11,5,2,42,2,2142,0,0.5964013,12.46225,2.673641,-1
19,F,0,1,11,6,1,43,3,1898,0,0.2928708,6.295443,2.541527,-1
19,F,0,1,11,7,1,41,1,1220,0,0.3828558,6.260903,3.396901,-1
19,F,0,1,11,8,1,44,4,2431,0,0.09014951,6.601714,0.749649,-1
19,F,0,1,12,1,2,46,2,4453,0,0.2920921,12.4637,1.308956,-1
19,F,0,1,12,2,2,47,3,2453,0,0.2628897,12.37816,1.194685,-1
19,F,0,1,12,3,1,45,1,1920,0,0.5003648,6.273237,4.32821,-1
19,F,0,1,12,4,1,46,2,2553,0,1.342708E-07,6.65253,0,-1
19,F,0,1,12,5,1,48,4,2175,0,0.04109263,6.592682,0.3403488,-1
19,F,0,1,12,6,1,47,3,4787,3,0.2071513,6.291942,1.810241,-1
19,F,0,1,12,7,2,45,1,3275,4,0.9833853,12.00817,4.656609,-1
19,F,0,1,12,8,2,48,4,2309,0,0.3252403,12.41321,1.474588,-1
19,F,0,1,13,1,2,51,3,1719,0,0.7508656,12.37276,3.391883,-1
19,F,0,1,13,2,2,49,1,1164,0,0.4838594,12.29195,2.207796,-1
19,F,0,1,13,3,1,50,2,3308,0,0.3873617,6.655324,3.159263,-1
19,F,0,1,13,4,1,51,3,2920,1,5.924479E-08,6.279662,0,-1
19,F,0,1,13,5,1,52,4,2476,0,0.1305989,6.581274,1.093069,-1
19,F,0,1,13,6,2,50,2,2009,0,1.055167,12.45858,4.757734,-1
19,F,0,1,13,7,1,49,1,3931,5,0.4965608,6.123748,4.516746,-1
19,F,0,1,13,8,2,52,4,1842,0,0.1199298,12.42168,0.5395923,-1
19,F,0,1,14,1,1,55,3,920,0,0.462884,6.30045,4.002425,-1
19,F,0,1,14,2,1,54,2,2720,0,0.354357,6.638723,2.928974,-1
19,F,0,1,14,3,1,53,1,1520,0,0.006103008,6.272185,0.04845664,-1
19,F,0,1,14,4,1,56,4,2342,0,0.1027971,6.611719,0.8425589,-1
19,F,0,1,14,5,2,55,3,2831,0,0.05708139,12.38866,0.2594432,-1
19,F,0,1,14,6,2,56,4,1398,0,0.2394008,12.44313,1.069177,-1
19,F,0,1,14,7,2,54,2,2854,0,0.3218135,12.47402,1.443472,-1
19,F,0,1,14,8,2,53,1,1264,0,0.3025838,12.2919,1.38211,-1
19,F,0,1,15,1,2,60,4,1498,0,0.735427,12.4402,3.301619,-1
19,F,0,1,15,2,2,58,2,1742,1,0.9647376,12.4592,4.351632,-1
19,F,0,1,15,3,2,59,3,1987,0,0.03053532,12.39204,0.1370561,-1
19,F,0,1,15,4,1,58,2,4109,0,0.2985529,6.645737,2.460288,-1
19,F,0,1,15,5,2,57,1,1342,0,1.028416,12.27407,4.77963,-1
19,F,0,1,15,6,1,59,3,1820,0,0.01124151,6.302827,0.09691329,-1
19,F,0,1,15,7,1,57,1,1087,0,0.5352225,6.278346,4.671267,-1
19,F,0,1,15,8,1,60,4,2531,1,3.56298E-07,6.615143,0,-1
19,F,0,1,16,1,1,62,2,2465,0,0.5619072,6.641292,4.645701,-1
19,F,0,1,16,2,2,63,3,1887,0,0.7276829,12.40334,3.317827,-1
19,F,0,1,16,3,2,62,2,1231,0,0.1555606,12.47176,0.6985759,-1
19,F,0,1,16,4,2,64,4,1653,0,0.7701933,12.45588,3.434161,-1
19,F,0,1,16,5,2,61,1,2875,2,0.9134005,12.27191,4.180342,-1
19,F,0,1,16,6,1,64,4,3331,1,0.03701232,6.611342,0.3064671,-1
19,F,0,1,16,7,1,61,1,2520,0,0.1607438,6.267617,1.412223,-1
19,F,0,1,16,8,1,63,3,2409,0,0.3205194,6.283358,2.865667,-1
19,F,0,1,17,1,4,68,4,4364,1,0.08876427,12.46147,0.3990945,-1
19,F,0,1,17,2,3,66,2,9999,1,-1,-1,-1,-1
19,F,0,1,17,3,3,65,1,1531,0,0.2433024,6.244623,2.104591,-1
19,F,0,1,17,4,4,66,2,4886,4,0.1098517,12.25513,0.5008504,-1
19,F,0,1,17,5,3,68,4,3609,0,0.2642933,6.572214,2.190263,-1
19,F,0,1,17,6,3,67,3,2053,0,0.360109,6.248991,3.135565,-1
19,F,0,1,17,7,4,65,1,1820,0,4.424655E-08,12.20977,0,-1
19,F,0,1,17,8,4,67,3,3153,0,0.5880984,12.33238,2.666163,-1
19,F,0,1,18,1,3,72,4,2954,0,0.1735306,6.587,1.437086,-1
19,F,0,1,18,2,4,71,3,1731,0,0.4466955,12.3231,2.008181,-1
19,F,0,1,18,3,4,69,1,1331,0,0.1959444,12.28809,0.901789,-1
19,F,0,1,18,4,4,70,2,2720,1,0.2929145,12.48179,1.32648,-1
19,F,0,1,18,5,3,69,1,1542,0,0.4815604,6.243463,4.298241,-1
19,F,0,1,18,6,4,72,4,1865,0,0.9043078,12.4223,4.091894,-1
19,F,0,1,18,7,3,71,3,1831,0,0.2945334,6.258298,2.629869,-1
19,F,0,1,18,8,3,70,2,2498,0,8.241759E-08,6.610101,0,-1
19,F,0,1,19,1,3,75,3,2386,0,0.1674667,6.228461,1.463799,-1
19,F,0,1,19,2,4,73,1,1287,0,0.09193094,12.22897,0.4205793,-1
19,F,0,1,19,3,4,74,2,1854,0,0.7631318,12.46579,3.42777,-1
19,F,0,1,19,4,4,75,3,3575,0,0.5909384,12.40825,2.699942,-1
19,F,0,1,19,5,3,76,4,4731,1,0.1143387,6.580552,0.9427382,-1
19,F,0,1,19,6,3,73,1,3009,2,0.3764183,6.214411,3.302805,-1
19,F,0,1,19,7,3,74,2,2576,1,0.3402119,6.643504,2.813134,-1
19,F,0,1,19,8,4,76,4,1831,0,0.6082435,12.38968,2.7113,-1
19,F,0,1,20,1,4,77,1,2831,1,1.673309E-07,12.22238,0,-1
19,F,0,1,20,2,4,79,3,3831,0,0.6443748,12.30006,2.968672,-1
19,F,0,1,20,3,3,80,4,2598,0,0.3123021,6.55435,2.592387,-1
19,F,0,1,20,4,3,78,2,3209,0,0.07571106,6.614958,0.6224399,-1
19,F,0,1,20,5,3,79,3,3398,0,0.2605113,6.216304,2.274431,-1
19,F,0,1,20,6,4,78,2,4475,0,5.23455E-08,12.42687,0,-1
19,F,0,1,20,7,3,77,1,1531,0,0.3064874,6.233068,2.66146,-1
19,F,0,1,20,8,4,80,4,2887,0,0.9418198,12.4189,4.262873,-1
19,F,0,1,20,1,2,78,2,1253,0,0.1181798,12.4619,0.5319225,-1
19,F,0,1,20,2,2,77,1,9999,14,-1,-1,-1,-1
19,F,0,1,20,3,1,80,4,3842,0,0.1348558,6.575514,1.113466,-1
19,F,0,1,20,4,1,79,3,2764,0,0.3382423,6.272862,2.968079,-1
19,F,0,1,20,5,2,80,4,2720,2,0.7658008,12.41915,3.486948,-1
19,F,0,1,20,6,1,78,2,2487,0,0.09538213,6.635441,0.7883269,-1
19,F,0,1,20,7,1,77,1,1031,0,0.01891159,6.273604,0.166689,-1
19,F,0,1,20,8,2,79,3,2097,0,0.31934,12.3666,1.453604,-1
19,F,0,1,21,1,1,82,2,1664,0,0.4852128,6.642035,3.983003,-1
19,F,0,1,21,2,1,84,4,2220,0,0.1763109,6.619157,1.456965,-1
19,F,0,1,21,3,2,83,3,2542,0,0.222879,12.39617,1.010269,-1
19,F,0,1,21,4,2,82,2,1353,0,0.3414186,12.46701,1.535696,-1
19,F,0,1,21,5,1,83,3,2431,0,0.3051894,6.300959,2.710794,-1
19,F,0,1,21,6,2,81,1,1120,0,0.6575674,12.28014,3.048381,-1
19,F,0,1,21,7,2,84,4,3575,0,0.7610318,12.4507,3.384487,-1
19,F,0,1,21,8,1,81,1,1642,0,0.09875646,6.269398,0.8724523,-1
19,F,0,1,22,1,1,87,3,2553,0,0.04364461,6.306898,0.3820612,-1
19,F,0,1,22,2,2,88,4,2875,0,0.1127412,12.45381,0.5082192,-1
19,F,0,1,22,3,1,86,2,1942,0,0.1408229,6.651735,1.153688,-1
19,F,0,1,22,4,2,87,3,3308,0,0.9924114,12.39227,4.527488,-1
19,F,0,1,22,5,1,85,1,1220,0,0.35276,6.27041,3.093894,-1
19,F,0,1,22,6,2,86,2,1209,0,3.181285E-07,12.46396,0,-1
19,F,0,1,22,7,2,85,1,2798,1,0.9498286,12.26622,4.425141,-1
19,F,0,1,22,8,1,88,4,3665,0,1.236121E-07,6.622888,0,-1
19,F,0,1,23,1,1,90,2,2942,0,0.4081545,6.656023,3.340703,-1
19,F,0,1,23,2,1,89,1,1220,0,0.4110953,6.281766,3.577576,-1
19,F,0,1,23,3,2,90,2,4898,0,0.6914945,12.47444,3.130191,-1
19,F,0,1,23,4,2,91,3,3909,0,1.384817E-07,12.41487,0,-1
19,F,0,1,23,5,1,92,4,2542,0,0.03294042,6.627469,0.272681,-1
19,F,0,1,23,6,2,89,1,5442,0,0.5691445,12.29611,2.631506,-1
19,F,0,1,23,7,2,92,4,1464,0,0.5679251,12.45684,2.519094,-1
19,F,0,1,23,8,1,91,3,2508,0,0.222495,6.314561,1.962141,-1
19,F,0,1,24,1,1,96,4,2132,0,0.1487011,6.626866,1.219649,-1
19,F,0,1,24,2,2,94,2,2220,0,0.3174551,12.47855,1.420238,-1
19,F,0,1,24,3,2,95,3,2142,0,0.9269859,12.40884,4.177483,-1
19,F,0,1,24,4,2,96,4,1476,0,0.615061,12.4604,2.736166,-1
19,F,0,1,24,5,1,95,3,4065,0,5.442061E-08,6.324148,0.01978234,-1
19,F,0,1,24,6,2,93,1,5675,0,0.5457706,12.28919,2.506006,-1
19,F,0,1,24,7,1,94,2,2376,0,0.1438657,6.652113,1.186302,-1
19,F,0,1,24,8,1,93,1,1365,0,0.352241,6.275723,3.060047,-1
19,F,0,1,25,1,1,99,3,3476,0,7.986704E-08,6.319343,0,-1
19,F,0,1,25,2,2,100,4,1876,0,0.563601,12.45987,2.5046,-1
19,F,0,1,25,3,1,97,1,1609,0,0.2644833,6.285064,2.301122,-1
19,F,0,1,25,4,2,98,2,1665,0,0.5598088,12.47483,2.498105,-1
19,F,0,1,25,5,2,97,1,2465,0,0.5489735,12.29534,2.506631,-1
19,F,0,1,25,6,1,98,2,3265,0,0.5394727,6.657514,4.449419,-1
19,F,0,1,25,7,1,100,4,2253,0,0.5002458,6.628975,4.152326,-1
19,F,0,1,25,8,2,99,3,3209,0,3.007981E-07,12.41375,0,-1
19,F,0,1,26,1,2,104,4,1698,0,0.6642516,12.46493,2.954328,-1
19,F,0,1,26,2,1,101,1,1764,0,0.516879,6.283032,4.474878,-1
19,F,0,1,26,3,1,102,2,3776,1,0.1793461,6.665779,1.485431,-1
19,F,0,1,26,4,2,101,1,4209,4,0.2233567,12.2771,1.022399,-1
19,F,0,1,26,5,2,102,2,1753,0,0.405877,12.46582,1.818654,-1
19,F,0,1,26,6,1,103,3,2331,0,0.08569657,6.305405,0.7504317,-1
19,F,0,1,26,7,1,104,4,2898,0,0.0005321858,6.631314,0,-1
19,F,0,1,26,8,2,103,3,3975,0,0.4072568,12.40583,1.854247,-1
19,F,0,1,27,1,2,105,1,1709,0,0.8411501,12.28998,3.888366,-1
19,F,0,1,27,2,2,107,3,2664,0,0.358742,12.40747,1.627626,-1
19,F,0,1,27,3,2,106,2,1675,0,0.2097962,12.47748,0.9404523,-1
19,F,0,1,27,4,2,108,4,3342,0,0.5442436,12.46227,2.465613,-1
19,F,0,1,27,5,1,105,1,3009,1,0.4959017,6.2785,4.286012,-1
19,F,0,1,27,6,1,106,2,4064,1,0.4108654,6.663687,3.441052,-1
19,F,0,1,27,7,1,107,3,2409,0,0.1979832,6.310098,1.743048,-1
19,F,0,1,27,8,1,108,4,3276,1,9.96143E-08,6.636264,0,-1
19,F,0,1,28,1,2,111,3,2442,0,0.2028976,12.41715,0.9130027,-1
19,F,0,1,28,2,2,110,2,1909,0,0.3619225,12.48481,1.617736,-1
19,F,0,1,28,3,1,112,4,2820,0,0.1515281,6.631221,1.259432,-1
19,F,0,1,28,4,1,110,2,2965,0,0.3869471,6.660449,3.17632,-1
19,F,0,1,28,5,2,109,1,2798,2,0.8464432,12.27457,3.939797,-1
19,F,0,1,28,6,2,112,4,3309,1,0.9639832,12.4608,4.325086,-1
19,F,0,1,28,7,1,109,1,1687,0,0.4901817,6.286359,4.243855,-1
19,F,0,1,28,8,1,111,3,2398,0,0.3154039,6.30923,2.780871,-1
19,F,0,1,29,1,1,116,4,2798,0,8.27434E-08,6.63527,0,-1
19,F,0,1,29,2,2,115,3,3242,0,9.861163E-08,12.41233,0,-1
19,F,0,1,29,3,2,114,2,1798,0,0.3669069,12.47778,1.642348,-1
19,F,0,1,29,4,2,113,1,1720,0,0.8950753,12.28685,4.115088,-1
19,F,0,1,29,5,1,114,2,3964,1,0.1705685,6.660934,1.400116,-1
19,F,0,1,29,6,1,113,1,2931,2,1.478161E-07,6.279246,0,-1
19,F,0,1,29,7,2,116,4,2487,0,0.5201795,12.46664,2.364468,-1
19,F,0,1,29,8,1,115,3,2009,0,0.3441644,6.308135,3.055053,-1
19,F,0,1,30,1,2,117,1,1586,0,0.1117352,12.28833,0.5109072,-1
19,F,0,1,30,2,1,118,2,3797,1,0.07622026,6.664097,0.6321102,-1
19,F,0,1,30,3,1,119,3,2620,0,0.2050702,6.329293,1.774868,-1
19,F,0,1,30,4,1,120,4,3665,0,0.564863,6.618557,4.717253,-1
19,F,0,1,30,5,2,119,3,2598,0,0.3444051,12.38784,1.565606,-1
19,F,0,1,30,6,2,118,2,1864,0,0.3459221,12.44095,1.553056,-1
19,F,0,1,30,7,1,117,1,1209,0,0.2064693,6.263209,1.797112,-1
19,F,0,1,30,8,2,120,4,1820,0,0.6959299,12.45204,3.090348,-1
19,F,0,1,31,1,2,121,1,2009,1,0.7509371,12.27476,3.490371,-1
19,F,0,1,31,2,2,123,3,6042,6,0.8845258,12.39495,4.033423,-1
19,F,0,1,31,3,2,124,4,1776,0,0.4465919,12.46097,1.986329,-1
19,F,0,1,31,4,1,121,1,2153,0,0.2277441,6.26489,1.981495,-1
19,F,0,1,31,5,2,122,2,1653,0,0.7735671,12.45948,3.467804,-1
19,F,0,1,31,6,1,124,4,2920,0,1.741902E-07,6.636984,0,-1
19,F,0,1,31,7,1,123,3,2720,0,4.877413E-08,6.313358,0,-1
19,F,0,1,31,8,1,122,2,3619,0,0.3679716,6.655034,3.03422,-1
19,F,0,1,32,1,1,127,3,2298,0,0.05049435,6.307004,0.4423477,-1
19,F,0,1,32,2,1,125,1,1376,0,0.4956406,6.260262,4.349246,-1
19,F,0,1,32,3,2,127,3,2731,0,0.0316286,12.40249,0.1426525,-1
19,F,0,1,32,4,1,128,4,3153,0,0.105015,6.629222,0.8699816,-1
19,F,0,1,32,5,2,126,2,2987,0,0.5476655,12.46686,2.461084,-1
19,F,0,1,32,6,2,128,4,1753,0,0.4138543,12.45637,1.841325,-1
19,F,0,1,32,7,1,126,2,4031,0,0.05517581,6.653368,0.454995,-1
19,F,0,1,32,8,2,125,1,2054,0,0.7125612,12.27716,3.304938,-1
19,F,0,1,33,1,1,130,2,1998,0,0.4524701,6.649115,3.735178,-1
19,F,0,1,33,2,2,132,4,2031,0,0.07131226,12.46554,0.3208161,-1
19,F,0,1,33,3,2,130,2,1309,0,0.4631402,12.46765,2.074997,-1
19,F,0,1,33,4,1,132,4,3053,0,0.4370096,6.62848,3.641101,-1
19,F,0,1,33,5,2,131,3,2142,0,7.441965E-08,12.41483,0,-1
19,F,0,1,33,6,1,129,1,3820,3,0.3165515,6.26125,2.761516,-1
19,F,0,1,33,7,1,131,3,2754,0,0.00974332,6.314125,0.08392937,-1
19,F,0,1,33,8,2,129,1,1953,0,0.3548222,12.2832,1.634584,-1
19,F,0,1,34,1,2,136,4,2542,0,6.756034E-08,12.46314,0,-1
19,F,0,1,34,2,1,134,2,2765,0,0.3705942,6.64968,3.058255,-1
19,F,0,1,34,3,2,133,1,1754,0,0.8453052,12.2743,3.921463,-1
19,F,0,1,34,4,2,134,2,1309,0,0.2548342,12.46392,1.142781,-1
19,F,0,1,34,5,2,135,3,2120,0,0.51782,12.40279,2.3585,-1
19,F,0,1,34,6,1,136,4,2953,0,1.114374E-07,6.636395,0,-1
19,F,0,1,34,7,1,135,3,2742,0,4.125864E-08,6.313946,0,-1
19,F,0,1,34,8,1,133,1,2898,1,0.1848151,6.262047,1.650194,-1
19,F,0,1,35,1,2,139,3,1631,0,0.5439258,12.41159,2.454713,-1
19,F,0,1,35,2,2,137,1,2198,1,0.1911291,12.27673,0.8791551,-1
19,F,0,1,35,3,2,140,4,2531,0,0.3533384,12.46587,1.585356,-1
19,F,0,1,35,4,1,137,1,2131,0,0.164797,6.268209,1.449829,-1
19,F,0,1,35,5,1,138,2,4031,1,1.200746E-07,6.649431,0,-1
19,F,0,1,35,6,1,140,4,2943,0,0.2898147,6.632632,2.412245,-1
19,F,0,1,35,7,2,138,2,1798,0,0.0189486,12.47048,0.08392937,-1
19,F,0,1,35,8,1,139,3,2187,0,1.577508E-07,6.319954,0,-1
19,F,0,1,37,1,3,148,4,2531,0,0.19446,6.638694,1.596426,-1
19,F,0,1,37,2,3,146,2,2120,0,0.5375901,6.658095,4.441047,-1
19,F,0,1,37,3,4,147,3,2253,0,3.488059E-07,12.37348,0.01978234,-1
19,F,0,1,37,4,4,146,2,1520,0,0.9808714,12.49048,4.386776,-1
19,F,0,1,37,5,3,145,1,2420,0,0.4212057,6.219733,3.639057,-1
19,F,0,1,37,6,3,147,3,2253,0,6.583991E-08,6.315287,0,-1
19,F,0,1,37,7,4,148,4,2631,0,0.2588581,12.50054,1.157075,-1
19,F,0,1,37,8,4,145,1,1409,0,0.2790776,12.23442,1.276869,-1
19,F,0,1,38,1,4,151,3,2098,0,4.742374E-08,12.38779,0,-1
19,F,0,1,38,2,4,152,4,2509,0,0.09032557,12.52829,0.4063823,-1
19,F,0,1,38,3,3,150,2,1631,0,1.060235E-07,6.622633,0,-1
19,F,0,1,38,4,4,149,1,2042,0,0.0321865,12.27892,0.1480375,-1
19,F,0,1,38,5,3,152,4,2687,0,0.2282166,6.654954,1.890619,-1
19,F,0,1,38,6,3,151,3,2454,1,0.2602691,6.26894,2.251598,-1
19,F,0,1,38,7,4,150,2,1698,0,0.5215092,12.48283,2.349354,-1
19,F,0,1,38,8,3,149,1,2165,1,0.2590754,6.21843,2.316466,-1
19,F,0,1,39,1,4,156,4,2353,0,0.2589277,12.508,1.153857,-1
19,F,0,1,39,2,3,155,3,1876,0,0.22746,6.265876,1.969111,-1
19,F,0,1,39,3,4,154,2,3064,0,0.7923465,12.50289,3.561999,-1
19,F,0,1,39,4,3,153,1,1820,0,0.4849092,6.273247,4.194466,-1
19,F,0,1,39,5,3,156,4,3376,0,0.01942912,6.669576,0.1582588,-1
19,F,0,1,39,6,3,154,2,2920,0,0.3775493,6.670574,3.111749,-1
19,F,0,1,39,7,4,153,1,2653,1,0.9189564,12.23701,4.245701,-1
19,F,0,1,39,8,4,155,3,2075,0,0.07668505,12.41578,0.3471792,-1
19,F,0,1,40,1,4,158,2,2153,0,2.294966E-08,12.47791,0,-1
19,F,0,1,40,2,3,159,3,1565,0,0.02726135,6.264514,0.2390311,-1
19,F,0,1,40,3,3,160,4,3320,0,0.02234834,6.630246,0.183454,-1
19,F,0,1,40,4,4,157,1,1587,0,0.1507394,12.24737,0.6892704,-1
19,F,0,1,40,5,4,159,3,2198,0,0.7077689,12.41731,3.220817,-1
19,F,0,1,40,6,3,157,1,2687,1,0.5206051,6.206318,4.696068,-1
19,F,0,1,40,7,4,160,4,2620,0,2.476595E-07,12.4813,0,-1
19,F,0,1,40,8,3,158,2,1665,0,0.5695022,6.667955,4.698612,-1
19,F,0,1,41,1,1,164,4,2720,0,0.180462,6.639824,1.478829,-1
19,F,0,1,41,2,2,163,3,3064,2,0.8243968,12.41449,3.753063,-1
19,F,0,1,41,3,2,162,2,1242,0,0.7731532,12.48042,3.46074,-1
19,F,0,1,41,4,2,161,1,2987,0,0.01784742,12.29978,0.07912937,-1
19,F,0,1,41,5,2,164,4,1742,0,0.9788172,12.47893,4.337161,-1
19,F,0,1,41,6,1,161,1,3542,2,0.2960818,6.2775,2.640713,-1
19,F,0,1,41,7,1,163,3,2087,0,9.63252E-08,6.319712,0,-1
19,F,0,1,41,8,1,162,2,2698,0,1.361458E-07,6.669346,0,-1
19,F,0,1,42,1,2,168,4,1498,0,0.3582326,12.48176,1.622206,-1
19,F,0,1,42,2,1,166,2,1620,0,0.5048436,6.655169,4.164618,-1
19,F,0,1,42,3,1,167,3,1931,0,0.3390639,6.322483,2.92737,-1
19,F,0,1,42,4,1,165,1,1920,2,1.675259E-07,6.249411,0.01978234,-1
19,F,0,1,42,5,2,167,3,3742,1,0.4901953,12.42536,2.228619,-1
19,F,0,1,42,6,2,166,2,1598,0,0.702629,12.46835,3.148773,-1
19,F,0,1,42,7,1,168,4,2320,0,7.366648E-08,6.599188,0,-1
19,F,0,1,42,8,2,165,1,1631,0,0.5024096,12.27771,2.32153,-1
19,F,0,1,43,1,2,172,4,2498,0,0.3898406,12.42911,1.770562,-1
19,F,0,1,43,2,1,170,2,4398,1,0.1156695,6.658882,0.9507989,-1
19,F,0,1,43,3,1,172,4,3209,0,0.1783268,6.614711,1.487932,-1
19,F,0,1,43,4,2,171,3,2353,0,0.06189121,12.38957,0.2811602,-1
19,F,0,1,43,5,1,169,1,1964,0,0.1600475,6.267876,1.417755,-1
19,F,0,1,43,6,1,171,3,3276,0,4.199034E-08,6.290819,0,-1
19,F,0,1,43,7,2,169,1,2109,1,0.9317236,12.27206,4.333863,-1
19,F,0,1,43,8,2,170,2,1209,0,0.3589574,12.46216,1.60876,-1
19,F,0,1,44,1,2,175,3,3142,1,0.9556137,12.37577,4.365024,-1
19,F,0,1,44,2,1,176,4,2565,0,5.794974E-08,6.624143,0,-1
19,F,0,1,44,3,1,173,1,2053,1,0.3830345,6.261886,3.363306,-1
19,F,0,1,44,4,1,174,2,2931,1,0.4907885,6.655828,4.013614,-1
19,F,0,1,44,5,1,175,3,2053,0,2.253072E-08,6.292226,0,-1
19,F,0,1,44,6,2,173,1,4609,5,0.4866197,12.2386,2.232042,-1
19,F,0,1,44,7,2,174,2,1676,0,0.5065932,12.4558,2.277182,-1
19,F,0,1,44,8,2,176,4,2598,0,0.5500251,12.44673,2.483647,-1
19,F,0,1,45,1,1,179,3,2953,0,9.894068E-08,6.292887,0,-1
19,F,0,1,45,2,2,177,1,1309,0,0.2784108,12.28562,1.273646,-1
19,F,0,1,45,3,2,180,4,1420,0,0.5283988,12.44976,2.348687,-1
19,F,0,1,45,4,2,178,2,1309,0,0.3385357,12.46794,1.515299,-1
19,F,0,1,45,5,1,180,4,2109,0,0.5205477,6.622675,4.306071,-1
19,F,0,1,45,6,1,177,1,5587,0,4.508686E-08,6.276657,0,-1
19,F,0,1,45,7,1,178,2,2465,0,0.2178096,6.658452,1.793515,-1
19,F,0,1,45,8,2,179,3,3209,0,0.9564567,12.39901,4.359322,-1
19,F,0,1,46,1,1,181,1,1565,0,0.4642744,6.282782,4.010246,-1
19,F,0,1,46,2,1,184,4,2431,0,9.264004E-08,6.616035,0,-1
19,F,0,1,46,3,2,182,2,1609,0,0.2700535,12.47585,1.209175,-1
19,F,0,1,46,4,1,183,3,3253,0,2.541393E-08,6.286429,0,-1
19,F,0,1,46,5,1,182,2,1831,0,0.5633033,6.66943,4.638654,-1
19,F,0,1,46,6,2,184,4,2876,0,1.022644E-07,12.44522,0,-1
19,F,0,1,46,7,2,183,3,2176,0,0.7463555,12.3843,3.404846,-1
19,F,0,1,46,8,2,181,1,7142,0,0.8558488,12.28942,3.921064,-1
19,F,0,1,47,1,2,188,4,1576,0,0.3403103,12.45305,1.535696,-1
19,F,0,1,47,2,2,187,3,2154,0,9.034721E-08,12.39641,0,-1
19,F,0,1,47,3,2,186,2,1698,0,0.7574686,12.47216,3.393788,-1
19,F,0,1,47,4,1,185,1,2898,1,7.435111E-08,6.27319,0,-1
19,F,0,1,47,5,1,186,2,3931,1,8.457215E-08,6.663879,0,-1
19,F,0,1,47,6,1,188,4,3020,0,1.112705E-07,6.619575,0.01978234,-1
19,F,0,1,47,7,1,187,3,2587,0,0.3120058,6.295145,2.751433,-1
19,F,0,1,47,8,2,185,1,1709,0,1.333288E-07,12.29004,0,-1
19,F,0,1,48,1,1,192,4,2376,0,0.05973488,6.621821,0.4961402,-1
19,F,0,1,48,2,2,190,2,1420,0,0.4723545,12.47438,2.115259,-1
19,F,0,1,48,3,1,191,3,1542,0,6.55379E-08,6.300314,0,-1
19,F,0,1,48,4,1,189,1,1653,0,0.1713964,6.279224,1.49161,-1
19,F,0,1,48,5,2,192,4,1542,0,0.3132003,12.44904,1.424365,-1
19,F,0,1,48,6,1,190,2,1787,0,0.2608119,6.664702,2.147307,-1
19,F,0,1,48,7,2,191,3,3198,0,0.7502293,12.38952,3.421824,-1
19,F,0,1,48,8,2,189,1,1476,0,0.9807077,12.28319,4.558575,-1
19,F,0,1,49,1,1,196,4,2353,0,0.1848623,6.621377,1.540785,-1
19,F,0,1,49,2,1,195,3,2076,0,0.1431774,6.295053,1.262226,-1
19,F,0,1,49,3,2,196,4,2131,0,0.0363883,12.45303,0.1643245,-1
19,F,0,1,49,4,1,193,1,2242,1,0.1190024,6.275235,1.051088,-1
19,F,0,1,49,5,1,194,2,2409,0,0.09662422,6.657362,0.7927822,-1
19,F,0,1,49,6,2,193,1,1620,0,0.8253018,12.28414,3.828071,-1
19,F,0,1,49,7,2,195,3,2198,0,0.1552625,12.39945,0.7069291,-1
19,F,0,1,49,8,2,194,2,1842,0,0.4257401,12.47783,1.905981,-1
19,F,0,1,50,1,2,200,4,1886,0,0.05997334,12.45538,0.2697954,-1
19,F,0,1,50,2,1,197,1,2331,1,0.03648499,6.277758,0.3220336,-1
19,F,0,1,50,3,1,200,4,2209,0,4.400915E-08,6.617743,0,-1
19,F,0,1,50,4,2,199,3,3542,2,1.010451,12.38905,4.626223,-1
19,F,0,1,50,5,1,198,2,3220,0,0.5120111,6.659491,4.184463,-1
19,F,0,1,50,6,2,197,1,2765,2,0.9755244,12.27397,4.519781,-1
19,F,0,1,50,7,1,199,3,3253,0,0.1912614,6.316545,1.665892,-1
19,F,0,1,50,8,2,198,2,1620,0,0.03478312,12.47439,0.1557664,-1
19,F,0,1,51,1,2,201,1,3031,0,0.8768423,12.28299,4.076262,-1
19,F,0,1,51,2,2,202,2,1431,0,0.640779,12.47255,2.870308,-1
19,F,0,1,51,3,1,204,4,2731,0,0.04506185,6.62411,0.3711503,-1
19,F,0,1,51,4,1,201,1,1765,0,0.4509674,6.272887,3.958937,-1
19,F,0,1,51,5,2,203,3,2409,0,0.5070364,12.39553,2.310798,-1
19,F,0,1,51,6,1,202,2,2320,0,0.3011871,6.666395,2.479308,-1
19,F,0,1,51,7,2,204,4,1920,0,0.2695481,12.45321,1.209013,-1
19,F,0,1,51,8,1,203,3,2809,0,5.5942E-08,6.30604,0.01978234,-1
19,F,0,1,52,1,1,206,2,2875,0,0.2156564,6.664478,1.775309,-1
19,F,0,1,52,2,2,208,4,1887,0,0.1053962,12.46105,0.4714689,-1
19,F,0,1,52,3,1,207,3,2098,0,0.02311403,6.30799,0.2017412,-1
19,F,0,1,52,4,2,205,1,1165,0,1.022148,12.29305,4.726214,-1
19,F,0,1,52,5,2,207,3,2642,0,0.6339241,12.40936,2.876712,-1
19,F,0,1,52,6,1,205,1,2509,0,0.458306,6.287374,3.978329,-1
19,F,0,1,52,7,1,208,4,2697,0,6.996839E-08,6.627439,0,-1
19,F,0,1,52,8,2,206,2,1542,0,0.5019118,12.48296,2.24533,-1
19,F,0,1,53,1,1,212,4,2220,0,0.07214615,6.624902,0.5964329,-1
19,F,0,1,53,2,2,209,1,1464,0,0.4403443,12.29575,2.029315,-1
19,F,0,1,53,3,2,210,2,2886,3,8.586645E-08,12.48507,0,-1
19,F,0,1,53,4,2,212,4,2531,0,0.07139422,12.46702,0.3208161,-1
19,F,0,1,53,5,2,211,3,2453,0,0.684859,12.41689,3.097119,-1
19,F,0,1,53,6,1,209,1,2242,1,0.2148234,6.270475,1.878157,-1
19,F,0,1,53,7,1,210,2,2709,1,0.1803215,6.658567,1.49933,-1
19,F,0,1,53,8,1,211,3,2176,0,0.4214177,6.299572,3.730509,-1
19,F,0,1,54,1,1,214,2,4787,0,0.0158346,6.667723,0.1312212,-1
19,F,0,1,54,2,1,213,1,2242,0,0.03487835,6.27258,0.3064671,-1
19,F,0,1,54,3,1,216,4,2887,0,1.514365E-07,6.633296,0,-1
19,F,0,1,54,4,1,215,3,2398,0,1.441725E-08,6.322103,0,-1
19,F,0,1,54,5,2,214,2,1409,0,0.04646861,12.47703,0.20842,-1
19,F,0,1,54,6,2,213,1,1520,0,0.3179539,12.29345,1.45293,-1
19,F,0,1,54,7,2,215,3,2276,0,0.2227244,12.41088,1.013557,-1
19,F,0,1,54,8,2,216,4,1965,0,0.092398,12.46679,0.4149588,-1
19,F,0,1,55,1,2,217,1,1420,0,0.90303,12.28894,4.157652,-1
19,F,0,1,55,2,1,219,3,2331,0,2.37272E-07,6.313829,0,-1
19,F,0,1,55,3,2,220,4,1565,0,0.3563861,12.46481,1.584491,-1
19,F,0,1,55,4,1,218,2,2709,0,0.4001714,6.659835,3.273631,-1
19,F,0,1,55,5,1,217,1,2298,1,0.2123394,6.267509,1.884917,-1
19,F,0,1,55,6,2,219,3,2109,0,0.6602422,12.41112,3.005764,-1
19,F,0,1,55,7,1,220,4,2664,0,0.05683532,6.633857,0.4677188,-1
19,F,0,1,55,8,2,218,2,2065,0,0.1974775,12.48051,0.8849231,-1
19,F,0,1,56,1,2,223,3,2298,0,0.6830869,12.43066,3.10501,-1
19,F,0,1,56,2,1,224,4,2942,0,0.1574434,6.626466,1.297846,-1
19,F,0,1,56,3,1,222,2,3698,4,0.3888327,6.670849,3.175457,-1
19,F,0,1,56,4,2,221,1,1276,0,0.5821194,12.28906,2.687734,-1
19,F,0,1,56,5,1,223,3,1609,0,6.909136E-08,6.309935,0,-1
19,F,0,1,56,6,1,221,1,1487,0,0.2982614,6.268435,2.640417,-1
19,F,0,1,56,7,2,224,4,2632,0,0.9484112,12.45043,4.303887,-1
19,F,0,1,56,8,2,222,2,1876,1,0.3408583,12.47766,1.524441,-1
19,F,0,1,57,1,4,225,1,1154,0,0.9645858,12.29298,4.40202,-1
19,F,0,1,57,2,3,226,2,7588,11,0.4798264,6.637971,3.968176,-1
19,F,0,1,57,3,3,225,1,3009,3,1.305183E-07,6.266037,0,-1
19,F,0,1,57,4,4,227,3,2909,1,0.1863492,12.4084,0.8478836,-1
19,F,0,1,57,5,3,228,4,3053,0,0.2221781,6.629562,1.826385,-1
19,F,0,1,57,6,3,227,3,2198,0,0.3902896,6.257757,3.371388,-1
19,F,0,1,57,7,4,228,4,2276,0,0.622066,12.47043,2.81668,-1
19,F,0,1,57,8,4,226,2,9254,2,0.4535301,12.48315,2.065259,-1
19,F,0,1,58,1,4,232,4,2598,0,0.3032025,12.49567,1.365301,-1
19,F,0,1,58,2,4,230,2,1353,0,0.8699391,12.46964,3.899129,-1
19,F,0,1,58,3,4,231,3,2309,0,0.6265941,12.4128,2.826047,-1
19,F,0,1,58,4,3,232,4,3031,0,0.4139182,6.657336,3.371969,-1
19,F,0,1,58,5,3,230,2,7675,11,0.3162289,6.659634,2.610221,-1
19,F,0,1,58,6,3,229,1,3398,6,0.07742725,6.258572,0.6792617,-1
19,F,0,1,58,7,3,231,3,2298,0,0.2489529,6.25265,2.211074,-1
19,F,0,1,58,8,4,229,1,1598,0,0.5702328,12.29347,2.638563,-1
19,F,0,1,59,1,3,234,2,3276,0,0.4565228,6.640971,3.720365,-1
19,F,0,1,59,2,3,236,4,2442,0,0.02976283,6.662032,0.2446942,-1
19,F,0,1,59,3,3,235,3,2298,0,1.628869E-07,6.301677,0,-1
19,F,0,1,59,4,4,234,2,1831,0,0.2777061,12.47965,1.245212,-1
19,F,0,1,59,5,4,235,3,2198,0,0.006274947,12.38714,0.03426402,-1
19,F,0,1,59,6,3,233,1,1342,0,0.3607785,6.21333,3.122865,-1
19,F,0,1,59,7,4,236,4,2398,0,0.8258572,12.50202,3.719312,-1
19,F,0,1,59,8,4,233,1,1476,0,0.2023503,12.24356,0.9251386,-1
19,F,0,1,60,1,4,239,3,2365,0,0.8024803,12.38669,3.617795,-1
19,F,0,1,60,2,3,238,2,2197,1,4.350645E-08,6.666777,0,-1
19,F,0,1,60,3,4,237,1,1331,0,0.5227686,12.2415,2.394246,-1
19,F,0,1,60,4,3,240,4,3131,0,3.406439E-08,6.64408,0,-1
19,F,0,1,60,5,4,238,2,1675,0,5.550513E-08,12.49763,0.01978234,-1
19,F,0,1,60,6,3,239,3,1854,0,0.05326392,6.265507,0.464781,-1
19,F,0,1,60,7,3,237,1,1531,0,0.2680227,6.283678,2.334226,-1
19,F,0,1,60,8,4,240,4,4097,0,0.5143251,12.50551,2.314522,-1
19,F,0,1,61,1,2,242,2,2264,1,0.4292817,12.48509,1.926407,-1
19,F,0,1,61,2,2,243,3,2876,0,1.006165,12.4173,4.603599,-1
19,F,0,1,61,3,2,241,1,1520,0,0.466379,12.29338,2.146213,-1
19,F,0,1,61,4,2,244,4,1487,0,0.1673296,12.47048,0.7561465,-1
19,F,0,1,61,5,1,242,2,3109,2,0.1153372,6.674198,0.9462603,-1
19,F,0,1,61,6,1,244,4,2042,0,0.06176279,6.639593,0.5066768,-1
19,F,0,1,61,7,1,243,3,2920,0,0.2186084,6.3258,1.899913,-1
19,F,0,1,61,8,1,241,1,1509,0,0.1883076,6.287354,1.634584,-1
19,F,0,1,62,1,2,246,2,2998,0,1.020551,12.48821,4.650168,-1
19,F,0,1,62,2,1,247,3,2353,0,0.0396617,6.311899,0.3471792,-1
19,F,0,1,62,3,2,245,1,1187,0,0.4256151,12.29343,1.957548,-1
19,F,0,1,62,4,1,248,4,2209,0,0.0676857,6.642381,0.555319,-1
19,F,0,1,62,5,2,247,3,2843,0,0.2096783,12.40732,0.9503872,-1
19,F,0,1,62,6,1,246,2,1787,0,2.416969E-07,6.674998,0,-1
19,F,0,1,62,7,2,248,4,1587,0,0.1790583,12.46877,0.7991739,-1
19,F,0,1,62,8,1,245,1,2376,1,0.4621463,6.272609,4.08351,-1
19,F,0,1,1,1,8,4,4,3718,0,2.026671,12.44139,9.064167,-1
19,F,0,1,1,2,8,2,2,3853,0,4.037394,12.43767,18.86481,-1
19,F,0,1,1,3,5,3,3,1376,0,2.958488,6.34241,27.80483,-1
19,F,0,1,1,4,6,2,2,1542,0,5.244593,12.45926,24.78701,-1
19,F,0,1,1,5,7,4,4,1854,0,5.029279,6.626781,49.37017,-1
19,F,0,1,1,6,8,1,1,876,0,6.093226,12.30727,29.49804,-1
19,F,0,1,1,7,8,3,3,1531,0,1.784493,12.41897,8.190743,-1
19,F,0,1,1,8,7,1,1,1376,0,4.037405,6.279899,40.00909,-1
19,F,0,1,1,9,6,3,3,953,0,8.897758,12.42709,45.72306,-1
19,F,0,1,1,10,6,1,1,2076,0,10.00575,12.31467,54.34156,-1
19,F,0,1,1,11,5,4,4,1198,0,5.193005,6.632676,51.5308,-1
19,F,0,1,1,12,7,2,2,1176,0,3.897556,6.613916,35.96782,-1
19,F,0,1,1,13,7,3,3,1298,0,3.973677,6.338817,38.82029,-1
19,F,0,1,1,14,6,4,4,1876,0,3.775096,12.47463,17.43205,-1
19,F,0,1,1,15,5,2,2,2131,0,2.853606,6.613601,24.6745,-1
19,F,0,1,1,16,5,1,1,1853,0,3.266272,6.292763,31.2687,-1
19,F,0,1,2,1,6,4,4,1520,0,2.353485,12.44322,10.82391,-1
19,F,0,1,2,2,5,2,2,1120,0,3.205606,6.611763,28.75042,-1
19,F,0,1,2,3,7,4,4,1698,0,4.784841,6.637156,46.13025,-1
19,F,0,1,2,4,8,2,2,4209,0,3.898073,12.43241,18.19828,-1
19,F,0,1,2,5,8,4,4,2331,0,1.591124,12.45253,7.098709,-1
19,F,0,1,2,6,5,3,3,676,0,2.201641,6.345848,19.83741,-1
19,F,0,1,2,7,8,1,1,598,0,2.77535,12.29604,12.97219,-1
19,F,0,1,2,8,7,3,3,865,0,3.519243,6.344727,32.84292,-1
19,F,0,1,2,9,6,1,1,1265,0,7.857028,12.29517,39.71979,-1
19,F,0,1,2,10,5,4,4,998,0,4.119042,6.647693,37.15862,-1
19,F,0,1,2,11,6,2,2,1331,0,6.365367,12.43674,30.78509,-1
19,F,0,1,2,12,7,1,1,1842,0,2.861077,6.263575,27.17953,-1
19,F,0,1,2,13,8,3,3,2053,0,6.907741,12.46211,33.65034,-1
19,F,0,1,2,14,5,1,1,1520,0,4.739453,6.291341,48.65274,-1
19,F,0,1,2,15,6,3,3,1520,0,3.130392,12.42218,14.56984,-1
19,F,0,1,2,16,7,2,2,1286,0,3.544294,6.611304,32.41827,-1
