Age, Gender, Awareness Type, Session, Block, Trial, Set, Pattern, Quadrant, Response Time, Num Mistakes, Distance From Target, Camera Distance From Target, Angle Error (Degrees), FC Response
18,F,0,1,1,1,2,3,3,2298,0,0.6335364,12.15648,2.917255,-1
18,F,0,1,1,2,1,2,2,4309,0,0.0009201729,6.511121,0,-1
18,F,0,1,1,3,1,3,3,2509,0,0.07075245,6.134343,0.633656,-1
18,F,0,1,1,4,1,1,1,2854,0,0.0383487,6.112604,0.3466151,-1
18,F,0,1,1,5,1,4,4,4131,0,0.2262998,6.413431,1.957448,-1
18,F,0,1,1,6,2,2,2,2220,0,0.1411841,12.25816,0.6443735,-1
18,F,0,1,1,7,2,4,4,1831,0,0.08614206,12.32576,0.3921704,-1
18,F,0,1,1,8,2,1,1,1809,0,0.1460069,12.16823,0.6760855,-1
18,F,0,1,2,1,2,7,3,9753,1,1.98552E-07,12.11184,0,-1
18,F,0,1,2,2,2,6,2,2342,0,0.6652686,12.27681,3.060302,-1
18,F,0,1,2,3,1,5,1,5253,1,0.3662582,6.141609,3.363539,-1
18,F,0,1,2,4,2,8,4,8176,1,0.4755711,12.30213,2.168891,-1
18,F,0,1,2,5,1,6,2,2898,0,2.064098E-07,6.519496,0,-1
18,F,0,1,2,6,1,7,3,3665,0,0.0109293,6.111658,0.09891172,-1
18,F,0,1,2,7,2,5,1,3576,0,0.3278945,12.1735,1.521743,-1
18,F,0,1,2,8,1,8,4,2120,0,0.09328261,6.400869,0.8076981,-1
18,F,0,1,3,1,2,9,1,2098,0,0.05890559,12.18159,0.2712421,-1
18,F,0,1,3,2,1,12,4,2598,0,0.4206501,6.391214,3.65243,-1
18,F,0,1,3,3,2,11,3,2153,0,0.490665,12.15908,2.253162,-1
18,F,0,1,3,4,2,12,4,2042,0,0.155432,12.3305,0.707759,-1
18,F,0,1,3,5,1,11,3,2065,0,0.1117874,6.135899,1.000147,-1
18,F,0,1,3,6,2,10,2,1364,0,0.4795718,12.27289,2.183102,-1
18,F,0,1,3,7,1,9,1,1698,0,0.04406218,6.137409,0.3966355,-1
18,F,0,1,3,8,1,10,2,1620,0,0.08175781,6.534247,0.6847132,-1
18,F,0,1,4,1,2,13,1,1720,0,0.6516716,12.19895,3.030217,-1
18,F,0,1,4,2,1,15,3,3342,0,7.502414E-08,6.134763,0,-1
18,F,0,1,4,3,1,13,1,1487,0,0.02983854,6.141469,0.268341,-1
18,F,0,1,4,4,2,14,2,1876,0,0.2253027,12.27752,1.025266,-1
18,F,0,1,4,5,1,16,4,2231,0,2.647595E-07,6.407427,0,-1
18,F,0,1,4,6,1,14,2,1809,0,1.013967E-07,6.531648,0,-1
18,F,0,1,4,7,2,15,3,5676,0,0.5514984,12.16541,2.543298,-1
18,F,0,1,4,8,2,16,4,2187,0,0.1372688,12.3394,0.6243232,-1
18,F,0,1,5,1,2,17,1,1875,0,0.5258122,12.19706,2.445046,-1
18,F,0,1,5,2,2,18,2,2142,0,0.7209341,12.28554,3.308905,-1
18,F,0,1,5,3,1,20,4,2387,0,0.2387809,6.411898,2.065828,-1
18,F,0,1,5,4,2,19,3,2464,0,0.3982995,12.17399,1.824884,-1
18,F,0,1,5,5,1,17,1,4376,0,0.3957657,6.154041,3.567382,-1
18,F,0,1,5,6,1,19,3,3820,0,1.965227E-07,6.138432,0,-1
18,F,0,1,5,7,2,20,4,2842,0,0.6500432,12.35673,2.988324,-1
18,F,0,1,5,8,1,18,2,1742,0,0.08035837,6.547217,0.6769533,-1
18,F,0,1,6,1,1,21,1,1642,0,0.2226861,6.15117,2.007596,-1
18,F,0,1,6,2,1,24,4,2642,0,0.3650256,6.415278,3.156845,-1
18,F,0,1,6,3,2,22,2,2030,0,0.3949419,12.3028,1.815746,-1
18,F,0,1,6,4,1,23,3,3253,0,0.1304544,6.143311,1.157583,-1
18,F,0,1,6,5,2,24,4,1964,0,0.5331261,12.35435,2.426564,-1
18,F,0,1,6,6,2,21,1,2542,0,0.1343312,12.21186,0.6211812,-1
18,F,0,1,6,7,2,23,3,3964,0,0.822337,12.1655,3.849088,-1
18,F,0,1,6,8,1,22,2,5698,0,0.2265665,6.417462,1.928032,-1
18,F,0,1,7,1,1,27,3,2609,0,0.3909231,6.135484,3.468877,-1
18,F,0,1,7,2,1,28,4,4909,0,0.5351709,6.412241,4.634218,-1
18,F,0,1,7,3,1,25,1,4353,0,0.0369307,6.149068,0.3310224,-1
18,F,0,1,7,4,2,26,2,2398,0,0.4729083,12.28472,2.177717,-1
18,F,0,1,7,5,2,27,3,3442,0,0.4781666,12.17981,2.201582,-1
18,F,0,1,7,6,2,25,1,2509,0,0.7251933,12.1938,3.374,-1
18,F,0,1,7,7,1,26,2,4420,0,0.2723329,6.548377,2.27787,-1
18,F,0,1,7,8,2,28,4,1609,0,0.7027591,12.35444,3.209491,-1
18,F,0,1,8,1,1,31,3,3353,0,0.253759,6.163209,2.261832,-1
18,F,0,1,8,2,1,29,1,2187,0,4.518158E-08,6.153399,0,-1
18,F,0,1,8,3,2,30,2,1887,0,0.1836269,12.28554,0.8411642,-1
18,F,0,1,8,4,2,32,4,9999,0,-1,-1,-1,-1
18,F,0,1,8,5,2,29,1,2187,0,0.5693642,12.2036,2.646341,-1
18,F,0,1,8,6,1,30,2,1297,0,0.04986102,6.546404,0.4201138,-1
18,F,0,1,8,7,1,32,4,3009,0,0.2950962,6.441031,2.541835,-1
18,F,0,1,8,8,2,31,3,2731,0,0.97613,12.17173,4.539715,-1
18,F,0,1,9,1,2,36,4,1309,0,0.7585872,12.35236,3.440085,-1
18,F,0,1,9,2,1,34,2,3687,0,0.2768276,6.530432,2.317649,-1
18,F,0,1,9,3,1,36,4,4365,0,0.1339938,6.449795,1.150461,-1
18,F,0,1,9,4,2,35,3,6098,1,0.4599374,12.12553,2.119972,-1
18,F,0,1,9,5,1,33,1,4642,0,0.0134725,6.139946,0.1203313,-1
18,F,0,1,9,6,2,34,2,1609,0,0.3605129,12.29149,1.639128,-1
18,F,0,1,9,7,1,35,3,2553,0,1.889851E-07,6.168625,0,-1
18,F,0,1,9,8,2,33,1,1664,0,0.2929059,12.20206,1.361569,-1
18,F,0,1,10,1,2,38,2,1898,0,0.6897963,12.28532,3.184015,-1
18,F,0,1,10,2,2,37,1,1842,0,7.393741E-08,12.20284,0,-1
18,F,0,1,10,3,1,38,2,4120,0,0.279273,6.58212,2.324142,-1
18,F,0,1,10,4,2,40,4,5987,0,0.3361285,12.34843,1.537479,-1
18,F,0,1,10,5,1,37,1,5031,0,0.1750495,6.139385,1.591393,-1
18,F,0,1,10,6,2,39,3,3209,0,0.1010443,12.20005,0.4660423,-1
18,F,0,1,10,7,1,40,4,4976,2,2.607513E-07,6.434011,0,-1
18,F,0,1,10,8,1,39,3,3665,0,0.2165991,6.177908,1.921016,-1
18,F,0,1,11,1,1,42,2,4342,0,0.5641431,6.590601,4.684542,-1
18,F,0,1,11,2,2,43,3,3897,1,0.8829103,12.19512,4.046511,-1
18,F,0,1,11,3,1,44,4,4542,0,0.282966,6.431325,2.405257,-1
18,F,0,1,11,4,2,42,2,1787,0,0.3431041,12.31461,1.575822,-1
18,F,0,1,11,5,1,41,1,2076,0,0.04804374,6.164798,0.429328,-1
18,F,0,1,11,6,1,43,3,4164,0,0.3429917,6.168391,3.055053,-1
18,F,0,1,11,7,2,41,1,1531,0,0.8815089,12.21584,4.105893,-1
18,F,0,1,11,8,2,44,4,1220,0,0.112687,12.36077,0.5116726,-1
18,F,0,1,12,1,1,46,2,1431,0,0.5480862,6.550099,4.563642,-1
18,F,0,1,12,2,1,45,1,2764,0,0.2407653,6.174593,2.177986,-1
18,F,0,1,12,3,2,48,4,1920,0,0.4793906,12.36529,2.172588,-1
18,F,0,1,12,4,2,46,2,1198,0,0.4595891,12.30933,2.112296,-1
18,F,0,1,12,5,2,45,1,1575,0,0.2953394,12.21774,1.362,-1
18,F,0,1,12,6,1,47,3,3464,0,0.2433866,6.171361,2.160754,-1
18,F,0,1,12,7,1,48,4,2531,0,0.5351022,6.435094,4.61677,-1
18,F,0,1,12,8,2,47,3,4387,0,6.864301E-08,12.17252,0,-1
18,F,0,1,13,1,2,50,2,1276,0,0.008894036,12.30637,0.03426402,-1
18,F,0,1,13,2,2,51,3,1787,0,1.031896,12.20038,4.731102,-1
18,F,0,1,13,3,2,52,4,3765,0,0.4231499,12.2709,1.933506,-1
18,F,0,1,13,4,2,49,1,1720,0,0.1417397,12.19337,0.6564078,-1
18,F,0,1,13,5,1,52,4,5665,2,0.213104,6.447006,1.804176,-1
18,F,0,1,13,6,1,49,1,2043,0,1.125657E-07,6.166064,0,-1
18,F,0,1,13,7,1,50,2,1743,0,0.1370197,6.532263,1.161464,-1
18,F,0,1,13,8,1,51,3,3076,0,5.635662E-08,6.168018,0,-1
18,F,0,1,14,1,2,53,1,1853,0,0.2652288,12.20233,1.232259,-1
18,F,0,1,14,2,1,54,2,1354,0,6.645249E-08,6.545318,0,-1
18,F,0,1,14,3,1,55,3,2987,0,0.1650384,6.176412,1.465403,-1
18,F,0,1,14,4,1,53,1,1675,0,0.06474027,6.152181,0.5824909,-1
18,F,0,1,14,5,2,54,2,1131,0,0.7734076,12.29542,3.573031,-1
18,F,0,1,14,6,1,56,4,3309,0,0.2414157,6.451843,2.054142,-1
18,F,0,1,14,7,2,55,3,2098,0,0.5964621,12.18966,2.773893,-1
18,F,0,1,14,8,2,56,4,3398,0,0.3712794,12.36297,1.696621,-1
18,F,0,1,15,1,1,57,1,3309,0,0.1483947,6.148735,1.344066,-1
18,F,0,1,15,2,2,60,4,2131,0,0.3913783,12.36994,1.78246,-1
18,F,0,1,15,3,2,58,2,1987,0,0.927465,12.31164,4.264618,-1
18,F,0,1,15,4,2,59,3,3220,0,0.08817265,12.19564,0.4063823,-1
18,F,0,1,15,5,1,60,4,3620,0,0.3669249,6.445617,3.114076,-1
18,F,0,1,15,6,1,58,2,1375,0,0.2486593,6.556396,2.097325,-1
18,F,0,1,15,7,1,59,3,1665,0,0.1120866,6.181126,0.9954398,-1
18,F,0,1,15,8,2,57,1,1275,0,0.9059456,12.22621,4.210497,-1
18,F,0,1,16,1,2,63,3,2142,0,0.8005781,12.20808,3.666662,-1
18,F,0,1,16,2,2,61,1,2009,0,0.9317558,12.21746,4.257724,-1
18,F,0,1,16,3,2,64,4,1142,0,0.2822762,12.37566,1.279013,-1
18,F,0,1,16,4,1,62,2,2009,0,0.2434711,6.5529,2.041718,-1
18,F,0,1,16,5,1,64,4,3020,0,0.1267202,6.458309,1.077018,-1
18,F,0,1,16,6,2,62,2,1676,0,0.7888846,12.30482,3.639164,-1
18,F,0,1,16,7,1,61,1,2031,0,0.2012463,6.163711,1.801245,-1
18,F,0,1,16,8,1,63,3,1331,0,0.2912457,6.186722,2.586491,-1
18,F,0,1,17,1,3,66,2,1642,0,0.304697,6.55074,2.54476,-1
18,F,0,1,17,2,4,68,4,1031,0,0.919104,12.36849,4.155767,-1
18,F,0,1,17,3,3,67,3,2920,0,0.3163783,6.126843,2.79197,-1
18,F,0,1,17,4,3,68,4,2098,0,0.1979628,6.469861,1.673744,-1
18,F,0,1,17,5,3,65,1,5942,0,0.2496017,6.112419,2.219644,-1
18,F,0,1,17,6,4,67,3,2309,0,0.9396202,12.15522,4.342531,-1
18,F,0,1,17,7,4,65,1,4342,0,0.5871524,12.20315,2.729433,-1
18,F,0,1,17,8,4,66,2,3209,1,0.7332022,12.29208,3.375509,-1
18,F,0,1,18,1,4,69,1,1465,0,0.3722097,12.22279,1.728164,-1
18,F,0,1,18,2,3,71,3,1942,0,0.4461623,6.189502,3.956809,-1
18,F,0,1,18,3,3,70,2,1553,0,5.931164E-08,6.504803,0,-1
18,F,0,1,18,4,4,72,4,2486,0,0.1393804,12.37967,0.6321102,-1
18,F,0,1,18,5,3,69,1,2064,0,6.869644E-08,6.159702,0,-1
18,F,0,1,18,6,4,71,3,2598,0,7.98623E-08,12.2126,0,-1
18,F,0,1,18,7,3,72,4,3054,0,0.0476477,6.477557,0.4044518,-1
18,F,0,1,18,8,4,70,2,3698,1,1.204618E-07,12.36085,0,-1
18,F,0,1,19,1,3,76,4,3931,0,0.1150257,6.458083,0.9835745,-1
18,F,0,1,19,2,4,75,3,2387,0,0.01303416,12.13962,0.06255726,-1
18,F,0,1,19,3,4,73,1,1931,0,0.6454886,12.20579,3.0042,-1
18,F,0,1,19,4,4,74,2,2420,0,2.172624E-07,12.35394,0.01978234,-1
18,F,0,1,19,5,3,75,3,1520,0,0.4210468,6.134872,3.692206,-1
18,F,0,1,19,6,3,73,1,4309,0,8.236091E-08,6.103374,0,-1
18,F,0,1,19,7,3,74,2,1998,0,2.122397E-08,6.541089,0,-1
18,F,0,1,19,8,4,76,4,8276,6,3.489455E-07,12.31575,0,-1
18,F,0,1,20,1,4,77,1,1942,0,0.4968894,12.22739,2.305881,-1
18,F,0,1,20,2,3,80,4,3065,0,1.600219E-07,6.431446,0,-1
18,F,0,1,20,3,3,78,2,1853,0,0.0323578,6.555214,0.2712421,-1
18,F,0,1,20,4,4,79,3,1953,0,0.5036541,12.1914,2.341426,-1
18,F,0,1,20,5,4,78,2,1587,0,0.6068484,12.35626,2.781434,-1
18,F,0,1,20,6,4,80,4,9999,0,-1,-1,-1,-1
18,F,0,1,20,7,3,79,3,3554,0,0.1186508,6.216712,1.057214,-1
18,F,0,1,20,8,3,77,1,3176,1,0.1126545,6.105157,1.014907,-1
18,F,0,1,20,1,1,80,4,3187,0,3.248695E-07,6.491794,0,-1
18,F,0,1,20,2,2,78,2,1397,0,0.2475923,12.31076,1.119775,-1
18,F,0,1,20,3,2,79,3,2875,0,0.3887534,12.22786,1.793515,-1
18,F,0,1,20,4,1,78,2,1520,0,1.098655E-07,6.558976,0,-1
18,F,0,1,20,5,1,77,1,3153,0,0.4252162,6.176172,3.881915,-1
18,F,0,1,20,6,2,80,4,1353,0,0.003230581,12.38606,0,-1
18,F,0,1,20,7,2,77,1,1309,0,0.1347849,12.22126,0.6211812,-1
18,F,0,1,20,8,1,79,3,1831,0,0.1549306,6.209051,1.359267,-1
18,F,0,1,21,1,2,81,1,1543,1,0.3176524,12.21337,1.46967,-1
18,F,0,1,21,2,1,84,4,2687,0,0.4157261,6.480078,3.494015,-1
18,F,0,1,21,3,2,83,3,3731,0,0.207236,12.22177,0.949151,-1
18,F,0,1,21,4,2,84,4,1042,0,0.2120021,12.3829,0.9589957,-1
18,F,0,1,21,5,2,82,2,1142,0,0.5647225,12.3043,2.596763,-1
18,F,0,1,21,6,1,81,1,3709,0,2.224491E-08,6.155123,0,-1
18,F,0,1,21,7,1,82,2,3798,1,0.08086588,6.564002,0.6783969,-1
18,F,0,1,21,8,1,83,3,2298,0,0.1086204,6.19956,0.9669209,-1
18,F,0,1,22,1,2,88,4,3331,0,0.1544309,12.38229,0.699975,-1
18,F,0,1,22,2,1,86,2,1553,0,1.357368E-07,6.545196,0,-1
18,F,0,1,22,3,1,88,4,1687,0,0.5434415,6.483823,4.611464,-1
18,F,0,1,22,4,1,87,3,2775,0,0.08796848,6.196896,0.7878303,-1
18,F,0,1,22,5,1,85,1,3253,0,0.315987,6.169119,2.843242,-1
18,F,0,1,22,6,2,87,3,5509,1,0.1371687,12.09786,0.6388841,-1
18,F,0,1,22,7,2,85,1,1931,0,1.001644,12.20154,4.588853,-1
18,F,0,1,22,8,2,86,2,1276,0,0.993627,12.31885,4.566774,-1
18,F,0,1,23,1,2,92,4,1287,0,0.008068111,12.37145,0.03426402,-1
18,F,0,1,23,2,2,89,1,1242,0,0.4007893,12.21888,1.863091,-1
18,F,0,1,23,3,2,90,2,1131,0,0.1305193,12.31383,0.5954478,-1
18,F,0,1,23,4,1,89,1,1375,0,0.1238352,6.170595,1.115749,-1
18,F,0,1,23,5,1,90,2,2876,0,0.2656762,6.566,2.233619,-1
18,F,0,1,23,6,1,91,3,3376,0,0.004790784,6.17984,0.03956468,-1
18,F,0,1,23,7,1,92,4,3009,0,0.3571655,6.450876,3.023427,-1
18,F,0,1,23,8,2,91,3,3176,0,1.303142E-07,12.18904,0,-1
18,F,0,1,24,1,2,96,4,3354,1,0.537944,12.37462,2.435421,-1
18,F,0,1,24,2,2,94,2,1253,0,0.105457,12.31402,0.4805128,-1
18,F,0,1,24,3,2,95,3,5520,0,0.727586,12.2002,3.328079,-1
18,F,0,1,24,4,2,93,1,1220,0,0.7507266,12.22056,3.494576,-1
18,F,0,1,24,5,1,95,3,1953,0,0.2432731,6.168361,2.166363,-1
18,F,0,1,24,6,1,94,2,1353,0,0.0641079,6.581818,0.5322903,-1
18,F,0,1,24,7,1,96,4,1620,0,0.5225295,6.448798,4.44281,-1
18,F,0,1,24,8,1,93,1,1631,0,0.3453854,6.16417,3.160812,-1
18,F,0,1,25,1,1,99,3,3409,1,0.2689709,6.16582,2.377593,-1
18,F,0,1,25,2,1,100,4,3631,0,0.2005644,6.435915,1.716802,-1
18,F,0,1,25,3,1,97,1,2309,0,0.1193493,6.16855,1.070092,-1
18,F,0,1,25,4,2,98,2,1765,0,0.5122783,12.31804,2.34727,-1
18,F,0,1,25,5,2,99,3,9999,0,-1,-1,-1,-1
18,F,0,1,25,6,2,100,4,2676,1,0.08125043,12.37279,0.3695653,-1
18,F,0,1,25,7,2,97,1,5298,1,0.09891541,12.22881,0.456712,-1
18,F,0,1,25,8,1,98,2,1331,0,3.598012E-08,6.58029,0,-1
18,F,0,1,26,1,2,103,3,3220,0,0.09024553,12.18027,0.4154301,-1
18,F,0,1,26,2,1,104,4,2665,0,0.002254191,6.414646,0,-1
18,F,0,1,26,3,1,102,2,1731,0,1.477623E-07,6.582918,0,-1
18,F,0,1,26,4,1,103,3,4931,0,2.064113E-07,6.197424,0,-1
18,F,0,1,26,5,2,101,1,2253,0,0.2878965,12.22279,1.335448,-1
18,F,0,1,26,6,2,104,4,1109,0,1.541225E-07,12.37713,0,-1
18,F,0,1,26,7,1,101,1,3776,0,1.303257E-07,6.161137,0,-1
18,F,0,1,26,8,2,102,2,2698,1,0.4475285,12.31355,2.048418,-1
18,F,0,1,27,1,1,108,4,1976,0,0.3648443,6.444474,3.091172,-1
18,F,0,1,27,2,2,107,3,2798,0,0.05391388,12.19375,0.249446,-1
18,F,0,1,27,3,2,108,4,1876,0,0.9626215,12.38495,4.417521,-1
18,F,0,1,27,4,1,107,3,2053,0,0.4234702,6.175751,3.768527,-1
18,F,0,1,27,5,1,105,1,1720,0,0.04973076,6.172631,0.4458725,-1
18,F,0,1,27,6,1,106,2,1587,0,0.1676199,6.577224,1.392829,-1
18,F,0,1,27,7,2,105,1,1587,0,0.7810242,12.23,3.63308,-1
18,F,0,1,27,8,2,106,2,1887,0,0.3919825,12.32442,1.799071,-1
18,F,0,1,28,1,1,111,3,2353,0,0.1873187,6.167533,1.656821,-1
18,F,0,1,28,2,2,109,1,2520,1,0.3710988,12.21994,1.722379,-1
18,F,0,1,28,3,1,112,4,3020,0,8.255815E-08,6.422909,0,-1
18,F,0,1,28,4,1,109,1,2109,0,0.06587297,6.17963,0.5888388,-1
18,F,0,1,28,5,2,111,3,3309,0,0.6156339,12.2062,2.84028,-1
18,F,0,1,28,6,2,110,2,1298,0,0.1467641,12.32303,0.6691033,-1
18,F,0,1,28,7,2,112,4,1331,0,0.1770981,12.37899,0.8045425,-1
18,F,0,1,28,8,1,110,2,2976,0,0.3790151,6.591959,3.157403,-1
18,F,0,1,29,1,1,113,1,2098,0,4.583004E-08,6.178174,0,-1
18,F,0,1,29,2,2,115,3,1331,0,0.1258666,12.20925,0.5797972,-1
18,F,0,1,29,3,1,116,4,3442,0,8.5362E-08,6.435042,0,-1
18,F,0,1,29,4,2,114,2,2065,1,5.905004E-08,12.30819,0,-1
18,F,0,1,29,5,2,116,4,1775,0,1.259397E-07,12.38029,0,-1
18,F,0,1,29,6,2,113,1,1576,0,0.1428098,12.22047,0.6587883,-1
18,F,0,1,29,7,1,114,2,1087,0,0.04574491,6.571528,0.3815487,-1
18,F,0,1,29,8,1,115,3,2609,0,0.2553892,6.17237,2.254464,-1
18,F,0,1,30,1,2,117,1,1554,0,0.2204411,12.22804,1.017218,-1
18,F,0,1,30,2,2,118,2,1209,0,1.863693E-07,12.31839,0,-1
18,F,0,1,30,3,2,119,3,3431,0,0.2717927,12.18414,1.250388,-1
18,F,0,1,30,4,1,120,4,3009,0,0.2537938,6.431275,2.188654,-1
18,F,0,1,30,5,1,119,3,3598,0,0.21468,6.16675,1.900016,-1
18,F,0,1,30,6,2,120,4,2553,0,1.044648E-07,12.38267,0,-1
18,F,0,1,30,7,1,118,2,2886,0,6.363275E-08,6.544303,0,-1
18,F,0,1,30,8,1,117,1,1620,0,1.497041E-07,6.159994,0,-1
18,F,0,1,31,1,1,122,2,2053,0,0.436742,6.551389,3.6483,-1
18,F,0,1,31,2,1,123,3,1909,0,0.3264636,6.182251,2.941313,-1
18,F,0,1,31,3,1,124,4,1854,0,0.5095665,6.460929,4.309481,-1
18,F,0,1,31,4,2,121,1,1731,0,0.8488827,12.2083,3.946055,-1
18,F,0,1,31,5,2,122,2,909,0,0.2373899,12.30103,1.086785,-1
18,F,0,1,31,6,1,121,1,2998,0,0.3389491,6.17527,3.088638,-1
18,F,0,1,31,7,2,123,3,2187,0,0.2733464,12.21785,1.258033,-1
18,F,0,1,31,8,2,124,4,1009,0,0.4404853,12.36705,2.005841,-1
18,F,0,1,32,1,2,127,3,1731,0,0.4487528,12.1977,2.056047,-1
18,F,0,1,32,2,2,125,1,3865,0,0.2796727,12.21543,1.296488,-1
18,F,0,1,32,3,1,126,2,1665,0,0.1688559,6.545753,1.417617,-1
18,F,0,1,32,4,1,127,3,2376,0,1.175568E-07,6.169377,0.01978234,-1
18,F,0,1,32,5,2,128,4,3154,0,0.7938088,12.3746,3.626337,-1
18,F,0,1,32,6,1,125,1,5776,1,6.37309E-08,6.154058,0,-1
18,F,0,1,32,7,1,128,4,3942,1,0.198383,6.463703,1.682025,-1
18,F,0,1,32,8,2,126,2,1487,0,0.8756604,12.30909,4.026814,-1
18,F,0,1,33,1,1,129,1,1709,0,0.3314857,6.153297,2.960154,-1
18,F,0,1,33,2,2,131,3,2209,1,0.855078,12.2112,3.920515,-1
18,F,0,1,33,3,1,132,4,3742,0,0.1148142,6.454563,0.9839723,-1
18,F,0,1,33,4,2,130,2,1843,0,0.3883757,12.29424,1.778613,-1
18,F,0,1,33,5,2,132,4,1531,0,8.100065E-08,12.3781,0,-1
18,F,0,1,33,6,1,131,3,2353,0,0.308234,6.189656,2.736309,-1
18,F,0,1,33,7,1,130,2,1431,0,1.344222E-07,6.555988,0,-1
18,F,0,1,33,8,2,129,1,1998,0,6.782834E-08,12.20803,0,-1
18,F,0,1,34,1,2,135,3,4509,0,0.797321,12.13588,3.723153,-1
18,F,0,1,34,2,1,134,2,1554,0,0.2954268,6.543468,2.475753,-1
18,F,0,1,34,3,1,135,3,8564,0,1.352135E-07,6.019814,0,-1
18,F,0,1,34,4,1,133,1,2220,0,0.01924796,6.14851,0.1713202,-1
18,F,0,1,34,5,1,136,4,3987,0,0.2146845,6.442159,1.838028,-1
18,F,0,1,34,6,2,133,1,3774,0,0.6167363,12.22891,2.819459,-1
18,F,0,1,34,7,2,136,4,4698,0,0.6894264,12.36714,3.116338,-1
18,F,0,1,34,8,2,134,2,1165,0,0.3085344,12.31342,1.416374,-1
18,F,0,1,35,1,2,140,4,9999,0,-1,-1,-1,-1
18,F,0,1,35,2,2,137,1,4998,1,0.9077919,12.19073,4.227209,-1
18,F,0,1,35,3,2,138,2,1465,0,0.4032023,12.28715,1.856356,-1
18,F,0,1,35,4,1,140,4,2276,0,1.314867E-07,6.509717,0,-1
18,F,0,1,35,5,1,138,2,1576,0,0.1741122,6.540237,1.453873,-1
18,F,0,1,35,6,1,139,3,1665,0,0.3857687,6.210371,3.402833,-1
18,F,0,1,35,7,1,137,1,1331,0,0.2596506,6.154387,2.335484,-1
18,F,0,1,35,8,2,139,3,1831,0,0.1557903,12.22753,0.7162784,-1
18,F,0,1,37,1,3,148,4,1531,0,0.078187,6.517382,0.6587883,-1
18,F,0,1,37,2,4,146,2,2142,0,1.551846E-07,12.35773,0,-1
18,F,0,1,37,3,3,145,1,2276,0,0.4920966,6.140332,4.394762,-1
18,F,0,1,37,4,4,148,4,2120,0,0.6181493,12.39363,2.822859,-1
18,F,0,1,37,5,4,145,1,3742,0,0.6410602,12.22764,2.949819,-1
18,F,0,1,37,6,4,147,3,1253,0,0.8178802,12.25538,3.783824,-1
18,F,0,1,37,7,3,146,2,1554,0,2.297113E-07,6.547044,0,-1
18,F,0,1,37,8,3,147,3,3187,1,8.534212E-08,6.167172,0,-1
18,F,0,1,38,1,3,152,4,2187,0,6.85753E-08,6.546194,0,-1
18,F,0,1,38,2,3,149,1,1442,0,0.09835055,6.147655,0.8791551,-1
18,F,0,1,38,3,3,150,2,1465,0,3.87532E-08,6.506074,0,-1
18,F,0,1,38,4,4,149,1,1031,0,0.6830357,12.15916,3.148524,-1
18,F,0,1,38,5,4,151,3,1098,0,4.384495E-08,12.2367,0.01978234,-1
18,F,0,1,38,6,4,150,2,1063,0,0.01271033,12.35349,0.05233916,-1
18,F,0,1,38,7,3,151,3,1598,0,0.04771502,6.218599,0.4224361,-1
18,F,0,1,38,8,4,152,4,9999,0,-1,-1,-1,-1
18,F,0,1,39,1,4,153,1,2776,1,0.2504354,12.23278,1.14944,-1
18,F,0,1,39,2,4,156,4,2120,0,0.3307407,12.33442,1.493183,-1
18,F,0,1,39,3,3,154,2,1709,0,0.01437047,6.543568,0.1203313,-1
18,F,0,1,39,4,3,155,3,1565,0,0.05118271,6.152919,0.4528397,-1
18,F,0,1,39,5,3,156,4,2498,0,0.01637817,6.477545,0.1370561,-1
18,F,0,1,39,6,4,154,2,1331,0,0.6017635,12.307,2.75655,-1
18,F,0,1,39,7,4,155,3,2809,1,0.2051632,12.2442,0.9443973,-1
18,F,0,1,39,8,3,153,1,1442,0,0.01367668,6.182912,0.1219466,-1
18,F,0,1,40,1,3,158,2,2031,0,0.4886335,6.561915,4.138105,-1
18,F,0,1,40,2,3,160,4,2631,0,0.009536806,6.505013,0.08156469,-1
18,F,0,1,40,3,3,159,3,3953,0,0.2995247,6.203464,2.658959,-1
18,F,0,1,40,4,4,160,4,2242,0,1.044777,12.42265,4.778523,-1
18,F,0,1,40,5,4,157,1,1631,0,0.7259854,12.16106,3.388534,-1
18,F,0,1,40,6,4,159,3,2176,0,0.9857188,12.16558,4.602663,-1
18,F,0,1,40,7,3,157,1,3254,0,0.09384213,6.161533,0.8372003,-1
18,F,0,1,40,8,4,158,2,1142,0,0.5550254,12.37587,2.536902,-1
18,F,0,1,41,1,2,161,1,1953,1,3.701563E-08,12.23357,0,-1
18,F,0,1,41,2,2,164,4,909,0,6.793617E-08,12.39275,0,-1
18,F,0,1,41,3,2,163,3,1342,0,0.294951,12.23602,1.348282,-1
18,F,0,1,41,4,1,161,1,1576,0,1.01626E-07,6.178526,0,-1
18,F,0,1,41,5,2,162,2,2453,0,0.6115588,12.31809,2.809165,-1
18,F,0,1,41,6,1,163,3,1876,0,0.1911614,6.203113,1.710292,-1
18,F,0,1,41,7,1,164,4,2398,0,0.008444436,6.479971,0.06852804,-1
18,F,0,1,41,8,1,162,2,1409,0,0.1489424,6.569418,1.241435,-1
18,F,0,1,42,1,1,165,1,5309,1,0.1591522,6.175067,1.430398,-1
18,F,0,1,42,2,2,168,4,4631,1,0.91364,12.39108,4.169036,-1
18,F,0,1,42,3,2,165,1,1887,0,0.8457466,12.22649,3.889273,-1
18,F,0,1,42,4,2,166,2,1109,0,0.03343936,12.31633,0.1519511,-1
18,F,0,1,42,5,2,167,3,1320,0,0.868874,12.23907,4.006044,-1
18,F,0,1,42,6,1,168,4,2686,1,0.1733621,6.48939,1.446721,-1
18,F,0,1,42,7,1,167,3,1342,0,0.1115872,6.213999,0.9827783,-1
18,F,0,1,42,8,1,166,2,1165,0,0.3562371,6.570349,2.966429,-1
18,F,0,1,43,1,2,169,1,1087,0,0.2889287,12.22014,1.335448,-1
18,F,0,1,43,2,2,171,3,1709,1,0.9286999,12.22288,4.290214,-1
18,F,0,1,43,3,2,172,4,3220,3,0.7986717,12.39217,3.662014,-1
18,F,0,1,43,4,2,170,2,1276,0,0.9582257,12.32056,4.434558,-1
18,F,0,1,43,5,1,169,1,3109,0,0.2201998,6.192717,1.981298,-1
18,F,0,1,43,6,1,171,3,1420,0,0.4872218,6.207906,4.29947,-1
18,F,0,1,43,7,1,172,4,1898,1,0.3507443,6.476155,3.005698,-1
18,F,0,1,43,8,1,170,2,1020,0,8.492733E-08,6.568209,0,-1
18,F,0,1,44,1,1,173,1,5020,3,0.2979377,6.196507,2.710361,-1
18,F,0,1,44,2,2,174,2,942,0,0.7688496,12.33496,3.539391,-1
18,F,0,1,44,3,2,176,4,3987,1,2.718381E-08,12.395,0,-1
18,F,0,1,44,4,1,175,3,1965,0,0.0564611,6.194049,0.4996771,-1
18,F,0,1,44,5,2,173,1,3864,0,0.01651435,12.24217,0.07132626,-1
18,F,0,1,44,6,2,175,3,2187,1,0.0316154,12.22208,0.14537,-1
18,F,0,1,44,7,1,174,2,1086,0,0.06720862,6.576899,0.5630175,-1
18,F,0,1,44,8,1,176,4,1698,1,0.127821,6.464244,1.09593,-1
18,F,0,1,45,1,2,177,1,1265,0,0.3978212,12.23278,1.848327,-1
18,F,0,1,45,2,2,180,4,1009,0,0.7330711,12.386,3.304583,-1
18,F,0,1,45,3,1,179,3,1431,0,8.99125E-08,6.197152,0,-1
18,F,0,1,45,4,1,178,2,898,0,1.875711E-07,6.577003,0,-1
18,F,0,1,45,5,1,180,4,2109,0,0.1856705,6.468518,1.566855,-1
18,F,0,1,45,6,1,177,1,1497,0,0.2097485,6.203154,1.860674,-1
18,F,0,1,45,7,2,178,2,987,0,0.704213,12.33194,3.23755,-1
18,F,0,1,45,8,2,179,3,1342,0,0.4782545,12.22956,2.200515,-1
18,F,0,1,46,1,1,181,1,2620,0,0.4942954,6.185712,4.353522,-1
18,F,0,1,46,2,2,182,2,2875,1,0.2496542,12.3185,1.14261,-1
18,F,0,1,46,3,1,184,4,3453,0,0.4648755,6.479137,3.905301,-1
18,F,0,1,46,4,2,183,3,1498,0,0.6244177,12.21808,2.867169,-1
18,F,0,1,46,5,2,181,1,2842,1,0.4138072,12.24973,1.91295,-1
18,F,0,1,46,6,2,184,4,6020,1,0.5787846,12.30663,2.670125,-1
18,F,0,1,46,7,1,182,2,2476,0,0.4590869,6.574975,3.845271,-1
18,F,0,1,46,8,1,183,3,1520,0,0.03017218,6.190113,0.268341,-1
18,F,0,1,47,1,1,185,1,1875,0,0.2823515,6.167871,2.561702,-1
18,F,0,1,47,2,1,186,2,1031,0,1.244035E-07,6.568919,0,-1
18,F,0,1,47,3,2,185,1,2353,1,0.9625306,12.21475,4.455885,-1
18,F,0,1,47,4,2,188,4,1365,1,1.460212E-07,12.38833,0,-1
18,F,0,1,47,5,2,187,3,1108,0,0.1370084,12.22334,0.6327289,-1
18,F,0,1,47,6,1,188,4,942,0,0.0485566,6.477662,0.4083038,-1
18,F,0,1,47,7,2,186,2,975,0,0.4980047,12.32257,2.293881,-1
18,F,0,1,47,8,1,187,3,1386,0,0.4639887,6.198735,4.129103,-1
18,F,0,1,48,1,1,189,1,1431,0,0.112319,6.181325,1.0093,-1
18,F,0,1,48,2,1,190,2,1298,0,0.1625982,6.573405,1.363436,-1
18,F,0,1,48,3,1,191,3,3731,2,9.001962E-08,6.196159,0,-1
18,F,0,1,48,4,2,190,2,1019,0,0.6122417,12.31425,2.812716,-1
18,F,0,1,48,5,2,192,4,1198,0,0.6943388,12.38961,3.167432,-1
18,F,0,1,48,6,2,189,1,798,0,0.890677,12.22684,4.142032,-1
18,F,0,1,48,7,2,191,3,1220,0,0.5023496,12.21229,2.32692,-1
18,F,0,1,48,8,1,192,4,1965,0,0.1408658,6.462007,1.190419,-1
18,F,0,1,49,1,2,194,2,820,0,0.8573174,12.31655,3.940046,-1
18,F,0,1,49,2,1,193,1,3231,0,7.965358E-08,6.181246,0,-1
18,F,0,1,49,3,2,195,3,2598,1,0.8527034,12.22808,3.90941,-1
18,F,0,1,49,4,2,193,1,942,0,0.3247456,12.24216,1.493969,-1
18,F,0,1,49,5,2,196,4,1054,0,0.7041916,12.39339,3.211625,-1
18,F,0,1,49,6,1,194,2,1109,0,1.468224E-07,6.573801,0,-1
18,F,0,1,49,7,1,195,3,1898,0,0.2259931,6.209733,1.999489,-1
18,F,0,1,49,8,1,196,4,4976,1,0.4117272,6.464834,3.490764,-1
18,F,0,1,50,1,2,199,3,1542,1,0.396167,12.23865,1.807644,-1
18,F,0,1,50,2,1,197,1,3087,0,0.1265747,6.168263,1.136256,-1
18,F,0,1,50,3,2,200,4,1942,1,0.5076122,12.39102,2.320856,-1
18,F,0,1,50,4,1,198,2,1398,0,0.07198505,6.563593,0.6010084,-1
18,F,0,1,50,5,1,199,3,898,0,0.2818217,6.206893,2.488449,-1
18,F,0,1,50,6,1,200,4,1742,0,1.304623E-07,6.475243,0,-1
18,F,0,1,50,7,2,197,1,1187,0,0.2092914,12.2463,0.9620516,-1
18,F,0,1,50,8,2,198,2,1109,0,0.8372469,12.3198,3.846646,-1
18,F,0,1,51,1,2,201,1,4853,0,0.5993757,12.22894,2.739812,-1
18,F,0,1,51,2,2,203,3,1431,0,0.6326851,12.22873,2.934583,-1
18,F,0,1,51,3,1,202,2,2398,0,0.1192875,6.57431,1.003272,-1
18,F,0,1,51,4,1,204,4,1420,0,0.1210564,6.467302,1.029076,-1
18,F,0,1,51,5,1,203,3,1265,0,0.16115,6.204909,1.432175,-1
18,F,0,1,51,6,1,201,1,1398,0,0.1158059,6.181634,1.040987,-1
18,F,0,1,51,7,2,204,4,1076,0,0.5827647,12.39905,2.656086,-1
18,F,0,1,51,8,2,202,2,1009,0,0.4646389,12.3216,2.13918,-1
18,F,0,1,52,1,1,207,3,1609,1,1.307645E-07,6.200118,0,-1
18,F,0,1,52,2,1,206,2,1087,0,0.3427359,6.580815,2.85005,-1
18,F,0,1,52,3,2,208,4,1609,0,0.2910918,12.39642,1.316707,-1
18,F,0,1,52,4,2,206,2,864,0,0.4235429,12.3266,1.943803,-1
18,F,0,1,52,5,1,205,1,1454,0,0.3859073,6.177366,3.433135,-1
18,F,0,1,52,6,1,208,4,1298,0,0.4565679,6.467893,3.918766,-1
18,F,0,1,52,7,2,207,3,2920,0,0.5517346,12.22713,2.531418,-1
18,F,0,1,52,8,2,205,1,4198,0,0.1280243,12.23049,0.5881739,-1
18,F,0,1,53,1,2,211,3,1765,0,0.3910049,12.22539,1.813697,-1
18,F,0,1,53,2,1,209,1,2565,0,0.341054,6.186238,3.108224,-1
18,F,0,1,53,3,1,212,4,1253,0,0.3046118,6.474166,2.610745,-1
18,F,0,1,53,4,2,210,2,1887,1,0.081821,12.31845,0.3711503,-1
18,F,0,1,53,5,2,209,1,1698,0,1.014893,12.2308,4.695318,-1
18,F,0,1,53,6,1,211,3,3309,1,0.4645385,6.202826,4.174623,-1
18,F,0,1,53,7,2,212,4,1087,0,1.749091E-07,12.3927,0,-1
18,F,0,1,53,8,1,210,2,1198,0,0.03467793,6.572086,0.289391,-1
18,F,0,1,54,1,2,215,3,953,0,1.013085,12.23132,4.633245,-1
18,F,0,1,54,2,1,214,2,4098,2,0.4071468,6.584007,3.429654,-1
18,F,0,1,54,3,1,216,4,2631,0,1.28873E-07,6.470737,0,-1
18,F,0,1,54,4,2,213,1,1575,1,0.2689739,12.2328,1.237804,-1
18,F,0,1,54,5,2,216,4,953,0,1.669204E-07,12.39014,0,-1
18,F,0,1,54,6,1,213,1,3165,1,0.2052417,6.180425,1.857516,-1
18,F,0,1,54,7,1,215,3,2331,0,0.452641,6.201782,4.06775,-1
18,F,0,1,54,8,2,214,2,3342,2,0.3802236,12.30962,1.715091,-1
18,F,0,1,55,1,1,217,1,1331,0,0.3562226,6.175962,3.169718,-1
18,F,0,1,55,2,1,218,2,1720,0,0.4618843,6.573461,3.845628,-1
18,F,0,1,55,3,2,219,3,3287,1,0.1153093,12.22098,0.533025,-1
18,F,0,1,55,4,1,220,4,3331,1,1.493838E-07,6.485214,0,-1
18,F,0,1,55,5,1,219,3,1420,0,0.04012289,6.197171,0.3560827,-1
18,F,0,1,55,6,2,217,1,1031,0,0.3160588,12.23257,1.453334,-1
18,F,0,1,55,7,2,220,4,854,0,0.936157,12.40072,4.27993,-1
18,F,0,1,55,8,2,218,2,953,0,0.6448001,12.31979,2.961476,-1
18,F,0,1,56,1,2,224,4,931,0,0.7483031,12.39294,3.413059,-1
18,F,0,1,56,2,2,223,3,3487,1,0.3021635,12.22697,1.386492,-1
18,F,0,1,56,3,1,221,1,1387,0,0.3939877,6.18125,3.564582,-1
18,F,0,1,56,4,1,223,3,2186,0,0.3880186,6.214498,3.432222,-1
18,F,0,1,56,5,1,224,4,1620,0,0.2147881,6.476281,1.82059,-1
18,F,0,1,56,6,2,222,2,1820,0,0.1679282,12.28376,0.7659171,-1
18,F,0,1,56,7,2,221,1,1331,0,0.1927092,12.21183,0.8899944,-1
18,F,0,1,56,8,1,222,2,2253,1,0.4197334,6.573033,3.494632,-1
18,F,0,1,57,1,4,227,3,9953,2,0.3967819,12.15294,1.824991,-1
18,F,0,1,57,2,3,226,2,1798,0,0.01793884,6.546924,0.1493534,-1
18,F,0,1,57,3,4,225,1,1220,0,0.4839817,12.17201,2.216202,-1
18,F,0,1,57,4,4,228,4,1120,0,0.1707692,12.39574,0.7773286,-1
18,F,0,1,57,5,4,226,2,1287,0,0.6778614,12.315,3.114893,-1
18,F,0,1,57,6,3,228,4,2109,0,6.833331E-08,6.465857,0,-1
18,F,0,1,57,7,3,225,1,1476,0,0.1312688,6.181877,1.168686,-1
18,F,0,1,57,8,3,227,3,3631,0,0.2557086,6.200072,2.255593,-1
18,F,0,1,58,1,3,229,1,1198,0,0.1763477,6.105768,1.595568,-1
18,F,0,1,58,2,4,232,4,1143,0,0.4572887,12.38301,2.086472,-1
18,F,0,1,58,3,3,230,2,1120,0,0.1028864,6.550231,0.8677295,-1
18,F,0,1,58,4,3,232,4,2420,0,0.2834601,6.502318,2.388271,-1
18,F,0,1,58,5,4,230,2,1054,0,0.9437042,12.3141,4.367312,-1
18,F,0,1,58,6,3,231,3,1542,0,0.3037999,6.19855,2.685038,-1
18,F,0,1,58,7,4,229,1,2798,2,0.5497543,12.16001,2.541219,-1
18,F,0,1,58,8,4,231,3,2753,0,0.4288267,12.24352,1.98347,-1
18,F,0,1,59,1,4,236,4,1265,0,0.96637,12.41303,4.417122,-1
18,F,0,1,59,2,4,234,2,1376,0,0.4335201,12.36095,1.964035,-1
18,F,0,1,59,3,4,235,3,1253,0,0.5949662,12.16769,2.743453,-1
18,F,0,1,59,4,3,234,2,4809,0,0.2641942,6.556587,2.229585,-1
18,F,0,1,59,5,3,236,4,2731,0,0.301481,6.507565,2.546451,-1
18,F,0,1,59,6,3,233,1,1420,0,0.2847109,6.117431,2.529716,-1
18,F,0,1,59,7,3,235,3,1798,1,0.006815029,6.163601,0.06255726,-1
18,F,0,1,59,8,4,233,1,2642,0,0.4895255,12.23561,2.248292,-1
18,F,0,1,60,1,3,238,2,1209,0,0.4040618,6.566143,3.408581,-1
18,F,0,1,60,2,4,240,4,3831,1,0.9027154,12.34221,4.164382,-1
18,F,0,1,60,3,4,238,2,2175,0,0.5104395,12.34294,2.320012,-1
18,F,0,1,60,4,3,237,1,1398,0,0.2760532,6.107075,2.456945,-1
18,F,0,1,60,5,3,240,4,1631,0,0.01132985,6.511061,0.09487279,-1
18,F,0,1,60,6,4,239,3,1220,0,0.2764524,12.17428,1.267331,-1
18,F,0,1,60,7,4,237,1,1742,0,0.5015141,12.16267,2.310714,-1
18,F,0,1,60,8,3,239,3,2987,2,1.533161E-07,6.152318,0,-1
18,F,0,1,61,1,1,242,2,3442,1,1.166829E-07,6.565028,0,-1
18,F,0,1,61,2,2,241,1,1187,0,0.5107355,12.22236,2.354098,-1
18,F,0,1,61,3,1,243,3,1476,0,0.4154665,6.206967,3.665594,-1
18,F,0,1,61,4,2,244,4,4942,0,0.4010807,12.38644,1.82949,-1
18,F,0,1,61,5,1,241,1,1331,0,0.4763446,6.171741,4.242794,-1
18,F,0,1,61,6,2,243,3,2376,1,0.9928197,12.1758,4.61974,-1
18,F,0,1,61,7,2,242,2,1342,0,0.7347444,12.30536,3.379103,-1
18,F,0,1,61,8,1,244,4,1898,0,0.1375379,6.466967,1.161633,-1
18,F,0,1,62,1,1,246,2,2887,0,0.262507,6.570509,2.200248,-1
18,F,0,1,62,2,1,248,4,3787,0,0.006245177,6.467853,0.04845664,-1
18,F,0,1,62,3,2,245,1,1142,0,0.5094079,12.22783,2.34702,-1
18,F,0,1,62,4,2,248,4,2097,0,0.5956632,12.39558,2.691664,-1
18,F,0,1,62,5,2,247,3,1209,0,0.2242016,12.21625,1.032114,-1
18,F,0,1,62,6,2,246,2,1598,1,0.6293879,12.31205,2.833794,-1
18,F,0,1,62,7,1,245,1,3409,0,0.4308881,6.175498,3.896265,-1
18,F,0,1,62,8,1,247,3,1776,0,0.2557105,6.194929,2.261745,-1
18,F,0,1,1,1,8,4,4,12696,0,5.872455,12.388,28.29712,-1
18,F,0,1,1,2,5,1,1,10109,0,0.3429892,6.170901,3.035639,-1
18,F,0,1,1,3,8,3,3,5376,0,10.40064,12.20528,58.44546,-1
18,F,0,1,1,4,5,2,2,5009,0,0.1484265,6.5686,1.251639,-1
18,F,0,1,1,5,6,3,3,11164,0,2.497011,12.2354,11.45172,-1
18,F,0,1,1,6,6,4,4,15053,0,2.535212,12.38603,11.54238,-1
18,F,0,1,1,7,6,2,2,10587,0,6.518374,12.3138,31.9619,-1
18,F,0,1,1,8,7,3,3,9598,0,4.095192,6.224238,41.14316,-1
18,F,0,1,1,9,7,1,1,12164,0,5.912566,6.15404,73.8964,-1
18,F,0,1,1,10,8,2,2,4853,0,5.737166,12.30448,27.79219,-1
18,F,0,1,1,11,5,4,4,6654,0,6.132024,6.520989,70.11071,-1
18,F,0,1,1,12,6,1,1,4764,0,4.331858,12.24515,20.67969,-1
18,F,0,1,1,13,5,3,3,16175,0,4.744684,6.236306,49.53623,-1
18,F,0,1,1,14,8,1,1,16620,0,0.2664365,12.17657,1.221413,-1
18,F,0,1,1,15,7,4,4,5842,0,0.541892,6.462745,4.540061,-1
18,F,0,1,1,16,7,2,2,9465,0,6.225835,6.623802,70.03791,-1
18,F,0,1,2,1,7,2,2,10076,0,5.967962,6.547808,65.70571,-1
18,F,0,1,2,2,8,1,1,6453,0,0.4375662,12.17248,2.004669,-1
18,F,0,1,2,3,7,3,3,6442,0,0.2725923,6.187913,2.412894,-1
18,F,0,1,2,4,7,1,1,8242,0,0.4755565,6.121772,4.260621,-1
18,F,0,1,2,5,5,2,2,2609,0,0.8244697,6.57795,6.942972,-1
18,F,0,1,2,6,5,1,1,14020,0,2.022894,6.152771,18.62293,-1
18,F,0,1,2,7,7,4,4,5931,0,5.481539,6.49332,57.58431,-1
18,F,0,1,2,8,6,3,3,6120,0,2.077034,12.21893,9.518678,-1
18,F,0,1,2,9,6,4,4,8319,0,5.642343,12.37373,27.12888,-1
18,F,0,1,2,10,6,2,2,5998,0,4.066419,12.27651,19.15922,-1
18,F,0,1,2,11,6,1,1,14798,0,5.051305,12.22285,24.34367,-1
18,F,0,1,2,12,8,3,3,20753,0,2.248977,12.16617,10.54904,-1
18,F,0,1,2,13,5,4,4,6809,0,5.139965,6.486842,52.40734,-1
18,F,0,1,2,14,5,3,3,9298,0,4.303312,6.186422,43.78433,-1
18,F,0,1,2,15,8,4,4,10776,0,3.19239,12.40661,14.65006,-1
18,F,0,1,2,16,8,2,2,3509,0,6.076074,12.33249,29.51743,-1
