Age, Gender, Awareness Type, Session, Block, Trial, Set, Pattern, Quadrant, Response Time, Num Mistakes, Distance From Target, Camera Distance From Target, Angle Error (Degrees), FC Response
18,F,0,1,1,1,2,1,1,9999,0,-1,-1,-1,-1
18,F,0,1,1,2,2,3,3,3187,0,0.368151,12.28025,1.672106,-1
18,F,0,1,1,3,2,4,4,5120,2,0.9540771,12.36472,4.314068,-1
18,F,0,1,1,4,2,2,2,3664,0,0.655433,12.26155,3.02886,-1
18,F,0,1,1,5,1,3,3,5397,1,0.5093555,6.089758,4.678893,-1
18,F,0,1,1,6,1,2,2,2653,0,0.2586093,6.445518,2.228092,-1
18,F,0,1,1,7,1,4,4,4075,1,0.4361946,6.483276,3.640939,-1
18,F,0,1,1,8,1,1,1,3597,0,1.216087E-07,6.222518,0,-1
18,F,0,1,2,1,2,8,4,9999,3,-1,-1,-1,-1
18,F,0,1,2,2,2,7,3,1397,0,0.6493376,12.26312,2.958301,-1
18,F,0,1,2,3,2,6,2,2976,0,0.3844649,12.32806,1.76669,-1
18,F,0,1,2,4,2,5,1,3320,0,0.6696492,12.13534,3.095412,-1
18,F,0,1,2,5,1,7,3,1853,0,0.0309242,6.139297,0.2748253,-1
18,F,0,1,2,6,1,6,2,4265,1,0.3883617,6.517666,3.267765,-1
18,F,0,1,2,7,1,5,1,3353,0,1.799264E-08,6.22843,0,-1
18,F,0,1,2,8,1,8,4,5609,3,0.473577,6.512805,3.922762,-1
18,F,0,1,3,1,1,11,3,2142,0,0.01689324,6.103199,0.1519511,-1
18,F,0,1,3,2,2,9,1,9999,0,-1,-1,-1,-1
18,F,0,1,3,3,1,10,2,3442,0,0.2597415,6.507652,2.166363,-1
18,F,0,1,3,4,1,12,4,2275,0,0.4003907,6.539587,3.355964,-1
18,F,0,1,3,5,2,11,3,1364,0,0.7628719,12.25129,3.474573,-1
18,F,0,1,3,6,2,12,4,2387,1,0.9972321,12.41822,4.494401,-1
18,F,0,1,3,7,2,10,2,1798,0,0.4747041,12.30006,2.169433,-1
18,F,0,1,3,8,1,9,1,2420,0,1.601505E-07,6.223029,0,-1
18,F,0,1,4,1,2,16,4,2731,1,0.3429658,12.40425,1.546237,-1
18,F,0,1,4,2,2,14,2,1598,0,0.1276418,12.28056,0.5824909,-1
18,F,0,1,4,3,1,13,1,2642,0,0.2655232,6.214351,2.347437,-1
18,F,0,1,4,4,1,14,2,2787,0,0.305255,6.491398,2.55428,-1
18,F,0,1,4,5,2,15,3,6853,0,0.3158833,12.25305,1.455084,-1
18,F,0,1,4,6,1,16,4,2465,0,0.3658886,6.552255,3.06548,-1
18,F,0,1,4,7,2,13,1,4575,0,0.7279425,12.1076,3.415238,-1
18,F,0,1,4,8,1,15,3,2431,0,0.2642962,6.131023,2.345769,-1
18,F,0,1,5,1,1,17,1,2697,0,0.2827491,6.227705,2.492457,-1
18,F,0,1,5,2,2,20,4,2686,1,0.9014011,12.42045,4.062306,-1
18,F,0,1,5,3,2,19,3,3809,1,0.9803693,12.23852,4.471682,-1
18,F,0,1,5,4,2,18,2,1553,0,0.3665722,12.28944,1.679929,-1
18,F,0,1,5,5,1,20,4,8508,6,0.2051472,6.623429,1.684234,-1
18,F,0,1,5,6,1,18,2,2786,0,0.5140142,6.516461,4.268428,-1
18,F,0,1,5,7,1,19,3,2908,0,0.4965705,6.152512,4.441664,-1
18,F,0,1,5,8,2,17,1,2331,0,0.2956281,12.12427,1.379275,-1
18,F,0,1,6,1,1,22,2,1631,0,0.0241455,6.530088,0.2027088,-1
18,F,0,1,6,2,1,21,1,3342,0,0.3420881,6.230491,3.022261,-1
18,F,0,1,6,3,1,23,3,1720,0,0.07475792,6.166062,0.6575991,-1
18,F,0,1,6,4,2,24,4,2987,0,0.9320117,12.47093,4.232951,-1
18,F,0,1,6,5,2,22,2,1308,0,0.6883233,12.31723,3.124745,-1
18,F,0,1,6,6,2,23,3,1264,0,0.9324144,12.27007,4.262643,-1
18,F,0,1,6,7,1,24,4,7220,4,0.4092409,6.468368,3.416155,-1
18,F,0,1,6,8,2,21,1,5275,0,0.340486,12.0629,1.598019,-1
18,F,0,1,7,1,2,28,4,2686,1,0.8223755,12.34546,3.727516,-1
18,F,0,1,7,2,2,26,2,3287,0,0.99521,12.24444,4.595592,-1
18,F,0,1,7,3,1,27,3,6120,0,0.0671742,6.131516,0.598725,-1
18,F,0,1,7,4,1,26,2,4953,1,0.2068243,6.421844,1.753681,-1
18,F,0,1,7,5,1,25,1,3520,0,2.698349E-08,6.181694,0,-1
18,F,0,1,7,6,2,27,3,3531,2,0.7221062,12.18634,3.351235,-1
18,F,0,1,7,7,1,28,4,5731,2,0.1339008,6.541873,1.121521,-1
18,F,0,1,7,8,2,25,1,4698,1,0.3805342,12.09917,1.779163,-1
18,F,0,1,8,1,2,32,4,7353,2,0.1512668,12.36045,0.6847132,-1
18,F,0,1,8,2,2,29,1,2454,0,2.396768E-07,12.0891,0,-1
18,F,0,1,8,3,1,32,4,2965,0,0.4138321,6.458567,3.459778,-1
18,F,0,1,8,4,2,31,3,2464,0,0.9568113,12.2022,4.421465,-1
18,F,0,1,8,5,1,29,1,4631,0,0.4991588,6.209885,4.413529,-1
18,F,0,1,8,6,2,30,2,3365,1,0.638149,12.24515,2.919334,-1
18,F,0,1,8,7,1,31,3,4387,0,0.0983443,6.062345,0.8778186,-1
18,F,0,1,8,8,1,30,2,5521,1,0.07742422,6.41942,0.6682253,-1
18,F,0,1,9,1,2,35,3,1798,0,0.7632304,12.20525,3.511121,-1
18,F,0,1,9,2,2,33,1,4920,0,0.807687,12.0431,3.812849,-1
18,F,0,1,9,3,2,36,4,1987,0,0.6769711,12.35785,3.056334,-1
18,F,0,1,9,4,1,34,2,1597,0,0.3302101,6.417826,2.78776,-1
18,F,0,1,9,5,1,33,1,9320,3,0.1269884,6.297086,1.106238,-1
18,F,0,1,9,6,2,34,2,1632,0,0.6337802,12.22299,2.904006,-1
18,F,0,1,9,7,1,35,3,3820,1,0.008587983,6.195353,0.07401875,-1
18,F,0,1,9,8,1,36,4,2465,0,0.1887807,6.464566,1.584121,-1
18,F,0,1,10,1,1,39,3,3542,1,0.2841375,6.125513,2.560861,-1
18,F,0,1,10,2,1,37,1,1454,0,0.09822369,6.187968,0.8704314,-1
18,F,0,1,10,3,2,38,2,1264,0,0.6940789,12.25527,3.160192,-1
18,F,0,1,10,4,2,40,4,1420,0,0.4161559,12.35901,1.881176,-1
18,F,0,1,10,5,2,39,3,1409,0,0.4548526,12.15489,2.107936,-1
18,F,0,1,10,6,1,38,2,1209,0,0.2229005,6.441211,1.918875,-1
18,F,0,1,10,7,1,40,4,4787,2,0.06463549,6.401631,0.5528469,-1
18,F,0,1,10,8,2,37,1,5075,0,0.7754546,12.10885,3.65109,-1
18,F,0,1,11,1,2,44,4,3676,2,1.02082,12.324,4.669631,-1
18,F,0,1,11,2,2,43,3,3565,1,1.025424,12.20736,4.747677,-1
18,F,0,1,11,3,2,41,1,3709,0,0.656748,12.09587,3.083817,-1
18,F,0,1,11,4,2,42,2,2431,0,0.1987209,12.25023,0.906766,-1
18,F,0,1,11,5,1,41,1,3153,0,0.4642855,6.185093,4.119417,-1
18,F,0,1,11,6,1,44,4,4965,2,0.408447,6.414872,3.464246,-1
18,F,0,1,11,7,1,42,2,4886,1,0.1062618,6.406403,0.9151434,-1
18,F,0,1,11,8,1,43,3,4376,0,0.4466399,6.083294,4.089309,-1
18,F,0,1,12,1,1,46,2,2976,0,0.2330785,6.411187,1.992036,-1
18,F,0,1,12,2,2,45,1,2864,0,0.7829605,12.04755,3.684455,-1
18,F,0,1,12,3,1,47,3,2965,1,0.3267474,6.130237,2.851217,-1
18,F,0,1,12,4,2,46,2,4087,0,0.1633235,12.27842,0.7501709,-1
18,F,0,1,12,5,2,48,4,3631,0,0.9686579,12.36558,4.366998,-1
18,F,0,1,12,6,1,45,1,2597,0,0.3804396,6.151918,3.372897,-1
18,F,0,1,12,7,1,48,4,2209,0,0.545319,6.498584,4.522857,-1
18,F,0,1,12,8,2,47,3,1332,0,0.6312053,12.18979,2.888257,-1
18,F,0,1,13,1,2,50,2,4053,1,0.747836,12.21502,3.463058,-1
18,F,0,1,13,2,2,49,1,1487,0,0.7269858,12.06042,3.379277,-1
18,F,0,1,13,3,2,52,4,5520,2,0.5683173,12.33493,2.564833,-1
18,F,0,1,13,4,1,49,1,5076,2,0.2601112,6.134216,2.319759,-1
18,F,0,1,13,5,1,51,3,9999,0,-1,-1,-1,-1
18,F,0,1,13,6,1,50,2,1364,0,0.1082982,6.44318,0.9183452,-1
18,F,0,1,13,7,1,52,4,2353,1,0.1169256,6.495139,0.9819816,-1
18,F,0,1,13,8,2,51,3,1442,0,1.043911,12.18948,4.780531,-1
18,F,0,1,14,1,2,54,2,1342,0,0.4879359,12.24117,2.22352,-1
18,F,0,1,14,2,1,55,3,2898,0,0.2674679,6.084934,2.378992,-1
18,F,0,1,14,3,1,54,2,3476,1,0.005241687,6.417791,0.04423466,-1
18,F,0,1,14,4,1,56,4,4520,3,0.3483772,6.397151,2.993364,-1
18,F,0,1,14,5,2,53,1,2265,0,0.2052626,12.07427,0.9606267,-1
18,F,0,1,14,6,2,55,3,1753,0,0.7895525,12.1723,3.646797,-1
18,F,0,1,14,7,1,53,1,2009,0,0.4246026,6.197346,3.739474,-1
18,F,0,1,14,8,2,56,4,6442,0,0.4688219,12.39047,2.116461,-1
18,F,0,1,15,1,1,57,1,2698,1,0.4164799,6.149856,3.733552,-1
18,F,0,1,15,2,1,59,3,1776,0,0.3756034,6.059222,3.386337,-1
18,F,0,1,15,3,2,58,2,1365,0,0.8024634,12.24251,3.657948,-1
18,F,0,1,15,4,2,57,1,2364,0,0.4001882,12.07463,1.86141,-1
18,F,0,1,15,5,1,60,4,4542,0,0.352842,6.483644,2.973943,-1
18,F,0,1,15,6,1,58,2,2487,0,0.508531,6.425412,4.301383,-1
18,F,0,1,15,7,2,60,4,5765,0,0.55759,12.37111,2.538522,-1
18,F,0,1,15,8,2,59,3,3620,2,0.1248689,12.21454,0.5743721,-1
18,F,0,1,16,1,1,62,2,1920,0,0.3126955,6.438809,2.689481,-1
18,F,0,1,16,2,2,61,1,2331,0,0.9778506,12.07243,4.548337,-1
18,F,0,1,16,3,2,63,3,1265,0,0.5900149,12.19486,2.728931,-1
18,F,0,1,16,4,1,61,1,5142,2,0.05340192,6.160462,0.4722982,-1
18,F,0,1,16,5,1,64,4,3520,0,0.3017595,6.490133,2.557878,-1
18,F,0,1,16,6,1,63,3,1853,0,0.2396488,6.0799,2.173398,-1
18,F,0,1,16,7,2,62,2,1653,0,0.3262214,12.23205,1.493838,-1
18,F,0,1,16,8,2,64,4,1486,0,0.1354829,12.36133,0.6158028,-1
18,F,0,1,17,1,4,67,3,2653,1,0.2651779,12.19502,1.215953,-1
18,F,0,1,17,2,4,65,1,3754,0,0.03044969,12.05458,0.1412742,-1
18,F,0,1,17,3,4,66,2,2520,0,0.7104113,12.20596,3.219418,-1
18,F,0,1,17,4,3,68,4,2631,1,0.47399,6.490716,3.99797,-1
18,F,0,1,17,5,3,66,2,2965,0,0.1939982,6.440025,1.654102,-1
18,F,0,1,17,6,3,67,3,1564,0,0.179948,6.076751,1.627145,-1
18,F,0,1,17,7,4,68,4,1031,0,0.5403988,12.32707,2.437269,-1
18,F,0,1,17,8,3,65,1,1987,0,0.1752198,6.171882,1.532379,-1
18,F,0,1,18,1,3,72,4,1864,0,0.24847,6.493849,2.115721,-1
18,F,0,1,18,2,4,71,3,6120,0,0.2903978,12.15286,1.339691,-1
18,F,0,1,18,3,3,69,1,4131,1,0.2106355,6.160323,1.873253,-1
18,F,0,1,18,4,3,71,3,8387,0,0.3945839,6.136038,3.591178,-1
18,F,0,1,18,5,4,72,4,3986,0,0.126001,12.38615,0.5726661,-1
18,F,0,1,18,6,4,70,2,2676,2,0.4933035,12.16817,2.26287,-1
18,F,0,1,18,7,4,69,1,1609,0,0.3776643,12.01346,1.765914,-1
18,F,0,1,18,8,3,70,2,3031,0,0.163745,6.442233,1.386775,-1
18,F,0,1,19,1,4,75,3,3465,1,1.006765,12.22654,4.663083,-1
18,F,0,1,19,2,3,76,4,3864,0,0.2929752,6.519123,2.482701,-1
18,F,0,1,19,3,4,74,2,1498,0,0.7282936,12.2092,3.305708,-1
18,F,0,1,19,4,4,76,4,1209,0,1.024933,12.33499,4.608532,-1
18,F,0,1,19,5,3,74,2,2631,0,0.4092982,6.453201,3.448838,-1
18,F,0,1,19,6,4,73,1,1309,0,0.1502234,12.01916,0.699975,-1
18,F,0,1,19,7,3,75,3,1453,0,1.744784E-07,6.10008,0,-1
18,F,0,1,19,8,3,73,1,1564,0,4.308228E-08,6.167247,0,-1
18,F,0,1,20,1,4,79,3,1364,0,0.685599,12.20486,3.166752,-1
18,F,0,1,20,2,4,77,1,1687,0,0.1247306,12.07871,0.5828267,-1
18,F,0,1,20,3,3,78,2,2676,0,0.2913893,6.461404,2.447846,-1
18,F,0,1,20,4,3,79,3,1342,0,0.279068,6.100851,2.523829,-1
18,F,0,1,20,5,3,80,4,3798,0,0.3322878,6.507089,2.782138,-1
18,F,0,1,20,6,3,77,1,2097,0,3.250592E-08,6.173021,0,-1
18,F,0,1,20,7,4,78,2,2076,0,0.7062511,12.24337,3.268663,-1
18,F,0,1,20,8,4,80,4,2254,0,0.7061216,12.37347,3.227071,-1
18,F,0,1,20,1,2,77,1,1465,0,0.03193758,12.04381,0.1493534,-1
18,F,0,1,20,2,2,78,2,1486,0,0.4684533,12.22916,2.149038,-1
18,F,0,1,20,3,1,79,3,1575,0,0.2138269,6.087913,1.888341,-1
18,F,0,1,20,4,2,80,4,4120,0,1.042632,12.39301,4.710396,-1
18,F,0,1,20,5,1,77,1,3176,0,0.1051794,6.17616,0.9335608,-1
18,F,0,1,20,6,2,79,3,1220,0,0.8386763,12.20794,3.833694,-1
18,F,0,1,20,7,1,78,2,1276,0,0.1054872,6.45761,0.8924097,-1
18,F,0,1,20,8,1,80,4,2742,0,0.3374382,6.519917,2.798903,-1
18,F,0,1,21,1,1,81,1,1542,1,0.156559,6.173718,1.391142,-1
18,F,0,1,21,2,1,83,3,1954,0,0.0383285,6.096011,0.3414966,-1
18,F,0,1,21,3,2,84,4,3531,0,0.7193508,12.38358,3.288548,-1
18,F,0,1,21,4,2,82,2,1642,0,0.1248039,12.24805,0.5706123,-1
18,F,0,1,21,5,1,84,4,3287,2,0.2976578,6.431093,2.503506,-1
18,F,0,1,21,6,2,81,1,1376,0,0.7425779,12.06235,3.507606,-1
18,F,0,1,21,7,2,83,3,998,0,0.4727471,12.16584,2.189548,-1
18,F,0,1,21,8,1,82,2,1509,0,0.4166084,6.444494,3.595973,-1
18,F,0,1,22,1,1,87,3,1242,0,1.103109E-07,6.083916,0,-1
18,F,0,1,22,2,1,86,2,1853,0,0.01195519,6.425144,0.1008706,-1
18,F,0,1,22,3,2,85,1,1853,0,0.2945542,12.05583,1.374585,-1
18,F,0,1,22,4,2,86,2,1598,0,0.04403362,12.23954,0.2007689,-1
18,F,0,1,22,5,2,87,3,2776,2,0.9296457,12.27432,4.29856,-1
18,F,0,1,22,6,2,88,4,4609,0,0.1943779,12.48616,0.8720036,-1
18,F,0,1,22,7,1,85,1,3320,1,0.4586045,6.240086,4.058544,-1
18,F,0,1,22,8,1,88,4,4542,2,0.4334279,6.676797,3.565186,-1
18,F,0,1,23,1,1,89,1,2764,0,0.2389712,6.263045,2.081213,-1
18,F,0,1,23,2,2,91,3,1409,0,0.5493812,12.30409,2.518939,-1
18,F,0,1,23,3,2,90,2,1809,0,0.2029039,12.35932,0.920261,-1
18,F,0,1,23,4,2,89,1,1909,0,0.6277446,12.17819,2.903871,-1
18,F,0,1,23,5,1,92,4,1887,0,0.1004212,6.612562,0.8270888,-1
18,F,0,1,23,6,1,90,2,1498,0,0.2833126,6.565625,2.345769,-1
18,F,0,1,23,7,1,91,3,3820,0,0.1521785,6.197823,1.326627,-1
18,F,0,1,23,8,2,92,4,4165,0,0.3384645,12.52204,1.512067,-1
18,F,0,1,24,1,1,94,2,1720,1,4.879196E-08,6.573843,0,-1
18,F,0,1,24,2,2,93,1,1598,0,0.4596033,12.17147,2.139088,-1
18,F,0,1,24,3,1,95,3,1420,0,0.2615489,6.204655,2.266586,-1
18,F,0,1,24,4,1,93,1,1665,0,4.107266E-08,6.263896,0,-1
18,F,0,1,24,5,2,96,4,1198,0,0.8282888,12.51034,3.706127,-1
18,F,0,1,24,6,2,95,3,3176,0,0.9566039,12.30961,4.406645,-1
18,F,0,1,24,7,1,96,4,2254,0,0.5503017,6.606009,4.575687,-1
18,F,0,1,24,8,2,94,2,1109,0,0.1495814,12.36411,0.6781085,-1
18,F,0,1,25,1,1,97,1,3165,0,0.2131777,6.268285,1.855091,-1
18,F,0,1,25,2,1,100,4,2198,1,0.2265582,6.610474,1.880239,-1
18,F,0,1,25,3,2,99,3,1598,0,0.6669353,12.31346,3.037251,-1
18,F,0,1,25,4,2,100,4,4842,2,0.09262608,12.38125,0.4191812,-1
18,F,0,1,25,5,2,97,1,2253,0,0.4264783,12.07694,2.002814,-1
18,F,0,1,25,6,2,98,2,3376,0,1.39457E-07,12.24659,0,-1
18,F,0,1,25,7,1,99,3,1976,0,0.143776,6.097816,1.272571,-1
18,F,0,1,25,8,1,98,2,2954,0,0.2990953,6.436567,2.524217,-1
18,F,0,1,26,1,1,101,1,3998,3,0.05511059,6.203029,0.4869847,-1
18,F,0,1,26,2,1,104,4,4964,4,0.1214035,6.434562,1.024884,-1
18,F,0,1,26,3,1,103,3,2887,1,0.4115751,6.059676,3.74366,-1
18,F,0,1,26,4,2,101,1,4631,0,2.00422E-07,12.04778,0,-1
18,F,0,1,26,5,2,102,2,2553,0,0.6660712,12.22996,3.049986,-1
18,F,0,1,26,6,2,103,3,1265,0,0.8541737,12.19556,3.959778,-1
18,F,0,1,26,7,1,102,2,2231,1,0.3418882,6.437525,2.961079,-1
18,F,0,1,26,8,2,104,4,5842,0,0.5329388,12.37937,2.424386,-1
18,F,0,1,27,1,1,105,1,2920,0,0.3845545,6.15685,3.427141,-1
18,F,0,1,27,2,2,107,3,6564,0,0.6173778,12.28949,2.835935,-1
18,F,0,1,27,3,1,108,4,1754,0,0.241368,6.585065,2.018485,-1
18,F,0,1,27,4,2,105,1,1476,0,0.06973624,12.15839,0.3232465,-1
18,F,0,1,27,5,1,106,2,1965,0,0.08793169,6.546895,0.7348864,-1
18,F,0,1,27,6,2,108,4,5753,1,0.7485538,12.40395,3.364936,-1
18,F,0,1,27,7,2,106,2,1209,0,0.7821326,12.25316,3.576372,-1
18,F,0,1,27,8,1,107,3,2087,1,0.1513787,6.084913,1.342463,-1
18,F,0,1,28,1,1,109,1,1142,0,3.585312E-08,6.185318,0,-1
18,F,0,1,28,2,1,112,4,2520,2,0.2522661,6.462887,2.134417,-1
18,F,0,1,28,3,2,111,3,1731,1,0.4546392,12.17262,2.084689,-1
18,F,0,1,28,4,2,112,4,4820,3,0.8443218,12.32339,3.833489,-1
18,F,0,1,28,5,1,110,2,3553,2,0.1329566,6.459021,1.131423,-1
18,F,0,1,28,6,1,111,3,1820,0,0.3301319,6.105443,2.998982,-1
18,F,0,1,28,7,2,109,1,3120,0,0.354072,12.06175,1.652327,-1
18,F,0,1,28,8,2,110,2,3176,0,0.1998483,12.18221,0.9253501,-1
18,F,0,1,29,1,2,116,4,1076,0,1.040009,12.39099,4.678642,-1
18,F,0,1,29,2,1,115,3,1465,0,0.2353788,6.111255,2.066964,-1
18,F,0,1,29,3,1,116,4,4098,0,1.516718E-07,6.573976,0,-1
18,F,0,1,29,4,1,113,1,3598,0,0.4517415,6.134676,4.011808,-1
18,F,0,1,29,5,2,114,2,3220,0,0.138453,12.21801,0.6385778,-1
18,F,0,1,29,6,2,113,1,5653,2,0.305247,11.95891,1.432994,-1
18,F,0,1,29,7,1,114,2,1920,1,0.1683407,6.427348,1.450099,-1
18,F,0,1,29,8,2,115,3,4165,0,0.7997742,12.18614,3.700099,-1
18,F,0,1,30,1,2,118,2,1531,0,0.2726786,12.23444,1.248822,-1
18,F,0,1,30,2,1,120,4,2553,1,0.1227395,6.482692,1.029266,-1
18,F,0,1,30,3,2,117,1,2164,0,0.4144197,12.05555,1.92722,-1
18,F,0,1,30,4,2,119,3,1242,0,0.5528102,12.19412,2.530645,-1
18,F,0,1,30,5,1,117,1,4387,2,0.2795049,6.154063,2.497322,-1
18,F,0,1,30,6,1,118,2,9576,0,0.3028331,6.43641,2.560479,-1
18,F,0,1,30,7,1,119,3,1575,0,0.02119718,6.096233,0.1897456,-1
18,F,0,1,30,8,2,120,4,5109,0,0.2994055,12.3786,1.352773,-1
18,F,0,1,31,1,2,123,3,1976,0,0.5268016,12.19428,2.409404,-1
18,F,0,1,31,2,1,121,1,2209,1,1.104065E-07,6.165344,0,-1
18,F,0,1,31,3,2,122,2,1131,0,0.7248829,12.24403,3.303457,-1
18,F,0,1,31,4,2,124,4,4009,3,0.8377829,12.31443,3.835226,-1
18,F,0,1,31,5,1,123,3,2554,0,0.08670118,6.091333,0.7783349,-1
18,F,0,1,31,6,1,124,4,3953,0,0.1651623,6.510595,1.377714,-1
18,F,0,1,31,7,1,122,2,2431,1,0.1265239,6.443462,1.084262,-1
18,F,0,1,31,8,2,121,1,2665,1,0.6484916,12.05138,3.062988,-1
18,F,0,1,32,1,1,128,4,1897,0,0.02762561,6.505267,0.2306999,-1
18,F,0,1,32,2,2,125,1,2987,2,0.7988002,12.03492,3.753898,-1
18,F,0,1,32,3,2,128,4,2187,1,0.3273794,12.3558,1.497633,-1
18,F,0,1,32,4,1,126,2,2131,0,0.1519305,6.411609,1.317004,-1
18,F,0,1,32,5,1,125,1,2876,0,0.2163952,6.158554,1.926001,-1
18,F,0,1,32,6,1,127,3,1520,0,0.116023,6.073592,1.03722,-1
18,F,0,1,32,7,2,126,2,1697,0,0.2785483,12.22914,1.287248,-1
18,F,0,1,32,8,2,127,3,1276,0,0.1960163,12.17961,0.9035233,-1
18,F,0,1,33,1,1,132,4,3331,0,0.1739433,6.486091,1.46206,-1
18,F,0,1,33,2,1,129,1,2942,0,0.3400021,6.156184,3.045169,-1
18,F,0,1,33,3,2,130,2,2464,0,0.8347353,12.23144,3.856458,-1
18,F,0,1,33,4,2,132,4,1087,0,0.2080749,12.35799,0.9516218,-1
18,F,0,1,33,5,2,131,3,1675,0,0.223448,12.179,1.023547,-1
18,F,0,1,33,6,1,130,2,1242,0,0.01502414,6.414157,0.1266688,-1
18,F,0,1,33,7,1,131,3,2408,1,5.164076E-08,6.082947,0.01978234,-1
18,F,0,1,33,8,2,129,1,8086,4,0.3704672,11.99237,1.744843,-1
18,F,0,1,34,1,1,136,4,5442,0,0.05067654,6.559457,0.4224361,-1
18,F,0,1,34,2,1,134,2,1176,0,0.2288534,6.500699,1.911005,-1
18,F,0,1,34,3,2,133,1,4497,0,0.752632,12.11374,3.503249,-1
18,F,0,1,34,4,2,136,4,2798,1,9.85538E-08,12.39619,0,-1
18,F,0,1,34,5,1,135,3,3264,1,0.4841976,6.105141,4.265445,-1
18,F,0,1,34,6,2,134,2,1198,0,0.5058141,12.28048,2.331961,-1
18,F,0,1,34,7,2,135,3,6631,6,0.2615388,12.14778,1.206745,-1
18,F,0,1,34,8,1,133,1,3020,0,0.3312003,6.163552,2.944971,-1
18,F,0,1,35,1,2,139,3,2398,1,0.003746843,12.2532,0,-1
18,F,0,1,35,2,1,138,2,1654,0,0.03304549,6.457298,0.2825486,-1
18,F,0,1,35,3,1,139,3,1431,0,0.4182339,6.107277,3.681425,-1
18,F,0,1,35,4,1,137,1,2265,0,0.318359,6.17011,2.843517,-1
18,F,0,1,35,5,2,138,2,2986,1,0.6286442,12.231,2.90414,-1
18,F,0,1,35,6,2,140,4,1642,1,0.7196531,12.36087,3.286463,-1
18,F,0,1,35,7,2,137,1,1264,0,0.939271,12.06048,4.375243,-1
18,F,0,1,35,8,1,140,4,4331,2,0.2660958,6.443599,2.230989,-1
18,F,0,1,37,1,4,146,2,2919,0,0.5132074,12.20637,2.379404,-1
18,F,0,1,37,2,4,147,3,2109,0,0.8733253,12.17131,4.007266,-1
18,F,0,1,37,3,3,148,4,3498,0,0.102877,6.480472,0.8791551,-1
18,F,0,1,37,4,3,146,2,2065,0,0.2024159,6.41732,1.713608,-1
18,F,0,1,37,5,4,145,1,1909,0,0.6341717,12.00693,2.958036,-1
18,F,0,1,37,6,4,148,4,1109,0,0.3197246,12.31785,1.461123,-1
18,F,0,1,37,7,3,147,3,4931,2,0.2257272,6.225643,1.972685,-1
18,F,0,1,37,8,3,145,1,2086,1,0.2778402,6.212832,2.456865,-1
18,F,0,1,38,1,4,152,4,1376,0,0.05097917,12.44781,0.2289973,-1
18,F,0,1,38,2,3,150,2,1442,0,0.2552897,6.542511,2.119418,-1
18,F,0,1,38,3,4,151,3,2720,0,0.7652292,12.31199,3.480484,-1
18,F,0,1,38,4,4,149,1,5198,3,1.009305,12.10477,4.707859,-1
18,F,0,1,38,5,3,151,3,3709,0,0.4527136,6.102565,4.032695,-1
18,F,0,1,38,6,3,149,1,1820,1,0.1678976,6.183303,1.489115,-1
18,F,0,1,38,7,4,150,2,2009,0,0.8140912,12.2588,3.769982,-1
18,F,0,1,38,8,3,152,4,2231,1,2.15235E-08,6.514998,0,-1
18,F,0,1,39,1,4,153,1,2375,0,0.6003283,12.08033,2.823205,-1
18,F,0,1,39,2,3,156,4,5209,0,0.5081219,6.510256,4.224104,-1
18,F,0,1,39,3,4,154,2,1798,0,0.08388728,12.24638,0.3856296,-1
18,F,0,1,39,4,3,153,1,3587,1,0.05401389,6.192352,0.4788812,-1
18,F,0,1,39,5,4,155,3,2198,1,0.7732103,12.19032,3.512459,-1
18,F,0,1,39,6,3,154,2,4009,0,0.07574214,6.516049,0.6394964,-1
18,F,0,1,39,7,4,156,4,4620,0,0.555256,12.43947,2.486403,-1
18,F,0,1,39,8,3,155,3,5376,0,0.1174245,6.219645,1.031355,-1
18,F,0,1,40,1,3,160,4,5165,0,3.853703E-08,6.641602,0,-1
18,F,0,1,40,2,3,158,2,1398,0,0.3872082,6.506118,3.22519,-1
18,F,0,1,40,3,4,159,3,2187,1,0.5695919,12.26378,2.616287,-1
18,F,0,1,40,4,4,160,4,3331,1,1.979783E-07,12.46837,0,-1
18,F,0,1,40,5,3,157,1,3509,0,0.09283099,6.165732,0.8221055,-1
18,F,0,1,40,6,4,158,2,1320,0,0.8674495,12.28982,3.937212,-1
18,F,0,1,40,7,4,157,1,1598,0,0.9093471,12.11975,4.224985,-1
18,F,0,1,40,8,3,159,3,1698,0,0.1960587,6.215616,1.722265,-1
18,F,0,1,41,1,1,162,2,1687,0,0.05829191,6.54262,0.4885893,-1
18,F,0,1,41,2,1,163,3,2120,1,0.4031733,6.181124,3.601359,-1
18,F,0,1,41,3,1,161,1,1209,0,0.3825285,6.23578,3.350534,-1
18,F,0,1,41,4,2,164,4,4120,0,0.2559316,12.50071,1.155722,-1
18,F,0,1,41,5,2,163,3,1320,0,0.1263856,12.31396,0.577091,-1
18,F,0,1,41,6,1,164,4,2620,0,0.203322,6.632443,1.682839,-1
18,F,0,1,41,7,2,161,1,5776,0,1.031122,12.16501,4.835051,-1
18,F,0,1,41,8,2,162,2,5442,2,0.8124726,12.25145,3.769306,-1
18,F,0,1,42,1,2,167,3,1709,0,0.4604541,12.20966,2.126425,-1
18,F,0,1,42,2,1,168,4,4953,3,0.2497424,6.665582,2.062699,-1
18,F,0,1,42,3,1,166,2,2709,0,3.641666E-08,6.565254,0,-1
18,F,0,1,42,4,2,165,1,2087,0,0.1898914,12.16619,0.8798226,-1
18,F,0,1,42,5,2,168,4,1253,0,0.9860181,12.53022,4.412597,-1
18,F,0,1,42,6,1,167,3,1742,0,0.4386275,6.230469,3.769047,-1
18,F,0,1,42,7,1,165,1,1353,0,0.5275609,6.226058,4.617534,-1
18,F,0,1,42,8,2,166,2,1498,0,0.2694058,12.34611,1.231465,-1
18,F,0,1,43,1,2,169,1,2165,1,0.4810188,12.15944,2.246638,-1
18,F,0,1,43,2,2,171,3,1298,0,0.4600438,12.33618,2.082247,-1
18,F,0,1,43,3,2,172,4,1987,1,0.5632779,12.5239,2.515595,-1
18,F,0,1,43,4,1,170,2,1965,0,0.1799653,6.562402,1.520971,-1
18,F,0,1,43,5,1,169,1,2542,0,0.1883795,6.222069,1.66354,-1
18,F,0,1,43,6,2,170,2,1909,0,0.01893189,12.33838,0.08622923,-1
18,F,0,1,43,7,1,171,3,1498,0,0.2405908,6.220379,2.078578,-1
18,F,0,1,43,8,1,172,4,3731,2,0.2430395,6.654269,1.981002,-1
18,F,0,1,44,1,1,175,3,5598,4,0.0965609,6.033887,0.8697567,-1
18,F,0,1,44,2,1,174,2,2031,0,1.24159E-07,6.580486,0,-1
18,F,0,1,44,3,1,176,4,8464,2,0.03777825,6.453738,0.3189811,-1
18,F,0,1,44,4,1,173,1,3987,0,0.2452737,6.125521,2.201049,-1
18,F,0,1,44,5,2,174,2,7542,4,0.03551371,12.11233,0.1631294,-1
18,F,0,1,44,6,2,175,3,1753,0,0.8730687,12.21851,4.031384,-1
18,F,0,1,44,7,2,173,1,9999,9,-1,-1,-1,-1
18,F,0,1,44,8,2,176,4,6198,4,1.046521,12.25865,4.812348,-1
18,F,0,1,45,1,2,179,3,3587,0,0.8454328,12.24512,3.852648,-1
18,F,0,1,45,2,2,177,1,3353,0,0.3508767,12.0414,1.647701,-1
18,F,0,1,45,3,2,180,4,954,0,0.3229741,12.37973,1.459247,-1
18,F,0,1,45,4,1,179,3,1398,0,0.4701628,6.128906,4.127159,-1
18,F,0,1,45,5,1,177,1,3009,1,0.4870608,6.124771,4.399884,-1
18,F,0,1,45,6,2,178,2,3420,0,0.2107923,12.20907,0.974179,-1
18,F,0,1,45,7,1,180,4,1720,0,0.2405953,6.550572,2.001152,-1
18,F,0,1,45,8,1,178,2,2476,0,0.2380842,6.409315,2.074242,-1
18,F,0,1,46,1,1,184,4,2020,0,0.4030656,6.556948,3.329784,-1
18,F,0,1,46,2,1,181,1,1987,1,0.2615899,6.120101,2.345018,-1
18,F,0,1,46,3,1,183,3,1676,0,0.1460172,6.142741,1.281764,-1
18,F,0,1,46,4,2,184,4,2909,0,0.1344188,12.3952,0.6103771,-1
18,F,0,1,46,5,1,182,2,3309,0,0.463995,6.406021,3.962299,-1
18,F,0,1,46,6,2,183,3,2853,1,0.3736608,12.22135,1.720901,-1
18,F,0,1,46,7,2,181,1,9999,0,-1,-1,-1,-1
18,F,0,1,46,8,2,182,2,9999,0,-1,-1,-1,-1
18,F,0,1,47,1,1,185,1,9999,0,-1,-1,-1,-1
18,F,0,1,47,2,1,188,4,9999,0,-1,-1,-1,-1
18,F,0,1,47,3,2,185,1,9999,0,-1,-1,-1,-1
18,F,0,1,47,4,1,187,3,9999,0,-1,-1,-1,-1
18,F,0,1,47,5,2,188,4,9999,0,-1,-1,-1,-1
18,F,0,1,47,6,1,186,2,9999,0,-1,-1,-1,-1
18,F,0,1,47,7,2,187,3,9999,0,-1,-1,-1,-1
18,F,0,1,47,8,2,186,2,1576,0,1.035094,12.2801,4.732552,-1
18,F,0,1,48,1,1,192,4,1864,0,0.08741733,6.571615,0.7209076,-1
18,F,0,1,48,2,2,189,1,5753,2,0.6119695,12.06232,2.845169,-1
18,F,0,1,48,3,1,190,2,1131,0,0.2089325,6.458992,1.794496,-1
18,F,0,1,48,4,1,191,3,2909,0,0.09594447,6.202689,0.8520276,-1
18,F,0,1,48,5,2,192,4,2498,2,0.1624226,12.4644,0.729005,-1
18,F,0,1,48,6,1,189,1,1742,0,0.003726168,6.207463,0.02797646,-1
18,F,0,1,48,7,2,191,3,998,0,0.268834,12.2851,1.221092,-1
18,F,0,1,48,8,2,190,2,1765,0,0.1224088,12.27883,0.5602303,-1
18,F,0,1,49,1,2,195,3,1576,1,0.5159299,12.29269,2.368934,-1
18,F,0,1,49,2,2,196,4,965,0,1.05249,12.45796,4.716464,-1
18,F,0,1,49,3,1,195,3,1420,0,0.4076072,6.205001,3.55991,-1
18,F,0,1,49,4,2,194,2,3220,0,0.938297,12.28562,4.349246,-1
18,F,0,1,49,5,1,196,4,1465,0,0.2115023,6.598558,1.769014,-1
18,F,0,1,49,6,2,193,1,2454,1,0.2956065,12.13081,1.377998,-1
18,F,0,1,49,7,1,194,2,1643,0,0.4607392,6.474321,3.950321,-1
18,F,0,1,49,8,1,193,1,1420,0,0.1978145,6.187861,1.756914,-1
18,F,0,1,50,1,1,200,4,3087,0,0.1727394,6.591897,1.446857,-1
18,F,0,1,50,2,2,197,1,3276,3,0.8015654,12.12665,3.768215,-1
18,F,0,1,50,3,2,199,3,2965,0,0.4426214,12.29191,2.016836,-1
18,F,0,1,50,4,1,198,2,1642,0,0.1111323,6.468068,0.9497693,-1
18,F,0,1,50,5,2,200,4,1664,1,0.5476636,12.4577,2.48782,-1
18,F,0,1,50,6,2,198,2,1453,0,0.1224936,12.27978,0.5619739,-1
18,F,0,1,50,7,1,199,3,2098,1,0.1527648,6.191106,1.331633,-1
18,F,0,1,50,8,1,197,1,1820,1,0.381573,6.177021,3.392864,-1
18,F,0,1,51,1,2,203,3,2087,1,0.1310277,12.2869,0.598071,-1
18,F,0,1,51,2,1,202,2,1664,0,1.021556E-07,6.467609,0,-1
18,F,0,1,51,3,1,201,1,1276,0,1.845013E-07,6.179217,0,-1
18,F,0,1,51,4,2,202,2,1509,0,0.7907298,12.27856,3.637173,-1
18,F,0,1,51,5,2,201,1,2042,1,0.9606434,12.11645,4.505848,-1
18,F,0,1,51,6,1,204,4,1598,0,0.2138748,6.592141,1.756357,-1
18,F,0,1,51,7,1,203,3,3420,2,0.3538932,6.219587,3.052232,-1
18,F,0,1,51,8,2,204,4,2597,0,4.578383E-07,12.49365,0,-1
18,F,0,1,52,1,2,206,2,954,0,0.4889371,12.28287,2.249772,-1
18,F,0,1,52,2,2,208,4,1131,0,3.83472E-08,12.4808,0,-1
18,F,0,1,52,3,1,205,1,2487,0,0.3198395,6.173244,2.854511,-1
18,F,0,1,52,4,2,207,3,3676,2,0.1989183,12.25849,0.9157847,-1
18,F,0,1,52,5,1,206,2,2742,0,3.268594E-08,6.475792,0,-1
18,F,0,1,52,6,1,207,3,1720,0,1.001809E-07,6.191742,0,-1
18,F,0,1,52,7,2,205,1,2142,1,0.06827846,12.13682,0.3165179,-1
18,F,0,1,52,8,1,208,4,2565,0,0.007336298,6.639821,0.05934703,-1
18,F,0,1,53,1,2,211,3,1475,1,0.03846429,12.33415,0.174713,-1
18,F,0,1,53,2,1,209,1,2009,0,0.01264142,6.179054,0.1101434,-1
18,F,0,1,53,3,1,210,2,2542,0,0.3106904,6.495328,2.663666,-1
18,F,0,1,53,4,1,212,4,3020,0,0.03884242,6.613575,0.3214254,-1
18,F,0,1,53,5,2,210,2,2209,1,0.5968649,12.29662,2.750223,-1
18,F,0,1,53,6,1,211,3,3187,0,0.3911429,6.223381,3.434674,-1
18,F,0,1,53,7,2,212,4,6242,3,0.6990048,12.39006,3.18764,-1
18,F,0,1,53,8,2,209,1,2163,0,0.4948146,12.16568,2.310714,-1
18,F,0,1,54,1,1,216,4,2742,0,0.2107615,6.543355,1.766468,-1
18,F,0,1,54,2,1,215,3,2742,0,0.2238694,6.188431,1.957248,-1
18,F,0,1,54,3,1,214,2,1287,0,3.315163E-08,6.488643,0,-1
18,F,0,1,54,4,1,213,1,1242,0,0.01898885,6.231723,0.1678588,-1
18,F,0,1,54,5,2,216,4,1109,0,0.807416,12.45769,3.615576,-1
18,F,0,1,54,6,2,213,1,1242,0,0.8510967,12.15476,3.928797,-1
18,F,0,1,54,7,2,215,3,2798,2,0.5705675,12.27949,2.594501,-1
18,F,0,1,54,8,2,214,2,1165,0,0.1612017,12.31407,0.7380747,-1
18,F,0,1,55,1,1,219,3,1476,0,0.3046799,6.191863,2.635371,-1
18,F,0,1,55,2,1,220,4,1943,0,0.1379114,6.609087,1.145176,-1
18,F,0,1,55,3,1,217,1,2320,1,0.483223,6.222637,4.293727,-1
18,F,0,1,55,4,1,218,2,1731,0,0.08024594,6.524193,0.6818494,-1
18,F,0,1,55,5,2,220,4,1520,0,0.1902703,12.49263,0.8604831,-1
18,F,0,1,55,6,2,217,1,1387,0,0.9569512,12.1629,4.455929,-1
18,F,0,1,55,7,2,219,3,1376,0,0.2773622,12.31011,1.256632,-1
18,F,0,1,55,8,2,218,2,1097,0,0.3681889,12.32755,1.690613,-1
18,F,0,1,56,1,1,223,3,1876,1,0.1537812,6.201103,1.343483,-1
18,F,0,1,56,2,2,222,2,1131,0,2.22895E-07,12.33774,0,-1
18,F,0,1,56,3,2,224,4,1120,0,0.5107979,12.4974,2.286788,-1
18,F,0,1,56,4,1,221,1,1842,0,0.2764921,6.228115,2.441521,-1
18,F,0,1,56,5,1,224,4,1831,0,0.1045497,6.584864,0.8713301,-1
18,F,0,1,56,6,2,223,3,6875,0,0.4248336,12.30685,1.948428,-1
18,F,0,1,56,7,1,222,2,3065,2,0.3349544,6.493297,2.803794,-1
18,F,0,1,56,8,2,221,1,1798,0,2.212609E-07,12.15804,0,-1
18,F,0,1,57,1,4,226,2,2187,0,0.7661628,12.34599,3.504311,-1
18,F,0,1,57,2,4,227,3,1265,0,0.1989233,12.26707,0.9089215,-1
18,F,0,1,57,3,4,225,1,1642,0,0.0617949,12.15367,0.2853053,-1
18,F,0,1,57,4,4,228,4,7253,2,0.4822176,12.40693,2.206023,-1
18,F,0,1,57,5,3,225,1,4198,0,1.429433E-07,6.222122,0,-1
18,F,0,1,57,6,3,226,2,3309,0,2.389099E-08,6.497199,0,-1
18,F,0,1,57,7,3,227,3,3242,0,0.1967712,6.22038,1.736298,-1
18,F,0,1,57,8,3,228,4,4898,1,0.2851976,6.492302,2.420022,-1
18,F,0,1,58,1,3,231,3,4298,0,0.1152869,6.217033,1.007554,-1
18,F,0,1,58,2,3,230,2,1720,0,0.2386324,6.568051,1.982878,-1
18,F,0,1,58,3,3,229,1,1609,0,0.2333851,6.222044,2.060326,-1
18,F,0,1,58,4,4,231,3,1476,0,0.3990584,12.29622,1.807211,-1
18,F,0,1,58,5,3,232,4,3409,0,0.2382759,6.600283,1.963238,-1
18,F,0,1,58,6,4,229,1,1553,0,0.2508899,12.15965,1.163484,-1
18,F,0,1,58,7,4,232,4,1165,0,0.5180231,12.48491,2.314776,-1
18,F,0,1,58,8,4,230,2,1065,0,0.08225635,12.34487,0.373777,-1
18,F,0,1,59,1,3,236,4,3365,1,0.171784,6.533603,1.428344,-1
18,F,0,1,59,2,4,234,2,2654,0,0.6964232,12.30125,3.13494,-1
18,F,0,1,59,3,3,235,3,2409,1,0.5231372,6.217753,4.680191,-1
18,F,0,1,59,4,3,233,1,2275,0,0.08148266,6.228625,0.7187329,-1
18,F,0,1,59,5,4,236,4,2598,1,0.5833665,12.48337,2.638489,-1
18,F,0,1,59,6,4,235,3,1820,0,0.5602582,12.32016,2.566511,-1
18,F,0,1,59,7,4,233,1,1431,0,0.5547534,12.19387,2.559332,-1
18,F,0,1,59,8,3,234,2,1742,0,5.103914E-08,6.563345,0,-1
18,F,0,1,60,1,3,237,1,1420,0,0.1576004,6.228815,1.390157,-1
18,F,0,1,60,2,3,240,4,2109,0,0.0112853,6.607807,0.09278741,-1
18,F,0,1,60,3,4,239,3,8631,3,0.5723138,12.20501,2.607895,-1
18,F,0,1,60,4,4,240,4,2442,0,0.4363356,12.46342,1.971991,-1
18,F,0,1,60,5,3,238,2,2620,0,2.101175E-07,6.47411,0,-1
18,F,0,1,60,6,3,239,3,4887,1,0.3147802,6.171997,2.762792,-1
18,F,0,1,60,7,4,237,1,2098,0,0.584394,12.16897,2.727424,-1
18,F,0,1,60,8,4,238,2,2531,0,0.8767133,12.3392,4.016101,-1
18,F,0,1,61,1,2,241,1,1664,0,0.1691966,12.16295,0.7815963,-1
18,F,0,1,61,2,1,244,4,1987,0,4.4258E-08,6.583856,0,-1
18,F,0,1,61,3,1,241,1,1253,0,0.2991096,6.21101,2.651218,-1
18,F,0,1,61,4,1,242,2,3220,0,0.171118,6.484388,1.451178,-1
18,F,0,1,61,5,2,243,3,6487,5,0.8979605,11.99882,4.243163,-1
18,F,0,1,61,6,2,244,4,3431,1,0.2896937,12.19086,1.339253,-1
18,F,0,1,61,7,2,242,2,1498,0,0.09750557,12.29331,0.4458725,-1
18,F,0,1,61,8,1,243,3,1787,0,0.04288759,6.20018,0.3789758,-1
18,F,0,1,62,1,1,245,1,2009,0,0.5290266,6.184791,4.70128,-1
18,F,0,1,62,2,2,247,3,1575,0,1.034237,12.30738,4.747677,-1
18,F,0,1,62,3,2,245,1,1209,0,0.260315,12.1405,1.204148,-1
18,F,0,1,62,4,2,246,2,1198,0,0.944246,12.29018,4.340095,-1
18,F,0,1,62,5,2,248,4,4298,2,0.4219071,12.35096,1.934518,-1
18,F,0,1,62,6,1,246,2,1642,0,2.384299E-07,6.472571,0,-1
18,F,0,1,62,7,1,247,3,3542,2,0.03179109,5.956083,0.2900664,-1
18,F,0,1,62,8,1,248,4,2275,0,0.0220915,6.611447,0.1823843,-1
18,F,0,1,1,1,8,1,1,5652,0,6.456001,12.22056,31.88998,-1
18,F,0,1,1,2,7,3,3,1009,0,3.879082,6.275365,38.18076,-1
18,F,0,1,1,3,5,2,2,3620,0,1.777774,6.560966,14.92223,-1
18,F,0,1,1,4,5,3,3,2509,0,4.299631,6.256734,43.4089,-1
18,F,0,1,1,5,8,2,2,2109,0,7.314272,12.32722,36.39461,-1
18,F,0,1,1,6,5,4,4,2164,0,5.645613,6.657614,57.99409,-1
18,F,0,1,1,7,6,3,3,2887,0,10.15968,12.36932,55.22134,-1
18,F,0,1,1,8,7,2,2,2598,0,4.100719,6.521315,38.96296,-1
18,F,0,1,1,9,6,4,4,1053,0,3.774828,12.52674,17.41186,-1
18,F,0,1,1,10,6,1,1,2364,0,8.321795,12.20065,43.00624,-1
18,F,0,1,1,11,8,3,3,3731,0,1.687003,12.32029,7.649655,-1
18,F,0,1,1,12,8,4,4,1275,0,3.804195,12.49426,17.51173,-1
18,F,0,1,1,13,5,1,1,1320,0,2.958365,6.270886,26.65693,-1
18,F,0,1,1,14,6,2,2,1453,0,0.240639,12.35515,1.091636,-1
18,F,0,1,1,15,7,4,4,1198,0,2.534576,6.616648,21.52803,-1
18,F,0,1,1,16,7,1,1,1187,0,5.902348,6.314841,68.99318,-1
18,F,0,1,2,1,7,4,4,1020,0,5.639236,6.663402,57.81148,-1
18,F,0,1,2,2,8,1,1,2109,0,2.115826,12.20338,9.925134,-1
18,F,0,1,2,3,6,4,4,1265,0,1.565343,12.50903,6.997455,-1
18,F,0,1,2,4,6,1,1,776,0,4.008827,12.19207,19.19632,-1
18,F,0,1,2,5,7,2,2,2476,0,3.087241,6.520488,27.45171,-1
18,F,0,1,2,6,6,3,3,2453,0,9.792791,12.36752,52.35548,-1
18,F,0,1,2,7,6,2,2,3331,0,4.669495,12.37529,21.8178,-1
18,F,0,1,2,8,7,3,3,954,0,1.390211,6.23706,12.26177,-1
18,F,0,1,2,9,5,2,2,1087,0,2.926358,6.55018,26.36143,-1
18,F,0,1,2,10,5,3,3,1042,0,2.370369,6.229063,20.92652,-1
18,F,0,1,2,11,7,1,1,1520,0,1.950288,6.275421,17.25342,-1
18,F,0,1,2,12,5,4,4,998,0,6.294203,6.652352,71.11359,-1
18,F,0,1,2,13,8,2,2,976,0,7.773051,12.32549,38.93478,-1
18,F,0,1,2,14,5,1,1,1987,0,2.247622,6.273552,20.9697,-1
18,F,0,1,2,15,8,3,3,786,0,4.80035,12.31843,22.52624,-1
18,F,0,1,2,16,8,4,4,1287,0,6.121074,12.51294,29.28666,-1
