Age, Gender, Awareness Type, Session, Block, Trial, Set, Pattern, Quadrant, Response Time, Num Mistakes, Distance From Target, Camera Distance From Target, Angle Error (Degrees), FC Response
19,F,0,1,1,1,1,4,4,9999,2,-1,-1,-1,-1
19,F,0,1,1,2,2,3,3,3364,0,0.4040889,12.21068,1.868022,-1
19,F,0,1,1,3,1,2,2,9999,3,-1,-1,-1,-1
19,F,0,1,1,4,1,3,3,4276,0,1.362071E-07,6.194978,0,-1
19,F,0,1,1,5,2,1,1,3698,0,1.022686,12.14075,4.69369,-1
19,F,0,1,1,6,2,2,2,9999,3,-1,-1,-1,-1
19,F,0,1,1,7,1,1,1,3087,0,0.4013601,6.10948,3.55947,-1
19,F,0,1,1,8,2,4,4,4264,0,0.4910592,12.34665,2.234933,-1
19,F,0,1,2,1,1,7,3,3665,0,0.004493576,6.143073,0.03426402,-1
19,F,0,1,2,2,2,8,4,4209,0,0.4240223,12.36642,1.924374,-1
19,F,0,1,2,3,1,6,2,2020,0,0.3672222,6.431533,3.126874,-1
19,F,0,1,2,4,1,5,1,2076,0,0.00920888,6.075962,0.08156469,-1
19,F,0,1,2,5,2,6,2,9999,0,-1,-1,-1,-1
19,F,0,1,2,6,2,7,3,6187,0,0.2007401,12.16305,0.9259842,-1
19,F,0,1,2,7,1,8,4,4909,0,2.101833E-07,6.47646,0,-1
19,F,0,1,2,8,2,5,1,6264,0,0.3577169,12.09873,1.653037,-1
19,F,0,1,3,1,2,12,4,3820,0,0.3731786,12.38938,1.685744,-1
19,F,0,1,3,2,2,11,3,5120,0,0.7574739,12.17803,3.506266,-1
19,F,0,1,3,3,2,10,2,4464,1,0.7426253,12.205,3.378755,-1
19,F,0,1,3,4,1,9,1,2431,0,0.4561002,6.076069,4.063029,-1
19,F,0,1,3,5,1,11,3,2931,0,0.4886118,6.192777,4.297831,-1
19,F,0,1,3,6,2,9,1,3320,1,0.711533,12.0356,3.331136,-1
19,F,0,1,3,7,1,10,2,4120,1,0.4157769,6.438013,3.537344,-1
19,F,0,1,3,8,1,12,4,4176,0,0.3449007,6.504769,2.941778,-1
19,F,0,1,4,1,1,15,3,3620,0,9.419788E-08,6.199096,0,-1
19,F,0,1,4,2,2,13,1,2731,0,0.7459651,12.11424,3.435415,-1
19,F,0,1,4,3,1,16,4,2532,0,0.4349669,6.489346,3.705599,-1
19,F,0,1,4,4,1,14,2,5387,2,0.4486112,6.405712,3.835634,-1
19,F,0,1,4,5,2,15,3,4876,0,0.965398,12.18334,4.480958,-1
19,F,0,1,4,6,2,14,2,6853,3,0.4680611,12.1735,2.133408,-1
19,F,0,1,4,7,1,13,1,2487,0,0.000844101,6.071907,0,-1
19,F,0,1,4,8,2,16,4,7931,3,0.3596165,12.36087,1.639605,-1
19,F,0,1,5,1,2,17,1,2098,0,0.9995738,12.08851,4.645279,-1
19,F,0,1,5,2,2,20,4,4598,0,0.9085959,12.37305,4.107419,-1
19,F,0,1,5,3,1,19,3,2309,0,0.3994521,6.154707,3.533134,-1
19,F,0,1,5,4,2,18,2,3420,1,0.9309165,12.17066,4.248422,-1
19,F,0,1,5,5,1,17,1,3042,0,0.3511134,6.082371,3.131191,-1
19,F,0,1,5,6,1,18,2,7453,4,0.2631045,6.390057,2.256894,-1
19,F,0,1,5,7,1,20,4,4831,0,1.018026E-07,6.4672,0,-1
19,F,0,1,5,8,2,19,3,3942,0,0.111957,12.19491,0.5169988,-1
19,F,0,1,6,1,2,24,4,8120,0,0.07198939,12.37781,0.3268584,-1
19,F,0,1,6,2,1,21,1,5775,0,0.4595865,6.084391,4.107276,-1
19,F,0,1,6,3,1,22,2,3487,1,0.3802652,6.40368,3.251609,-1
19,F,0,1,6,4,1,24,4,3598,0,0.2587612,6.449098,2.199003,-1
19,F,0,1,6,5,2,22,2,1976,0,0.9608279,12.19774,4.37578,-1
19,F,0,1,6,6,2,23,3,3376,0,0.2244805,12.1848,1.03363,-1
19,F,0,1,6,7,2,21,1,2076,0,0.5724746,12.12273,2.628454,-1
19,F,0,1,6,8,1,23,3,3076,0,0.09805109,6.178693,0.8638874,-1
19,F,0,1,7,1,2,28,4,3287,0,0.2649871,12.4182,1.208851,-1
19,F,0,1,7,2,2,27,3,2764,0,0.002644186,12.21731,0,-1
19,F,0,1,7,3,2,26,2,2154,0,0.632427,12.24612,2.867511,-1
19,F,0,1,7,4,1,25,1,2653,0,0.3667358,6.086799,3.265128,-1
19,F,0,1,7,5,1,28,4,3098,0,2.533039E-07,6.483765,0,-1
19,F,0,1,7,6,2,25,1,2098,0,0.5072991,12.14099,2.327004,-1
19,F,0,1,7,7,1,27,3,2009,0,0.4805699,6.19468,4.222852,-1
19,F,0,1,7,8,1,26,2,1742,0,0.4910595,6.468599,4.159771,-1
19,F,0,1,8,1,2,29,1,1965,0,0.479789,12.14761,2.211605,-1
19,F,0,1,8,2,1,32,4,2453,0,0.3370672,6.487236,2.882354,-1
19,F,0,1,8,3,1,31,3,2187,0,0.428866,6.194873,3.772267,-1
19,F,0,1,8,4,2,30,2,1976,1,0.9009871,12.22231,4.094812,-1
19,F,0,1,8,5,1,29,1,1364,0,0.2464648,6.094878,2.191871,-1
19,F,0,1,8,6,2,31,3,2976,0,0.988601,12.20222,4.577313,-1
19,F,0,1,8,7,2,32,4,7487,1,0.4956648,12.39081,2.236247,-1
19,F,0,1,8,8,1,30,2,5609,3,0.2691386,6.446155,2.286018,-1
19,F,0,1,9,1,1,35,3,2809,0,0.1496765,6.192355,1.314625,-1
19,F,0,1,9,2,1,36,4,3120,0,0.3126557,6.482984,2.67452,-1
19,F,0,1,9,3,1,33,1,1809,0,0.3577886,6.09082,3.178476,-1
19,F,0,1,9,4,1,34,2,2120,1,0.262669,6.422963,2.238958,-1
19,F,0,1,9,5,2,33,1,1953,0,1.012653,12.13644,4.636585,-1
19,F,0,1,9,6,2,35,3,3187,0,0.7355578,12.22435,3.397996,-1
19,F,0,1,9,7,2,34,2,2820,1,0.5994833,12.20459,2.726922,-1
19,F,0,1,9,8,2,36,4,1220,0,0.286896,12.43038,1.292861,-1
19,F,0,1,10,1,1,38,2,1420,0,0.2707301,6.470872,2.291064,-1
19,F,0,1,10,2,1,39,3,2976,0,0.4067988,6.206151,3.569906,-1
19,F,0,1,10,3,2,37,1,1231,0,0.9719101,12.13676,4.449946,-1
19,F,0,1,10,4,1,40,4,2676,0,0.3889736,6.487981,3.32649,-1
19,F,0,1,10,5,2,38,2,2265,1,0.6040123,12.1951,2.749653,-1
19,F,0,1,10,6,2,39,3,2387,0,0.549106,12.20419,2.540141,-1
19,F,0,1,10,7,1,37,1,1642,0,0.5019518,6.105564,4.432217,-1
19,F,0,1,10,8,2,40,4,4231,1,0.8520529,12.39233,3.900635,-1
19,F,0,1,11,1,2,43,3,3364,0,0.8465633,12.23185,3.90926,-1
19,F,0,1,11,2,2,41,1,2131,0,0.6452296,12.14357,2.956249,-1
19,F,0,1,11,3,1,44,4,2620,0,0.07593931,6.489689,0.6434618,-1
19,F,0,1,11,4,1,42,2,4553,3,0.3321997,6.458465,2.825285,-1
19,F,0,1,11,5,1,41,1,1353,0,0.1617637,6.106835,1.440893,-1
19,F,0,1,11,6,2,44,4,3276,0,0.4568449,12.4229,2.079614,-1
19,F,0,1,11,7,2,42,2,3220,2,0.3881883,12.20478,1.7668,-1
19,F,0,1,11,8,1,43,3,2420,0,0.372399,6.178383,3.279128,-1
19,F,0,1,12,1,2,45,1,1342,0,0.6918192,12.13402,3.197452,-1
19,F,0,1,12,2,1,48,4,5053,1,0.539921,6.431276,4.596658,-1
19,F,0,1,12,3,1,47,3,3142,0,0.02455243,6.156813,0.2176059,-1
19,F,0,1,12,4,2,48,4,4142,1,0.3770846,12.36065,1.707085,-1
19,F,0,1,12,5,1,46,2,3654,0,0.3220955,6.469448,2.726778,-1
19,F,0,1,12,6,1,45,1,2109,0,0.4827543,6.095988,4.281851,-1
19,F,0,1,12,7,2,47,3,5053,0,0.3934619,12.19951,1.811321,-1
19,F,0,1,12,8,2,46,2,2487,1,0.9695203,12.20585,4.412597,-1
19,F,0,1,13,1,1,52,4,3487,1,0.2452433,6.45289,2.083281,-1
19,F,0,1,13,2,2,49,1,1453,0,0.9588856,12.13674,4.406823,-1
19,F,0,1,13,3,1,50,2,3531,0,0.3943921,6.463599,3.342343,-1
19,F,0,1,13,4,1,49,1,2109,0,0.2090174,6.088925,1.865821,-1
19,F,0,1,13,5,1,51,3,2309,0,1.720022E-07,6.185222,0,-1
19,F,0,1,13,6,2,50,2,1653,0,0.958622,12.24694,4.348616,-1
19,F,0,1,13,7,2,51,3,4820,0,0.8713215,12.22017,4.027641,-1
19,F,0,1,13,8,2,52,4,4576,2,0.6698351,12.36849,3.080196,-1
19,F,0,1,14,1,2,55,3,4431,1,0.297822,12.21791,1.368593,-1
19,F,0,1,14,2,2,56,4,2909,0,0.7138069,12.43011,3.266446,-1
19,F,0,1,14,3,1,53,1,1976,0,0.03980373,6.115867,0.3560827,-1
19,F,0,1,14,4,1,56,4,4353,0,0.4077096,6.490509,3.470006,-1
19,F,0,1,14,5,2,53,1,1886,0,0.6850692,12.16276,3.133316,-1
19,F,0,1,14,6,2,54,2,1453,0,1.008831,12.28021,4.564801,-1
19,F,0,1,14,7,1,55,3,2253,0,0.513962,6.218674,4.499628,-1
19,F,0,1,14,8,1,54,2,5554,1,0.2909722,6.492138,2.454633,-1
19,F,0,1,15,1,1,60,4,3931,0,0.4812503,6.49805,4.109993,-1
19,F,0,1,15,2,2,57,1,1698,0,0.7246734,12.16156,3.33237,-1
19,F,0,1,15,3,1,59,3,2276,0,0.1111521,6.214936,0.9739782,-1
19,F,0,1,15,4,1,57,1,1965,0,0.4154036,6.120757,3.672159,-1
19,F,0,1,15,5,2,58,2,4198,2,0.2219138,12.28237,1.007165,-1
19,F,0,1,15,6,2,60,4,2798,0,0.5227786,12.45532,2.371741,-1
19,F,0,1,15,7,1,58,2,4876,1,0.527304,6.497517,4.448142,-1
19,F,0,1,15,8,2,59,3,2087,0,0.5233209,12.24722,2.385237,-1
19,F,0,1,16,1,2,61,1,2609,1,0.4589683,12.16283,2.112018,-1
19,F,0,1,16,2,2,62,2,1387,0,0.8967395,12.29143,4.069482,-1
19,F,0,1,16,3,1,64,4,2342,1,0.3864847,6.517651,3.24938,-1
19,F,0,1,16,4,2,63,3,2542,0,0.3658938,12.25733,1.664011,-1
19,F,0,1,16,5,1,62,2,3353,1,0.162597,6.513011,1.367306,-1
19,F,0,1,16,6,1,63,3,2942,0,0.0377287,6.225526,0.3292442,-1
19,F,0,1,16,7,2,64,4,4153,2,0.7890483,12.365,3.616496,-1
19,F,0,1,16,8,1,61,1,1542,0,0.4357273,6.116959,3.857524,-1
19,F,0,1,17,1,3,67,3,2198,0,0.2515395,6.210448,2.203804,-1
19,F,0,1,17,2,3,66,2,1809,0,0.5184855,6.473957,4.340862,-1
19,F,0,1,17,3,4,68,4,3020,0,2.213038E-07,12.45852,0,-1
19,F,0,1,17,4,4,67,3,3876,0,0.3579009,12.23897,1.623894,-1
19,F,0,1,17,5,4,66,2,2275,1,0.3597273,12.32792,1.64782,-1
19,F,0,1,17,6,4,65,1,1365,0,0.1810833,12.19794,0.8325126,-1
19,F,0,1,17,7,3,68,4,2876,0,0.4271576,6.44081,3.630546,-1
19,F,0,1,17,8,3,65,1,3020,1,5.421384E-08,6.123368,0,-1
19,F,0,1,18,1,4,70,2,2709,1,0.5093059,12.27267,2.315368,-1
19,F,0,1,18,2,4,69,1,1654,0,0.4818575,12.23426,2.23248,-1
19,F,0,1,18,3,4,71,3,3553,0,0.7873264,12.24009,3.58146,-1
19,F,0,1,18,4,3,72,4,4142,1,0.3997042,6.440609,3.362433,-1
19,F,0,1,18,5,3,70,2,2976,1,0.3588445,6.454242,3.003418,-1
19,F,0,1,18,6,3,69,1,1598,0,0.07529318,6.153449,0.6766641,-1
19,F,0,1,18,7,3,71,3,3376,0,0.2545392,6.272628,2.223079,-1
19,F,0,1,18,8,4,72,4,2731,1,0.4497996,12.3875,2.021876,-1
19,F,0,1,19,1,3,74,2,3398,0,0.3094702,6.505315,2.593897,-1
19,F,0,1,19,2,3,76,4,3842,1,0.3160892,6.433354,2.692464,-1
19,F,0,1,19,3,3,75,3,3064,0,0.3259507,6.270668,2.839591,-1
19,F,0,1,19,4,4,73,1,2076,0,0.4630049,12.22274,2.144023,-1
19,F,0,1,19,5,4,75,3,3053,0,0.2546816,12.3063,1.167011,-1
19,F,0,1,19,6,4,76,4,3042,1,0.2993993,12.40624,1.345376,-1
19,F,0,1,19,7,3,73,1,1909,0,0.3857916,6.121127,3.401739,-1
19,F,0,1,19,8,4,74,2,1687,0,0.7257441,12.3321,3.28956,-1
19,F,0,1,20,1,3,77,1,1931,0,8.750964E-08,6.112649,0.01978234,-1
19,F,0,1,20,2,4,79,3,4709,0,0.982595,12.25425,4.46651,-1
19,F,0,1,20,3,3,80,4,3476,0,0.3813328,6.449206,3.25197,-1
19,F,0,1,20,4,4,77,1,1287,0,0.4508979,12.16632,2.086848,-1
19,F,0,1,20,5,3,78,2,3720,1,0.2582588,6.51208,2.155676,-1
19,F,0,1,20,6,4,80,4,2454,0,0.3960554,12.45808,1.779273,-1
19,F,0,1,20,7,4,78,2,2331,0,0.7251561,12.32975,3.291166,-1
19,F,0,1,20,8,3,79,3,2787,0,0.1118669,6.266547,0.9747815,-1
19,F,0,1,20,1,2,77,1,1731,0,0.5944141,12.16817,2.753495,-1
19,F,0,1,20,2,1,80,4,2587,0,0.253648,6.502395,2.139088,-1
19,F,0,1,20,3,1,79,3,2076,0,0.4494574,6.217152,3.908058,-1
19,F,0,1,20,4,2,80,4,2942,0,0.3879819,12.45986,1.742823,-1
19,F,0,1,20,5,1,78,2,4920,1,0.4965787,6.500477,4.174059,-1
19,F,0,1,20,6,2,79,3,6876,3,0.7184274,12.16468,3.316352,-1
19,F,0,1,20,7,2,78,2,9999,0,-1,-1,-1,-1
19,F,0,1,20,8,1,77,1,2365,0,0.07162341,6.132122,0.6373509,-1
19,F,0,1,21,1,1,84,4,2287,0,0.3998603,6.504815,3.390671,-1
19,F,0,1,21,2,2,81,1,1498,0,0.740267,12.19163,3.438719,-1
19,F,0,1,21,3,2,82,2,1276,0,0.892964,12.30241,4.116468,-1
19,F,0,1,21,4,2,83,3,3187,0,0.3807184,12.26885,1.726918,-1
19,F,0,1,21,5,2,84,4,2676,0,0.6346455,12.47412,2.845031,-1
19,F,0,1,21,6,1,82,2,4598,1,0.24795,6.514647,2.081777,-1
19,F,0,1,21,7,1,81,1,1620,0,9.536227E-08,6.158431,0,-1
19,F,0,1,21,8,1,83,3,2853,0,0.1019199,6.226466,0.8860281,-1
19,F,0,1,22,1,1,88,4,5353,0,0.1353505,6.514217,1.143637,-1
19,F,0,1,22,2,1,85,1,1998,0,1.068562E-07,6.152635,0,-1
19,F,0,1,22,3,1,86,2,1953,0,0.3797892,6.513145,3.187211,-1
19,F,0,1,22,4,1,87,3,3142,0,0.2114979,6.235478,1.83547,-1
19,F,0,1,22,5,2,85,1,1953,0,0.3731459,12.19999,1.724536,-1
19,F,0,1,22,6,2,86,2,1476,0,0.8493272,12.30858,3.913166,-1
19,F,0,1,22,7,2,88,4,3120,0,0.5395886,12.47748,2.418485,-1
19,F,0,1,22,8,2,87,3,2976,0,0.2682988,12.27492,1.226369,-1
19,F,0,1,23,1,1,89,1,3276,0,1.006399E-07,6.154787,0.01978234,-1
19,F,0,1,23,2,2,91,3,3342,0,0.2938066,12.2756,1.349007,-1
19,F,0,1,23,3,2,92,4,2620,0,0.2447306,12.48193,1.095573,-1
19,F,0,1,23,4,2,90,2,1587,0,0.7449599,12.31329,3.378407,-1
19,F,0,1,23,5,1,92,4,3498,0,0.4271661,6.513847,3.638304,-1
19,F,0,1,23,6,1,90,2,2320,0,0.1768911,6.522348,1.496325,-1
19,F,0,1,23,7,2,89,1,1453,0,0.2792326,12.20156,1.28664,-1
19,F,0,1,23,8,1,91,3,2842,0,0.3506244,6.234066,3.060367,-1
19,F,0,1,24,1,2,94,2,9999,0,-1,-1,-1,-1
19,F,0,1,24,2,1,93,1,1920,0,0.2833699,6.164624,2.501707,-1
19,F,0,1,24,3,1,96,4,3287,0,0.4661679,6.515659,3.970001,-1
19,F,0,1,24,4,1,94,2,5487,0,0.401217,6.524494,3.349482,-1
19,F,0,1,24,5,2,95,3,2453,0,0.1066333,12.28018,0.4869847,-1
19,F,0,1,24,6,2,93,1,2553,0,0.2186354,12.20946,1.000733,-1
19,F,0,1,24,7,1,95,3,2365,0,0.1037806,6.235138,0.9052542,-1
19,F,0,1,24,8,2,96,4,2954,0,1.375004E-07,12.48051,0.01978234,-1
19,F,0,1,25,1,1,99,3,2476,0,0.3578243,6.24315,3.118913,-1
19,F,0,1,25,2,1,100,4,3820,0,0.3055646,6.520649,2.599023,-1
19,F,0,1,25,3,1,98,2,4320,1,0.303661,6.525095,2.557266,-1
19,F,0,1,25,4,2,97,1,1720,0,1.815539E-07,12.21005,0,-1
19,F,0,1,25,5,2,100,4,2976,1,0.06435534,12.492,0.2887141,-1
19,F,0,1,25,6,2,98,2,2142,0,0.5865358,12.31997,2.655865,-1
19,F,0,1,25,7,1,97,1,1642,0,0.3584915,6.171742,3.160502,-1
19,F,0,1,25,8,2,99,3,1720,0,0.07126375,12.28616,0.324455,-1
19,F,0,1,26,1,1,101,1,1742,0,0.03380165,6.168055,0.3000144,-1
19,F,0,1,26,2,2,104,4,2465,0,0.4457709,12.48259,1.996844,-1
19,F,0,1,26,3,2,101,1,1287,0,0.3087457,12.20971,1.428207,-1
19,F,0,1,26,4,2,102,2,1376,0,0.844966,12.31945,3.882318,-1
19,F,0,1,26,5,2,103,3,1665,0,1.051962,12.28312,4.771303,-1
19,F,0,1,26,6,1,104,4,3465,0,0.5211249,6.525722,4.432261,-1
19,F,0,1,26,7,1,103,3,3042,1,6.001023E-08,6.240955,0,-1
19,F,0,1,26,8,1,102,2,1831,0,0.3031599,6.519867,2.532191,-1
19,F,0,1,27,1,2,108,4,3098,0,0.477598,12.48426,2.138814,-1
19,F,0,1,27,2,2,106,2,1276,0,0.8548182,12.32049,3.934774,-1
19,F,0,1,27,3,1,107,3,3153,0,0.3693381,6.244375,3.218263,-1
19,F,0,1,27,4,1,108,4,3198,1,0.1114371,6.523743,0.9468806,-1
19,F,0,1,27,5,2,105,1,1531,0,0.007989621,12.20923,0.02797646,-1
19,F,0,1,27,6,2,107,3,1764,0,0.6186868,12.28119,2.804353,-1
19,F,0,1,27,7,1,105,1,1842,0,1.94501E-07,6.160588,0.01978234,-1
19,F,0,1,27,8,1,106,2,2365,0,0.4587137,6.51603,3.848885,-1
19,F,0,1,28,1,2,111,3,2431,0,0.1332639,12.28964,0.607807,-1
19,F,0,1,28,2,2,110,2,1553,0,0.192646,12.32081,0.8737969,-1
19,F,0,1,28,3,1,112,4,4531,1,0.2193902,6.528018,1.863721,-1
19,F,0,1,28,4,1,109,1,1931,0,1.035192E-07,6.164142,0,-1
19,F,0,1,28,5,1,111,3,3120,0,0.003196416,6.237929,0.01978234,-1
19,F,0,1,28,6,1,110,2,2231,0,0.2726344,6.520796,2.278901,-1
19,F,0,1,28,7,2,109,1,1309,0,0.3745311,12.20891,1.737312,-1
19,F,0,1,28,8,2,112,4,3220,0,0.3427994,12.4877,1.534549,-1
19,F,0,1,29,1,1,115,3,2331,0,0.5095161,6.238334,4.453335,-1
19,F,0,1,29,2,1,116,4,3076,1,0.411525,6.520906,3.501237,-1
19,F,0,1,29,3,1,113,1,1543,0,8.122025E-08,6.161197,0,-1
19,F,0,1,29,4,2,114,2,1998,0,0.4418878,12.30558,2.003888,-1
19,F,0,1,29,5,2,113,1,1131,0,0.7831901,12.19982,3.583974,-1
19,F,0,1,29,6,2,115,3,2242,0,2.002942E-07,12.27915,0,-1
19,F,0,1,29,7,2,116,4,2809,1,1.020319E-07,12.48619,0,-1
19,F,0,1,29,8,1,114,2,2032,0,0.2843603,6.522875,2.37784,-1
19,F,0,1,30,1,2,120,4,2242,0,0.664095,12.48008,2.974535,-1
19,F,0,1,30,2,1,118,2,1720,0,0.2848431,6.526764,2.406396,-1
19,F,0,1,30,3,1,120,4,2476,0,0.52228,6.529251,4.439899,-1
19,F,0,1,30,4,2,119,3,2453,0,0.5863989,12.28871,2.656086,-1
19,F,0,1,30,5,2,118,2,1609,0,2.627939E-08,12.32267,0,-1
19,F,0,1,30,6,2,117,1,1409,0,9.711679E-08,12.20825,0,-1
19,F,0,1,30,7,1,119,3,2620,0,0.0672896,6.248089,0.5855064,-1
19,F,0,1,30,8,1,117,1,6109,0,1.261413E-07,6.166442,0,-1
19,F,0,1,31,1,1,124,4,4175,1,1.593435E-08,6.528529,0,-1
19,F,0,1,31,2,1,123,3,3076,1,0.03670108,6.243465,0.3202056,-1
19,F,0,1,31,3,1,121,1,1554,0,4.966452E-08,6.163835,0,-1
19,F,0,1,31,4,1,122,2,1642,0,0.4626868,6.514102,3.87712,-1
19,F,0,1,31,5,2,124,4,1898,0,0.8483683,12.48179,3.779475,-1
19,F,0,1,31,6,2,121,1,1442,0,0.07907046,12.20114,0.3620769,-1
19,F,0,1,31,7,2,123,3,1720,0,0.5839872,12.28798,2.645675,-1
19,F,0,1,31,8,2,122,2,1176,0,0.326858,12.31682,1.487932,-1
19,F,0,1,32,1,1,125,1,3009,0,0.286218,6.169042,2.52538,-1
19,F,0,1,32,2,2,128,4,2498,0,0.906966,12.48255,4.064764,-1
19,F,0,1,32,3,1,126,2,4353,1,0.2486827,6.52537,2.076883,-1
19,F,0,1,32,4,2,127,3,2776,0,0.00320138,12.28572,0.01978234,-1
19,F,0,1,32,5,2,126,2,1087,0,0.2927306,12.31816,1.329427,-1
19,F,0,1,32,6,2,125,1,1754,0,0.1777304,12.20519,0.8192443,-1
19,F,0,1,32,7,1,128,4,3687,0,0.2589713,6.530704,2.199358,-1
19,F,0,1,32,8,1,127,3,2220,0,0.2561852,6.250083,2.225543,-1
19,F,0,1,33,1,2,130,2,1376,0,0.3936813,12.31822,1.783886,-1
19,F,0,1,33,2,1,131,3,1865,0,0.1249669,6.247759,1.088045,-1
19,F,0,1,33,3,1,129,1,3209,0,1.405617E-07,6.159717,0,-1
19,F,0,1,33,4,2,131,3,2053,0,0.4996696,12.28977,2.263043,-1
19,F,0,1,33,5,1,132,4,3498,1,8.536887E-08,6.532785,0,-1
19,F,0,1,33,6,1,130,2,1198,0,0.2769831,6.522787,2.332549,-1
19,F,0,1,33,7,2,132,4,2587,0,0.192443,12.49176,0.8638874,-1
19,F,0,1,33,8,2,129,1,2142,0,0.1323412,12.21404,0.6058724,-1
19,F,0,1,34,1,1,135,3,2298,0,0.05100999,6.241964,0.4432315,-1
19,F,0,1,34,2,2,133,1,2542,0,0.04339675,12.21315,0.1988102,-1
19,F,0,1,34,3,2,136,4,2331,0,0.1287508,12.48904,0.5814822,-1
19,F,0,1,34,4,2,134,2,1287,0,0.6498965,12.31494,2.966363,-1
19,F,0,1,34,5,2,135,3,1887,0,0.1811385,12.28699,0.8221055,-1
19,F,0,1,34,6,1,133,1,3776,0,0.176549,6.171838,1.563855,-1
19,F,0,1,34,7,1,134,2,2042,0,0.2215828,6.522666,1.853613,-1
19,F,0,1,34,8,1,136,4,3831,0,0.4030959,6.534641,3.422282,-1
19,F,0,1,35,1,1,137,1,1853,0,0.03515323,6.164659,0.311533,-1
19,F,0,1,35,2,1,139,3,2842,0,0.09859628,6.246171,0.858434,-1
19,F,0,1,35,3,1,140,4,3942,0,0.01099591,6.534428,0.09487279,-1
19,F,0,1,35,4,1,138,2,1176,0,0.2779139,6.530418,2.317564,-1
19,F,0,1,35,5,2,137,1,1187,0,1.060126E-07,12.21249,0.01978234,-1
19,F,0,1,35,6,2,140,4,3020,0,0.69542,12.49207,3.113259,-1
19,F,0,1,35,7,2,139,3,1709,0,0.06637472,12.2922,0.301316,-1
19,F,0,1,35,8,2,138,2,1309,0,0.4552559,12.31735,2.062699,-1
19,F,0,1,37,1,3,148,4,2798,1,0.2680708,6.53497,2.255593,-1
19,F,0,1,37,2,4,147,3,2653,0,0.02300924,12.28081,0.1046783,-1
19,F,0,1,37,3,4,148,4,2298,0,0.5549263,12.45593,2.480019,-1
19,F,0,1,37,4,4,145,1,1376,0,0.1450295,12.2349,0.6647022,-1
19,F,0,1,37,5,4,146,2,987,0,6.930656E-08,12.33093,0,-1
19,F,0,1,37,6,3,147,3,3220,0,0.2601844,6.252764,2.270899,-1
19,F,0,1,37,7,3,146,2,4131,0,0.5225953,6.52774,4.351452,-1
19,F,0,1,37,8,3,145,1,2865,0,3.613541E-08,6.162544,0,-1
19,F,0,1,38,1,4,151,3,2509,0,0.7319637,12.28104,3.312098,-1
19,F,0,1,38,2,4,152,4,2576,0,0.238941,12.49064,1.073925,-1
19,F,0,1,38,3,4,149,1,1598,0,0.718025,12.27497,3.268124,-1
19,F,0,1,38,4,4,150,2,1076,0,0.1567323,12.36755,0.7154584,-1
19,F,0,1,38,5,3,151,3,3409,0,0.06335039,6.254493,0.5510744,-1
19,F,0,1,38,6,3,149,1,1598,0,1.672499E-07,6.169735,0,-1
19,F,0,1,38,7,3,152,4,2553,0,0.1628253,6.472127,1.383101,-1
19,F,0,1,38,8,3,150,2,4009,0,0.1995843,6.51473,1.664481,-1
19,F,0,1,39,1,3,156,4,2764,0,0.5321865,6.531841,4.522207,-1
19,F,0,1,39,2,3,155,3,3409,0,0.1315514,6.310414,1.142267,-1
19,F,0,1,39,3,4,154,2,1586,0,0.667092,12.36028,3.024268,-1
19,F,0,1,39,4,3,153,1,2687,0,0.001441469,6.156732,0.01978234,-1
19,F,0,1,39,5,4,156,4,1976,0,0.8784247,12.48548,3.935769,-1
19,F,0,1,39,6,4,155,3,2842,0,1.431874E-08,12.27222,0,-1
19,F,0,1,39,7,4,153,1,1331,0,0.1891619,12.26465,0.8702065,-1
19,F,0,1,39,8,3,154,2,2042,0,0.4536326,6.52121,3.789926,-1
19,F,0,1,40,1,4,160,4,1965,0,0.02770798,12.4439,0.1251145,-1
19,F,0,1,40,2,4,159,3,1742,0,0.1161065,12.3457,0.5278606,-1
19,F,0,1,40,3,3,160,4,3020,0,0.3362213,6.475242,2.853619,-1
19,F,0,1,40,4,4,158,2,998,0,0.1441297,12.36035,0.65342,-1
19,F,0,1,40,5,3,157,1,1953,0,0.3528247,6.16468,3.101288,-1
19,F,0,1,40,6,3,159,3,3020,0,1.318837E-07,6.241599,0,-1
19,F,0,1,40,7,4,157,1,1698,0,0.3166011,12.21758,1.453738,-1
19,F,0,1,40,8,3,158,2,1576,0,0.4035599,6.522366,3.373246,-1
19,F,0,1,41,1,2,164,4,2231,0,0.7388526,12.47604,3.309615,-1
19,F,0,1,41,2,1,163,3,2009,0,0.1160891,6.237273,1.014329,-1
19,F,0,1,41,3,2,162,2,898,0,0.4011742,12.30286,1.811321,-1
19,F,0,1,41,4,1,161,1,2209,0,0.4063992,6.155447,3.591941,-1
19,F,0,1,41,5,1,162,2,1887,1,0.008866534,6.509469,0.07661668,-1
19,F,0,1,41,6,2,161,1,1264,0,0.2149522,12.1984,0.9853634,-1
19,F,0,1,41,7,1,164,4,4198,0,0.1804026,6.525781,1.517364,-1
19,F,0,1,41,8,2,163,3,2398,0,0.2569367,12.26657,1.166004,-1
19,F,0,1,42,1,2,168,4,2676,0,0.4981121,12.45952,2.265463,-1
19,F,0,1,42,2,1,166,2,3631,0,0.3728912,6.529677,3.129002,-1
19,F,0,1,42,3,2,165,1,1853,0,0.4603468,12.19409,2.115721,-1
19,F,0,1,42,4,1,167,3,2009,0,0.3069055,6.243166,2.665649,-1
19,F,0,1,42,5,1,165,1,3776,0,0.2060732,6.140106,1.85741,-1
19,F,0,1,42,6,2,166,2,2576,1,0.9721336,12.292,4.406734,-1
19,F,0,1,42,7,1,168,4,2409,0,0.3301696,6.5303,2.804841,-1
19,F,0,1,42,8,2,167,3,1842,0,0.588188,12.27992,2.666237,-1
19,F,0,1,43,1,2,170,2,831,0,0.9120191,12.30628,4.11742,-1
19,F,0,1,43,2,2,169,1,1053,0,0.4266836,12.1968,1.953144,-1
19,F,0,1,43,3,1,171,3,1598,0,0.4166138,6.250417,3.628442,-1
19,F,0,1,43,4,1,169,1,1331,0,6.229596E-08,6.154018,0,-1
19,F,0,1,43,5,1,170,2,2998,1,0.2466826,6.515866,2.073676,-1
19,F,0,1,43,6,2,172,4,2142,0,0.9819084,12.47114,4.401175,-1
19,F,0,1,43,7,2,171,3,1887,0,0.4056734,12.27494,1.85002,-1
19,F,0,1,43,8,1,172,4,3454,0,0.4180872,6.526066,3.554902,-1
19,F,0,1,44,1,1,175,3,2109,0,0.2935987,6.250023,2.551136,-1
19,F,0,1,44,2,1,174,2,1165,0,0.5582907,6.517566,4.696027,-1
19,F,0,1,44,3,1,173,1,1165,0,0.2165772,6.151075,1.911824,-1
19,F,0,1,44,4,2,175,3,2164,0,0.4932265,12.27184,2.269002,-1
19,F,0,1,44,5,2,174,2,987,0,0.7468711,12.30779,3.370459,-1
19,F,0,1,44,6,2,176,4,1298,0,2.48708E-07,12.48053,0,-1
19,F,0,1,44,7,2,173,1,997,0,0.1251534,12.19373,0.5760729,-1
19,F,0,1,44,8,1,176,4,1920,0,0.325307,6.531031,2.763005,-1
19,F,0,1,45,1,2,179,3,1820,0,0.2032185,12.28537,0.9276733,-1
19,F,0,1,45,2,1,180,4,2165,1,0.2159004,6.534289,1.813049,-1
19,F,0,1,45,3,2,178,2,1042,0,0.6952336,12.31873,3.130878,-1
19,F,0,1,45,4,2,177,1,1998,1,0.5224348,12.20212,2.404606,-1
19,F,0,1,45,5,1,179,3,1709,0,4.17079E-08,6.246068,0.01978234,-1
19,F,0,1,45,6,1,178,2,2453,1,0.4733061,6.520061,3.978477,-1
19,F,0,1,45,7,2,180,4,1309,0,0.1027489,12.48152,0.463094,-1
19,F,0,1,45,8,1,177,1,1198,0,0.3855682,6.156189,3.385991,-1
19,F,0,1,46,1,1,182,2,809,0,0.3589635,6.510671,3.020511,-1
19,F,0,1,46,2,2,183,3,1376,0,1.033148E-07,12.28431,0,-1
19,F,0,1,46,3,1,184,4,2120,0,0.01800969,6.536437,0.1493534,-1
19,F,0,1,46,4,1,181,1,1309,0,8.785995E-08,6.15716,0.01978234,-1
19,F,0,1,46,5,2,182,2,2242,0,0.9346478,12.30869,4.219001,-1
19,F,0,1,46,6,2,184,4,2242,0,0.5923214,12.4755,2.654538,-1
19,F,0,1,46,7,1,183,3,1909,0,7.712031E-08,6.236779,0,-1
19,F,0,1,46,8,2,181,1,1476,1,0.7978292,12.19656,3.647119,-1
19,F,0,1,47,1,2,187,3,4464,2,0.04286896,12.24036,0.1968319,-1
19,F,0,1,47,2,2,185,1,1231,0,0.6701215,12.18008,3.07848,-1
19,F,0,1,47,3,1,188,4,1865,0,0.03894171,6.530238,0.3280534,-1
19,F,0,1,47,4,1,186,2,1165,0,0.4410133,6.515893,3.708979,-1
19,F,0,1,47,5,1,185,1,1976,1,0.05290071,6.141786,0.4718838,-1
19,F,0,1,47,6,1,187,3,1953,0,0.07786132,6.235043,0.680413,-1
19,F,0,1,47,7,2,186,2,2987,0,0.4982772,12.30458,2.248466,-1
19,F,0,1,47,8,2,188,4,5442,0,0.603869,12.4883,2.703564,-1
19,F,0,1,48,1,2,189,1,1409,0,0.8173444,12.19839,3.728829,-1
19,F,0,1,48,2,1,190,2,3876,2,0.2662988,6.519688,2.237297,-1
19,F,0,1,48,3,1,189,1,1498,0,0.234191,6.146657,2.070937,-1
19,F,0,1,48,4,1,192,4,2620,0,0.3812816,6.527534,3.22106,-1
19,F,0,1,48,5,2,190,2,1520,1,0.9725714,12.30919,4.390392,-1
19,F,0,1,48,6,2,191,3,2064,0,0.3591507,12.27576,1.642825,-1
19,F,0,1,48,7,2,192,4,1798,0,1.048911,12.48285,4.702197,-1
19,F,0,1,48,8,1,191,3,2487,0,1.165137E-07,6.242599,0,-1
19,F,0,1,49,1,1,193,1,1287,0,0.4538985,6.15798,3.97823,-1
19,F,0,1,49,2,1,195,3,1865,0,0.06736638,6.229445,0.5908293,-1
19,F,0,1,49,3,1,196,4,1976,0,0.3888477,6.525368,3.279367,-1
19,F,0,1,49,4,1,194,2,5631,3,0.3402001,6.537854,2.850874,-1
19,F,0,1,49,5,2,195,3,1876,0,0.4291001,12.29627,1.960644,-1
19,F,0,1,49,6,2,193,1,1276,0,0.9466125,12.2149,4.333456,-1
19,F,0,1,49,7,2,196,4,2298,0,0.671822,12.50057,3.004265,-1
19,F,0,1,49,8,2,194,2,1176,0,0.7627748,12.32833,3.436725,-1
19,F,0,1,50,1,1,197,1,1776,0,0.272082,6.164932,2.39882,-1
19,F,0,1,50,2,2,200,4,1942,0,0.6751578,12.50298,3.054604,-1
19,F,0,1,50,3,2,199,3,1653,0,2.610122E-08,12.3056,0,-1
19,F,0,1,50,4,2,198,2,2109,1,0.9968066,12.32292,4.495055,-1
19,F,0,1,50,5,1,200,4,1998,0,0.4461642,6.537731,3.7639,-1
19,F,0,1,50,6,1,198,2,3031,1,0.4190937,6.540473,3.522756,-1
19,F,0,1,50,7,2,197,1,1831,1,0.6746887,12.22175,3.071859,-1
19,F,0,1,50,8,1,199,3,1909,0,1.762264E-07,6.261485,0.01978234,-1
19,F,0,1,51,1,2,204,4,2798,0,0.9789088,12.50899,4.453642,-1
19,F,0,1,51,2,1,203,3,3287,0,5.304635E-08,6.266465,0,-1
19,F,0,1,51,3,1,202,2,2098,1,0.1790113,6.528737,1.501678,-1
19,F,0,1,51,4,2,201,1,1376,0,0.8290043,12.21165,3.798493,-1
19,F,0,1,51,5,1,204,4,2976,0,0.3069072,6.551907,2.598571,-1
19,F,0,1,51,6,2,202,2,1798,1,0.6280578,12.32312,2.830407,-1
19,F,0,1,51,7,1,201,1,1576,0,0.4621617,6.167926,4.050042,-1
19,F,0,1,51,8,2,203,3,2876,0,0.4427299,12.30131,2.022263,-1
19,F,0,1,52,1,1,205,1,2253,0,0.417371,6.169424,3.666983,-1
19,F,0,1,52,2,2,206,2,964,0,0.6391076,12.32026,2.880791,-1
19,F,0,1,52,3,2,205,1,1565,1,0.3061281,12.2154,1.403606,-1
19,F,0,1,52,4,1,207,3,1842,0,1.643576E-07,6.260845,0,-1
19,F,0,1,52,5,2,208,4,2398,0,0.8137747,12.50255,3.652376,-1
19,F,0,1,52,6,1,206,2,3342,0,0.4679012,6.537574,3.922712,-1
19,F,0,1,52,7,1,208,4,3598,0,0.3618354,6.546616,3.064969,-1
19,F,0,1,52,8,2,207,3,1920,0,1.952454E-07,12.30566,0,-1
19,F,0,1,53,1,1,210,2,3320,1,0.3484923,6.531759,2.927904,-1
19,F,0,1,53,2,1,209,1,3120,2,0.1608224,6.160816,1.422028,-1
19,F,0,1,53,3,2,211,3,2665,0,0.6962646,12.30389,3.195982,-1
19,F,0,1,53,4,1,212,4,3531,0,0.3090377,6.550675,2.617036,-1
19,F,0,1,53,5,2,210,2,3165,2,0.5475129,12.32243,2.4672,-1
19,F,0,1,53,6,1,211,3,1787,0,8.184853E-08,6.260028,0,-1
19,F,0,1,53,7,2,209,1,1242,0,0.5144939,12.21616,2.34727,-1
19,F,0,1,53,8,2,212,4,2176,0,0.7366848,12.49991,3.293961,-1
19,F,0,1,54,1,1,215,3,1720,0,0.09845522,6.267525,0.85638,-1
19,F,0,1,54,2,2,213,1,1131,0,0.2527338,12.21587,1.162643,-1
19,F,0,1,54,3,2,216,4,1276,0,0.4605772,12.50121,2.061275,-1
19,F,0,1,54,4,2,215,3,1975,0,0.6540591,12.29841,3.003222,-1
19,F,0,1,54,5,1,213,1,1898,0,5.536891E-08,6.167457,0,-1
19,F,0,1,54,6,1,214,2,1886,0,0.482336,6.531219,4.047721,-1
19,F,0,1,54,7,1,216,4,1820,0,0.4072687,6.550031,3.450144,-1
19,F,0,1,54,8,2,214,2,953,0,0.525044,12.32527,2.365378,-1
19,F,0,1,55,1,2,219,3,2765,0,3.448932E-08,12.30422,0,-1
19,F,0,1,55,2,2,217,1,1253,0,0.6422809,12.21608,2.926099,-1
19,F,0,1,55,3,1,220,4,1798,0,0.4520496,6.54926,3.830526,-1
19,F,0,1,55,4,1,219,3,2109,0,0.400288,6.272994,3.47384,-1
19,F,0,1,55,5,2,220,4,2553,0,0.4512573,12.50267,2.018097,-1
19,F,0,1,55,6,2,218,2,1209,0,0.6529448,12.32682,2.936717,-1
19,F,0,1,55,7,1,217,1,4909,0,0.123108,6.171773,1.087146,-1
19,F,0,1,55,8,1,218,2,3342,1,0.0853418,6.530955,0.7162784,-1
19,F,0,1,56,1,1,223,3,1898,0,0.04261545,6.265186,0.3695653,-1
19,F,0,1,56,2,2,222,2,1065,0,0.5158158,12.3142,2.337075,-1
19,F,0,1,56,3,2,221,1,1131,0,0.4556056,12.20526,2.103382,-1
19,F,0,1,56,4,2,224,4,1587,0,0.5153687,12.49918,2.305456,-1
19,F,0,1,56,5,1,222,2,1331,0,0.2064005,6.52493,1.732574,-1
19,F,0,1,56,6,2,223,3,3831,0,0.4942652,12.31016,2.247857,-1
19,F,0,1,56,7,1,221,1,3165,0,0.3073897,6.171496,2.703998,-1
19,F,0,1,56,8,1,224,4,3565,0,0.1891425,6.550676,1.588315,-1
19,F,0,1,57,1,3,227,3,2187,0,8.316524E-08,6.234758,0,-1
19,F,0,1,57,2,4,226,2,2931,2,0.5723343,12.30145,2.583386,-1
19,F,0,1,57,3,4,228,4,2765,1,0.5842683,12.47795,2.637227,-1
19,F,0,1,57,4,4,227,3,1809,0,0.6997246,12.27631,3.219054,-1
19,F,0,1,57,5,3,225,1,1620,0,0.3683481,6.144928,3.246909,-1
19,F,0,1,57,6,3,226,2,2820,1,0.2565036,6.513457,2.156856,-1
19,F,0,1,57,7,4,225,1,1553,0,0.9164637,12.20242,4.230822,-1
19,F,0,1,57,8,3,228,4,1798,0,0.1910348,6.457475,1.607056,-1
19,F,0,1,58,1,3,231,3,2976,0,0.02377194,6.238134,0.2093567,-1
19,F,0,1,58,2,4,230,2,1165,0,0.5046867,12.35463,2.282848,-1
19,F,0,1,58,3,4,229,1,2431,1,1.014074,12.1967,4.716796,-1
19,F,0,1,58,4,4,232,4,1542,0,0.5316491,12.43734,2.392038,-1
19,F,0,1,58,5,4,231,3,2098,0,0.6286733,12.26975,2.882218,-1
19,F,0,1,58,6,3,230,2,2720,1,0.3664338,6.516325,3.054924,-1
19,F,0,1,58,7,3,229,1,1176,0,0.2137295,6.170307,1.887408,-1
19,F,0,1,58,8,3,232,4,2731,0,0.4700494,6.518563,3.964128,-1
19,F,0,1,59,1,3,233,1,4531,0,0.5008507,6.154149,4.443163,-1
19,F,0,1,59,2,3,235,3,3164,0,0.1156943,6.303246,1.008718,-1
19,F,0,1,59,3,3,234,2,2631,0,0.3665641,6.502585,3.044526,-1
19,F,0,1,59,4,4,233,1,1309,0,1.004914,12.26319,4.573503,-1
19,F,0,1,59,5,4,236,4,2942,1,0.5726795,12.49052,2.563688,-1
19,F,0,1,59,6,4,235,3,1820,0,0.4342823,12.28239,1.996158,-1
19,F,0,1,59,7,4,234,2,1120,0,0.8773972,12.30692,3.953145,-1
19,F,0,1,59,8,3,236,4,2876,0,0.3211435,6.470093,2.729433,-1
19,F,0,1,60,1,3,239,3,3265,0,0.2120873,6.303532,1.842813,-1
19,F,0,1,60,2,4,240,4,2209,0,0.5532775,12.45181,2.476149,-1
19,F,0,1,60,3,4,238,2,9999,0,-1,-1,-1,-1
19,F,0,1,60,4,4,239,3,2109,0,0.3619254,12.27481,1.666948,-1
19,F,0,1,60,5,4,237,1,4409,3,0.3942344,12.15586,1.822309,-1
19,F,0,1,60,6,3,238,2,3987,2,0.1485702,6.498105,1.244112,-1
19,F,0,1,60,7,3,240,4,3865,0,0.2049927,6.528399,1.741475,-1
19,F,0,1,60,8,3,237,1,1853,1,0.2514713,6.150251,2.219379,-1
19,F,0,1,61,1,2,242,2,1420,0,0.9420171,12.28015,4.261908,-1
19,F,0,1,61,2,2,244,4,2576,0,0.5828729,12.46223,2.614941,-1
19,F,0,1,61,3,2,241,1,1576,0,0.8065277,12.16956,3.714887,-1
19,F,0,1,61,4,1,242,2,3809,1,0.4694186,6.50351,3.955423,-1
19,F,0,1,61,5,2,243,3,2242,0,0.5845265,12.26429,2.690864,-1
19,F,0,1,61,6,1,244,4,3887,0,0.223954,6.526739,1.882216,-1
19,F,0,1,61,7,1,241,1,1409,0,0.3712737,6.12856,3.285868,-1
19,F,0,1,61,8,1,243,3,1776,0,0.2205494,6.230104,1.946218,-1
19,F,0,1,62,1,1,245,1,1320,0,0.1179588,6.145029,1.046611,-1
19,F,0,1,62,2,1,247,3,1809,0,1.485908E-07,6.236782,0,-1
19,F,0,1,62,3,2,245,1,1898,1,0.8304253,12.16943,3.80596,-1
19,F,0,1,62,4,2,246,2,9999,2,-1,-1,-1,-1
19,F,0,1,62,5,1,248,4,2520,1,0.08211393,6.531086,0.6940797,-1
19,F,0,1,62,6,2,247,3,3176,0,0.6349598,12.27707,2.917724,-1
19,F,0,1,62,7,2,248,4,2009,0,9.281244E-08,12.48279,0,-1
19,F,0,1,62,8,1,246,2,2842,2,0.5392793,6.507747,4.542346,-1
19,F,0,1,1,1,7,3,3,4263,0,3.96585,6.348023,37.52827,-1
19,F,0,1,1,2,6,1,1,3187,0,4.907605,12.22822,23.66162,-1
19,F,0,1,1,3,5,4,4,4820,0,5.154336,6.578267,50.86679,-1
19,F,0,1,1,4,5,1,1,2353,0,5.898927,6.204119,71.95399,-1
19,F,0,1,1,5,6,4,4,1642,0,4.034406,12.51036,18.43,-1
19,F,0,1,1,6,5,3,3,2476,0,2.070504,6.286115,18.23178,-1
19,F,0,1,1,7,7,1,1,2787,0,3.64643,6.182044,36.14581,-1
19,F,0,1,1,8,6,2,2,4276,0,3.864178,12.32839,18.18825,-1
19,F,0,1,1,9,7,4,4,2587,0,2.893212,6.565626,25.25298,-1
19,F,0,1,1,10,7,2,2,1720,0,3.239486,6.523205,29.77594,-1
19,F,0,1,1,11,6,3,3,3953,0,5.591923,12.32549,26.97919,-1
19,F,0,1,1,12,8,2,2,3987,0,3.145909,12.32435,14.34624,-1
19,F,0,1,1,13,8,3,3,1231,0,3.60268,12.31395,16.50857,-1
19,F,0,1,1,14,8,1,1,2598,0,7.991941,12.22764,40.8133,-1
19,F,0,1,1,15,5,2,2,2476,0,2.116717,6.52445,18.06515,-1
19,F,0,1,1,16,8,4,4,2476,0,5.756004,12.45633,27.52235,-1
19,F,0,1,2,1,7,2,2,3676,0,3.24976,6.530411,29.84365,-1
19,F,0,1,2,2,5,4,4,1142,0,5.07934,6.579823,49.21491,-1
19,F,0,1,2,3,5,1,1,1865,0,2.604433,6.189308,24.88481,-1
19,F,0,1,2,4,8,4,4,2276,0,5.159314,12.44992,24.08677,-1
19,F,0,1,2,5,8,3,3,1176,0,3.902342,12.32051,18.02658,-1
19,F,0,1,2,6,7,1,1,3442,0,2.004949,6.164979,18.4371,-1
19,F,0,1,2,7,8,2,2,4076,0,8.71082,12.34343,44.88654,-1
19,F,0,1,2,8,7,4,4,3154,0,3.763253,6.572603,33.6659,-1
19,F,0,1,2,9,6,1,1,1298,0,3.118887,12.21561,14.63073,-1
19,F,0,1,2,10,6,3,3,1653,0,5.651833,12.33339,27.27136,-1
19,F,0,1,2,11,5,2,2,3020,0,3.742716,6.528391,34.98056,-1
19,F,0,1,2,12,7,3,3,1453,0,4.092907,6.373127,39.59517,-1
19,F,0,1,2,13,6,4,4,5375,0,7.818,12.50739,38.33713,-1
19,F,0,1,2,14,5,3,3,1120,0,3.867054,6.307788,36.69475,-1
19,F,0,1,2,15,8,1,1,853,0,3.827439,12.21735,18.25693,-1
19,F,0,1,2,16,6,2,2,998,0,4.822048,12.32274,23.00501,-1
